key_resp.keys,key_resp.rt,key_resp_16.keys,key_resp_16.rt,key_resp_2.keys,key_resp_2.rt,key_resp_3.keys,key_resp_3.rt,key_resp_19.keys,key_resp_19.rt,key_resp_10.keys,key_resp_10.rt,mouse_prac.x,mouse_prac.y,mouse_prac.leftButton,mouse_prac.midButton,mouse_prac.rightButton,mouse_prac.clicked_name,similarity,mouse_10.x,mouse_10.y,mouse_10.leftButton,mouse_10.midButton,mouse_10.rightButton,mouse_10.clicked_name,mouse_catch_prac.x,mouse_catch_prac.y,mouse_catch_prac.leftButton,mouse_catch_prac.midButton,mouse_catch_prac.rightButton,catchnumberprac,mouse_6.x,mouse_6.y,mouse_6.leftButton,mouse_6.midButton,mouse_6.rightButton,during_prac.thisRepN,during_prac.thisTrialN,during_prac.thisN,during_prac.thisIndex,during_prac.ran,trailimage1,trial1adress,trailimage2,trial2adress,participant,session,date,expName,psychopyVersion,OS,frameRate,PROLIFIC_PID,STUDY_ID,SESSION_ID,mouse_catch_prac.clicked_name,catchprac,mouse_6.clicked_name,key_resp_22.keys,key_resp_22.rt,mouse.x,mouse.y,mouse.leftButton,mouse.midButton,mouse.rightButton,mouse.clicked_name,response_time,mouse_2.x,mouse_2.y,mouse_2.leftButton,mouse_2.midButton,mouse_2.rightButton,mouse_2.clicked_name,mouse_3.x,mouse_3.y,mouse_3.leftButton,mouse_3.midButton,mouse_3.rightButton,catchresponse,catchnumber,catchtrialorder,mouse_11.x,mouse_11.y,mouse_11.leftButton,mouse_11.midButton,mouse_11.rightButton,trials_2.thisRepN,trials_2.thisTrialN,trials_2.thisN,trials_2.thisIndex,trials_2.ran,image1,image1adress,image2,image2adress,mouse_3.clicked_name,mouse_11.clicked_name
space,2.5523,space,1.1873,space,5.6859,space,10.972,space,22.952,space,1.8898,91.2000128,55.9999944,1,0,0,response1disk_5,3,-3.999988616,-6.4373E-06,1,0,0,rectangle_8,-3.999988616,-6.4373E-06,1,0,0,-4,-3.999988616,-6.4373E-06,1,0,0,0,0,0,3,1,trail2,trail2.jpg,trail2,trail2.jpg,5f8f58da2cacd91b623a815e,001,2021-12-17_24h05.21.314,jm_natural_scene_simialrity_2-12-2021_version2,2021.2.3,Win32,74.95128167,5f8f58da2cacd91b623a815e,61bbc5c79a1c66460f44041e,61bbc617e1fab6766dcc0e44,,,,,,,,,,,,,,,,,,,,,,,,,,,,,,,,,,,,,,,,,,
,,,,,,,,,,,,-115.9999903,-47.20000714,1,0,0,response5disk_5,-2,-3.199988604,-5.600006521,1,0,0,rectangle_8,-3.199988604,-5.600006521,1,0,0,-4,-3.199988604,-5.600006521,1,0,0,0,1,1,4,1,trail2,trail2.jpg,trail3,trail3.jpg,5f8f58da2cacd91b623a815e,001,2021-12-17_24h05.21.314,jm_natural_scene_simialrity_2-12-2021_version2,2021.2.3,Win32,74.95128167,5f8f58da2cacd91b623a815e,61bbc5c79a1c66460f44041e,61bbc617e1fab6766dcc0e44,,,,,,,,,,,,,,,,,,,,,,,,,,,,,,,,,,,,,,,,,,
,,,,,,,,,,,,-99.99999005,-43.20000708,1,0,0,response5disk_5,-2,2.40001148,-8.000006557,1,0,0,rectangle_8,-45.59998924,113.5999953,1,0,0,-4,-1.59998858,2.399993598,1,0,0,0,2,2,1,1,trail1,trail1.jpg,trail2,trail2.jpg,5f8f58da2cacd91b623a815e,001,2021-12-17_24h05.21.314,jm_natural_scene_simialrity_2-12-2021_version2,2021.2.3,Win32,74.95128167,5f8f58da2cacd91b623a815e,61bbc5c79a1c66460f44041e,61bbc617e1fab6766dcc0e44,response7disk_7,-4,rectangle_4,,,,,,,,,,,,,,,,,,,,,,,,,,,,,,,,,,,,,,,
,,,,,,,,,,,,70.40001249,-105.6000568,1,0,0,response3disk_5,1,-0.799988568,-3.200006485,1,0,0,rectangle_8,-0.799988568,-3.200006485,1,0,0,-4,-0.799988568,-3.200006485,1,0,0,0,3,3,2,1,trail1,trail1.jpg,trail3,trail3.jpg,5f8f58da2cacd91b623a815e,001,2021-12-17_24h05.21.314,jm_natural_scene_simialrity_2-12-2021_version2,2021.2.3,Win32,74.95128167,5f8f58da2cacd91b623a815e,61bbc5c79a1c66460f44041e,61bbc617e1fab6766dcc0e44,,,,,,,,,,,,,,,,,,,,,,,,,,,,,,,,,,,,,,,,,,
,,,,,,,,,,,,57.6000123,116.7999953,1,0,0,response1disk_5,4,4.000011504,-11.2000066,1,0,0,rectangle_8,-46.39994042,104.7999951,1,0,0,-4,1.600060296,4.799993634,1,0,0,0,4,4,0,1,trail1,trail1.jpg,trail1,trail1.jpg,5f8f58da2cacd91b623a815e,001,2021-12-17_24h05.21.314,jm_natural_scene_simialrity_2-12-2021_version2,2021.2.3,Win32,74.95128167,5f8f58da2cacd91b623a815e,61bbc5c79a1c66460f44041e,61bbc617e1fab6766dcc0e44,response7disk_7,-4,rectangle_4,,,,,,,,,,,,,,,,,,,,,,,,,,,,,,,,,,,,,,,
,,,,,,,,,,,,48.80001217,98.39999503,1,0,0,response1disk_5,4,0.800011456,-0.800006449,1,0,0,rectangle_8,0.800011456,-0.800006449,1,0,0,-4,0.800011456,-0.800006449,1,0,0,0,5,5,5,1,trail3,trail3.jpg,trail3,trail3.jpg,5f8f58da2cacd91b623a815e,001,2021-12-17_24h05.21.314,jm_natural_scene_simialrity_2-12-2021_version2,2021.2.3,Win32,74.95128167,5f8f58da2cacd91b623a815e,61bbc5c79a1c66460f44041e,61bbc617e1fab6766dcc0e44,,,,,,,,,,,,,,,,,,,,,,,,,,,,,,,,,,,,,,,,,,
,,,,,,,,,,,,,,,,,,1,,,,,,,,,,,,,,,,,,,,,,,,,,,5f8f58da2cacd91b623a815e,001,2021-12-17_24h05.21.314,jm_natural_scene_simialrity_2-12-2021_version2,2021.2.3,Win32,74.95128167,5f8f58da2cacd91b623a815e,61bbc5c79a1c66460f44041e,61bbc617e1fab6766dcc0e44,,,,space,2.2902,46.40001214,-99.20000792,1,0,0,response3disk,1.4946,-0.799988568,4.799993634,1,0,0,rectangle,-0.799988568,4.799993634,1,0,0,,3,"[25,20,60,106,144,47,38,85,105,153]",-0.799988568,4.799993634,1,0,0,0,0,0,61,1,Turquiose,Turquiose.jpg,LightGreen,LightGreen.jpg,,
,,,,,,,,,,,,,,,,,,-3,,,,,,,,,,,,,,,,,,,,,,,,,,,5f8f58da2cacd91b623a815e,001,2021-12-17_24h05.21.314,jm_natural_scene_simialrity_2-12-2021_version2,2021.2.3,Win32,74.95128167,5f8f58da2cacd91b623a815e,61bbc5c79a1c66460f44041e,61bbc617e1fab6766dcc0e44,,,,,,-91.19998991,55.9999944,1,0,0,response7disk,1.2938,-7.199988663,3.19999361,1,0,0,rectangle,-7.199988663,3.19999361,1,0,0,,-2,"[25,20,60,106,144,47,38,85,105,153]",-7.199988663,3.19999361,1,0,0,0,1,1,54,1,DarkGreen,DarkGreen.jpg,Yellow,Yellow.jpg,,
,,,,,,,,,,,,,,,,,,-3,,,,,,,,,,,,,,,,,,,,,,,,,,,5f8f58da2cacd91b623a815e,001,2021-12-17_24h05.21.314,jm_natural_scene_simialrity_2-12-2021_version2,2021.2.3,Win32,74.95128167,5f8f58da2cacd91b623a815e,61bbc5c79a1c66460f44041e,61bbc617e1fab6766dcc0e44,,,,,,-105.5999901,44.79999423,1,0,0,response7disk,1.36,4.800011516,1.599993587,1,0,0,rectangle,4.800011516,1.599993587,1,0,0,,1,"[25,20,60,106,144,47,38,85,105,153]",4.800011516,1.599993587,1,0,0,0,2,2,16,1,Yellow,Yellow.jpg,Purple,Purple.jpg,,
,,,,,,,,,,,,,,,,,,-1,,,,,,,,,,,,,,,,,,,,,,,,,,,5f8f58da2cacd91b623a815e,001,2021-12-17_24h05.21.314,jm_natural_scene_simialrity_2-12-2021_version2,2021.2.3,Win32,74.95128167,5f8f58da2cacd91b623a815e,61bbc5c79a1c66460f44041e,61bbc617e1fab6766dcc0e44,,,,,,-47.99998927,-124.8000083,1,0,0,response5disk,1.8283,-1.59998858,6.399993658,1,0,0,rectangle,-1.59998858,6.399993658,1,0,0,,1,"[25,20,60,106,144,47,38,85,105,153]",-1.59998858,6.399993658,1,0,0,0,3,3,77,1,Purple,Purple.jpg,LightBlue,LightBlue.jpg,,
,,,,,,,,,,,,,,,,,,-4,,,,,,,,,,,,,,,,,,,,,,,,,,,5f8f58da2cacd91b623a815e,001,2021-12-17_24h05.21.314,jm_natural_scene_simialrity_2-12-2021_version2,2021.2.3,Win32,74.95128167,5f8f58da2cacd91b623a815e,61bbc5c79a1c66460f44041e,61bbc617e1fab6766dcc0e44,,,,,,-61.59998947,119.9999954,1,0,0,response7disk,1.1383,2.40001148,3.19999361,1,0,0,rectangle,2.40001148,3.19999361,1,0,0,,3,"[25,20,60,106,144,47,38,85,105,153]",2.40001148,3.19999361,1,0,0,0,4,4,26,1,DarkGreen,DarkGreen.jpg,LightBlue,LightBlue.jpg,,
,,,,,,,,,,,,,,,,,,-4,,,,,,,,,,,,,,,,,,,,,,,,,,,5f8f58da2cacd91b623a815e,001,2021-12-17_24h05.21.314,jm_natural_scene_simialrity_2-12-2021_version2,2021.2.3,Win32,74.95128167,5f8f58da2cacd91b623a815e,61bbc5c79a1c66460f44041e,61bbc617e1fab6766dcc0e44,,,,,,-49.5999893,106.3999951,1,0,0,response7disk,0.9323,7.200011551,-23.20000678,1,0,0,rectangle,7.200011551,-23.20000678,1,0,0,,1,"[25,20,60,106,144,47,38,85,105,153]",7.200011551,-23.20000678,1,0,0,0,5,5,69,1,Pink,Pink.jpg,DarkGreen,DarkGreen.jpg,,
,,,,,,,,,,,,,,,,,,-4,,,,,,,,,,,,,,,,,,,,,,,,,,,5f8f58da2cacd91b623a815e,001,2021-12-17_24h05.21.314,jm_natural_scene_simialrity_2-12-2021_version2,2021.2.3,Win32,74.95128167,5f8f58da2cacd91b623a815e,61bbc5c79a1c66460f44041e,61bbc617e1fab6766dcc0e44,,,,,,-45.59998924,75.9999947,1,0,0,response7disk,0.7868,2.40001148,-7.200006545,1,0,0,rectangle,2.40001148,-7.200006545,1,0,0,,-4,"[25,20,60,106,144,47,38,85,105,153]",2.40001148,-7.200006545,1,0,0,0,6,6,5,1,Red,Red.jpg,LightBlue,LightBlue.jpg,,
,,,,,,,,,,,,,,,,,,-2,,,,,,,,,,,,,,,,,,,,,,,,,,,5f8f58da2cacd91b623a815e,001,2021-12-17_24h05.21.314,jm_natural_scene_simialrity_2-12-2021_version2,2021.2.3,Win32,74.95128167,5f8f58da2cacd91b623a815e,61bbc5c79a1c66460f44041e,61bbc617e1fab6766dcc0e44,,,,,,-83.99998981,-43.20000708,1,0,0,response5disk,0.9908,10.4000116,1.599993587,1,0,0,rectangle,10.4000116,1.599993587,1,0,0,,-4,"[25,20,60,106,144,47,38,85,105,153]",10.4000116,1.599993587,1,0,0,0,7,7,43,1,Pink,Pink.jpg,Purple,Purple.jpg,,
,,,,,,,,,,,,,,,,,,4,,,,,,,,,,,,,,,,,,,,,,,,,,,5f8f58da2cacd91b623a815e,001,2021-12-17_24h05.21.314,jm_natural_scene_simialrity_2-12-2021_version2,2021.2.3,Win32,74.95128167,5f8f58da2cacd91b623a815e,61bbc5c79a1c66460f44041e,61bbc617e1fab6766dcc0e44,,,,,,48.00001216,87.99999487,1,0,0,response1disk,1.3741,-3.199988604,0.799993575,1,0,0,rectangle,-3.199988604,0.799993575,1,0,0,,2,"[25,20,60,106,144,47,38,85,105,153]",-3.199988604,0.799993575,1,0,0,0,8,8,0,1,Red,Red.jpg,Red,Red.jpg,,
,,,,,,,,,,,,,,,,,,-4,,,,,,,,,,,,,,,,,,,,,,,,,,,5f8f58da2cacd91b623a815e,001,2021-12-17_24h05.21.314,jm_natural_scene_simialrity_2-12-2021_version2,2021.2.3,Win32,74.95128167,5f8f58da2cacd91b623a815e,61bbc5c79a1c66460f44041e,61bbc617e1fab6766dcc0e44,,,,,,-39.19998914,81.59999478,1,0,0,response7disk,1.0002,4.000011504,-3.200006485,1,0,0,rectangle,4.000011504,-3.200006485,1,0,0,,2,"[25,20,60,106,144,47,38,85,105,153]",4.000011504,-3.200006485,1,0,0,0,9,9,28,1,DarkGreen,DarkGreen.jpg,Pink,Pink.jpg,,
,,,,,,,,,,,,,,,,,,2,,,,,,,,,,,,,,,,,,,,,,,,,,,5f8f58da2cacd91b623a815e,001,2021-12-17_24h05.21.314,jm_natural_scene_simialrity_2-12-2021_version2,2021.2.3,Win32,74.95128167,5f8f58da2cacd91b623a815e,61bbc5c79a1c66460f44041e,61bbc617e1fab6766dcc0e44,,,,,,96.80001289,-29.60000688,1,0,0,response3disk,1.8939,-11.99998873,21.59999388,1,0,0,rectangle,-11.99998873,21.59999388,1,0,0,,-1,"[25,20,60,106,144,47,38,85,105,153]",-11.99998873,21.59999388,1,0,0,0,10,10,32,1,Turquiose,Turquiose.jpg,DarkBlue,DarkBlue.jpg,,
,,,,,,,,,,,,,,,,,,-4,,,,,,,,,,,,,,,,,,,,,,,,,,,5f8f58da2cacd91b623a815e,001,2021-12-17_24h05.21.314,jm_natural_scene_simialrity_2-12-2021_version2,2021.2.3,Win32,74.95128167,5f8f58da2cacd91b623a815e,61bbc5c79a1c66460f44041e,61bbc617e1fab6766dcc0e44,,,,,,-47.99998927,91.99999493,1,0,0,response7disk,0.8,7.200011551,-0.800006449,1,0,0,rectangle,7.200011551,-0.800006449,1,0,0,,-3,"[25,20,60,106,144,47,38,85,105,153]",7.200011551,-0.800006449,1,0,0,0,11,11,33,1,Turquiose,Turquiose.jpg,Pink,Pink.jpg,,
,,,,,,,,,,,,,,,,,,-1,,,,,,,,,,,,,,,,,,,,,,,,,,,5f8f58da2cacd91b623a815e,001,2021-12-17_24h05.21.314,jm_natural_scene_simialrity_2-12-2021_version2,2021.2.3,Win32,74.95128167,5f8f58da2cacd91b623a815e,61bbc5c79a1c66460f44041e,61bbc617e1fab6766dcc0e44,,,,,,-69.59998959,-116.0000082,1,0,0,response5disk,1.2941,1.600060296,5.599993646,1,0,0,rectangle,1.600060296,5.599993646,1,0,0,,3,"[25,20,60,106,144,47,38,85,105,153]",1.600060296,5.599993646,1,0,0,0,12,12,52,1,Purple,Purple.jpg,Red,Red.jpg,,
,,,,,,,,,,,,,,,,,,1,,,,,,,,,,,,,,,,,,,,,,,,,,,5f8f58da2cacd91b623a815e,001,2021-12-17_24h05.21.314,jm_natural_scene_simialrity_2-12-2021_version2,2021.2.3,Win32,74.95128167,5f8f58da2cacd91b623a815e,61bbc5c79a1c66460f44041e,61bbc617e1fab6766dcc0e44,,,,,,35.20001197,-94.40000784,1,0,0,response3disk,1.4536,1.14441E-05,9.599993706,1,0,0,rectangle,1.14441E-05,9.599993706,1,0,0,,-2,"[25,20,60,106,144,47,38,85,105,153]",1.14441E-05,9.599993706,1,0,0,0,13,13,76,1,Pink,Pink.jpg,LightBlue,LightBlue.jpg,,
,,,,,,,,,,,,,,,,,,-1,,,,,,,,,,,,,,,,,,,,,,,,,,,5f8f58da2cacd91b623a815e,001,2021-12-17_24h05.21.314,jm_natural_scene_simialrity_2-12-2021_version2,2021.2.3,Win32,74.95128167,5f8f58da2cacd91b623a815e,61bbc5c79a1c66460f44041e,61bbc617e1fab6766dcc0e44,,,,,,-47.99998927,-97.60005672,1,0,0,response5disk,1.1517,1.14441E-05,2.399993598,1,0,0,rectangle,1.14441E-05,2.399993598,1,0,0,,1,"[25,20,60,106,144,47,38,85,105,153]",1.14441E-05,2.399993598,1,0,0,0,14,14,71,1,LightBlue,LightBlue.jpg,Turquiose,Turquiose.jpg,,
,,,,,,,,,,,,,,,,,,-4,,,,,,,,,,,,,,,,,,,,,,,,,,,5f8f58da2cacd91b623a815e,001,2021-12-17_24h05.21.314,jm_natural_scene_simialrity_2-12-2021_version2,2021.2.3,Win32,74.95128167,5f8f58da2cacd91b623a815e,61bbc5c79a1c66460f44041e,61bbc617e1fab6766dcc0e44,,,,,,-55.19998938,75.9999947,1,0,0,response7disk,1.2804,-1.59998858,0.799993575,1,0,0,rectangle,-1.59998858,0.799993575,1,0,0,,1,"[25,20,60,106,144,47,38,85,105,153]",-1.59998858,0.799993575,1,0,0,0,15,15,59,1,Purple,Purple.jpg,Yellow,Yellow.jpg,,
,,,,,,,,,,,,,,,,,,4,,,,,,,,,,,,,,,,,,,,,,,,,,,5f8f58da2cacd91b623a815e,001,2021-12-17_24h05.21.314,jm_natural_scene_simialrity_2-12-2021_version2,2021.2.3,Win32,74.95128167,5f8f58da2cacd91b623a815e,61bbc5c79a1c66460f44041e,61bbc617e1fab6766dcc0e44,,,,,,46.40001214,86.39999485,1,0,0,response1disk,1.1336,0.800011456,-2.400006473,1,0,0,rectangle,0.800011456,-2.400006473,1,0,0,,-2,"[25,20,60,106,144,47,38,85,105,153]",0.800011456,-2.400006473,1,0,0,0,16,16,24,1,DarkGreen,DarkGreen.jpg,DarkGreen,DarkGreen.jpg,,
,,,,,,,,,,,,,,,,,,2,,,,,,,,,,,,,,,,,,,,,,,,,,,5f8f58da2cacd91b623a815e,001,2021-12-17_24h05.21.314,jm_natural_scene_simialrity_2-12-2021_version2,2021.2.3,Win32,74.95128167,5f8f58da2cacd91b623a815e,61bbc5c79a1c66460f44041e,61bbc617e1fab6766dcc0e44,,,,,,90.40001279,-52.00000721,1,0,0,response3disk,1.1195,-15.19998878,11.19999373,1,0,0,rectangle,-15.19998878,11.19999373,1,0,0,,2,"[25,20,60,106,144,47,38,85,105,153]",-15.19998878,11.19999373,1,0,0,0,17,17,38,1,LightBlue,LightBlue.jpg,Purple,Purple.jpg,,
,,,,,,,,,,,,,,,,,,-4,,,,,,,,,,,,,,,,,,,,,,,,,,,5f8f58da2cacd91b623a815e,001,2021-12-17_24h05.21.314,jm_natural_scene_simialrity_2-12-2021_version2,2021.2.3,Win32,74.95128167,5f8f58da2cacd91b623a815e,61bbc5c79a1c66460f44041e,61bbc617e1fab6766dcc0e44,,,,,,-49.5999893,79.19997033,1,0,0,response7disk,0.9386,1.600060296,-6.400006533,1,0,0,rectangle,1.600060296,-6.400006533,1,0,0,,2,"[25,20,60,106,144,47,38,85,105,153]",1.600060296,-6.400006533,1,0,0,0,18,18,55,1,Turquiose,Turquiose.jpg,Yellow,Yellow.jpg,,
,,,,,,,,,,,,,,,,,,-4,,,,,,,,,,,,,,,,,,,,,,,,,,,5f8f58da2cacd91b623a815e,001,2021-12-17_24h05.21.314,jm_natural_scene_simialrity_2-12-2021_version2,2021.2.3,Win32,74.95128167,5f8f58da2cacd91b623a815e,61bbc5c79a1c66460f44041e,61bbc617e1fab6766dcc0e44,,,,,,-52.79998934,87.19997045,1,0,0,response7disk,1.0668,2.40001148,-8.800006568,1,0,0,rectangle,-56.7999894,89.5999949,1,0,0,-4,-4,"[25,20,60,106,144,47,38,85,105,153]",12.80001163,13.59999377,1,0,0,0,19,19,64,1,Pink,Pink.jpg,LightGreen,LightGreen.jpg,response7disk_3,rectangle
,,,,,,,,,,,,,,,,,,-3,,,,,,,,,,,,,,,,,,,,,,,,,,,5f8f58da2cacd91b623a815e,001,2021-12-17_24h05.21.314,jm_natural_scene_simialrity_2-12-2021_version2,2021.2.3,Win32,74.95128167,5f8f58da2cacd91b623a815e,61bbc5c79a1c66460f44041e,61bbc617e1fab6766dcc0e44,,,,,,-107.1999902,33.59999406,1,0,0,response7disk,1.0668,19.20001173,15.9999938,1,0,0,rectangle,19.20001173,15.9999938,1,0,0,-4,-4,"[25,20,60,106,144,47,38,85,105,153]",19.20001173,15.9999938,1,0,0,0,20,20,8,1,Red,Red.jpg,Purple,Purple.jpg,,
,,,,,,,,,,,,,,,,,,-3,,,,,,,,,,,,,,,,,,,,,,,,,,,5f8f58da2cacd91b623a815e,001,2021-12-17_24h05.21.314,jm_natural_scene_simialrity_2-12-2021_version2,2021.2.3,Win32,74.95128167,5f8f58da2cacd91b623a815e,61bbc5c79a1c66460f44041e,61bbc617e1fab6766dcc0e44,,,,,,-114.3999414,37.59999412,1,0,0,response7disk,1.2049,-2.399939764,3.999993622,1,0,0,rectangle,-2.399939764,3.999993622,1,0,0,-4,-1,"[25,20,60,106,144,47,38,85,105,153]",-2.399939764,3.999993622,1,0,0,0,21,21,36,1,LightBlue,LightBlue.jpg,DarkBlue,DarkBlue.jpg,,
,,,,,,,,,,,,,,,,,,3,,,,,,,,,,,,,,,,,,,,,,,,,,,5f8f58da2cacd91b623a815e,001,2021-12-17_24h05.21.314,jm_natural_scene_simialrity_2-12-2021_version2,2021.2.3,Win32,74.95128167,5f8f58da2cacd91b623a815e,61bbc5c79a1c66460f44041e,61bbc617e1fab6766dcc0e44,,,,,,131.2000134,39.99999416,1,0,0,response1disk,1.1168,2.40001148,-6.400006533,1,0,0,rectangle,2.40001148,-6.400006533,1,0,0,-4,-1,"[25,20,60,106,144,47,38,85,105,153]",2.40001148,-6.400006533,1,0,0,0,22,22,60,1,DarkGreen,DarkGreen.jpg,LightGreen,LightGreen.jpg,,
,,,,,,,,,,,,,,,,,,-3,,,,,,,,,,,,,,,,,,,,,,,,,,,5f8f58da2cacd91b623a815e,001,2021-12-17_24h05.21.314,jm_natural_scene_simialrity_2-12-2021_version2,2021.2.3,Win32,74.95128167,5f8f58da2cacd91b623a815e,61bbc5c79a1c66460f44041e,61bbc617e1fab6766dcc0e44,,,,,,-84.79998982,45.59999424,1,0,0,response7disk,1.0805,-5.599988639,6.399993658,1,0,0,rectangle,-5.599988639,6.399993658,1,0,0,-4,2,"[25,20,60,106,144,47,38,85,105,153]",-5.599988639,6.399993658,1,0,0,0,23,23,29,1,DarkGreen,DarkGreen.jpg,Purple,Purple.jpg,,
,,,,,,,,,,,,,,,,,,3,,,,,,,,,,,,,,,,,,,,,,,,,,,5f8f58da2cacd91b623a815e,001,2021-12-17_24h05.21.314,jm_natural_scene_simialrity_2-12-2021_version2,2021.2.3,Win32,74.95128167,5f8f58da2cacd91b623a815e,61bbc5c79a1c66460f44041e,61bbc617e1fab6766dcc0e44,,,,,,95.20001286,39.99999416,1,0,0,response1disk,1.6407,0.800011456,-0.800006449,1,0,0,rectangle,112.8000131,66.39999455,1,0,0,3,3,"[25,20,60,106,144,47,38,85,105,153]",-3.199988604,2.399993598,1,0,0,0,24,24,15,1,Yellow,Yellow.jpg,Pink,Pink.jpg,response1disk_3,rectangle
,,,,,,,,,,,,,,,,,,3,,,,,,,,,,,,,,,,,,,,,,,,,,,5f8f58da2cacd91b623a815e,001,2021-12-17_24h05.21.314,jm_natural_scene_simialrity_2-12-2021_version2,2021.2.3,Win32,74.95128167,5f8f58da2cacd91b623a815e,61bbc5c79a1c66460f44041e,61bbc617e1fab6766dcc0e44,,,,,,100.0000129,43.99999422,1,0,0,response1disk,1.1922,-3.199988604,-8.800006568,1,0,0,rectangle,-3.199988604,-8.800006568,1,0,0,3,-4,"[25,20,60,106,144,47,38,85,105,153]",-3.199988604,-8.800006568,1,0,0,0,25,25,74,1,Purple,Purple.jpg,Turquiose,Turquiose.jpg,,
,,,,,,,,,,,,,,,,,,4,,,,,,,,,,,,,,,,,,,,,,,,,,,5f8f58da2cacd91b623a815e,001,2021-12-17_24h05.21.314,jm_natural_scene_simialrity_2-12-2021_version2,2021.2.3,Win32,74.95128167,5f8f58da2cacd91b623a815e,61bbc5c79a1c66460f44041e,61bbc617e1fab6766dcc0e44,,,,,,38.40001202,88.79999489,1,0,0,response1disk,1.2934,-7.999988675,4.799993634,1,0,0,rectangle,-7.999988675,4.799993634,1,0,0,3,-3,"[25,20,60,106,144,47,38,85,105,153]",-7.999988675,4.799993634,1,0,0,0,26,26,44,1,Purple,Purple.jpg,Purple,Purple.jpg,,
,,,,,,,,,,,,,,,,,,3,,,,,,,,,,,,,,,,,,,,,,,,,,,5f8f58da2cacd91b623a815e,001,2021-12-17_24h05.21.314,jm_natural_scene_simialrity_2-12-2021_version2,2021.2.3,Win32,74.95128167,5f8f58da2cacd91b623a815e,61bbc5c79a1c66460f44041e,61bbc617e1fab6766dcc0e44,,,,,,96.80001289,39.99999416,1,0,0,response1disk,1.0273,-1.59998858,-13.60000664,1,0,0,rectangle,-1.59998858,-13.60000664,1,0,0,3,3,"[25,20,60,106,144,47,38,85,105,153]",-1.59998858,-13.60000664,1,0,0,0,27,27,37,1,LightBlue,LightBlue.jpg,Pink,Pink.jpg,,
,,,,,,,,,,,,,,,,,,-1,,,,,,,,,,,,,,,,,,,,,,,,,,,5f8f58da2cacd91b623a815e,001,2021-12-17_24h05.21.314,jm_natural_scene_simialrity_2-12-2021_version2,2021.2.3,Win32,74.95128167,5f8f58da2cacd91b623a815e,61bbc5c79a1c66460f44041e,61bbc617e1fab6766dcc0e44,,,,,,-51.19998932,-112.0000081,1,0,0,response5disk,1.4933,-1.59998858,7.999993682,1,0,0,rectangle,-1.59998858,7.999993682,1,0,0,3,-4,"[25,20,60,106,144,47,38,85,105,153]",-1.59998858,7.999993682,1,0,0,0,28,28,31,1,Turquiose,Turquiose.jpg,LightBlue,LightBlue.jpg,,
,,,,,,,,,,,,,,,,,,-2,,,,,,,,,,,,,,,,,,,,,,,,,,,5f8f58da2cacd91b623a815e,001,2021-12-17_24h05.21.314,jm_natural_scene_simialrity_2-12-2021_version2,2021.2.3,Win32,74.95128167,5f8f58da2cacd91b623a815e,61bbc5c79a1c66460f44041e,61bbc617e1fab6766dcc0e44,,,,,,-91.19998991,-46.40000713,1,0,0,response5disk,1.5916,-11.99998873,4.799993634,1,0,0,rectangle,-11.99998873,4.799993634,1,0,0,3,3,"[25,20,60,106,144,47,38,85,105,153]",-11.99998873,4.799993634,1,0,0,0,29,29,75,1,DarkBlue,DarkBlue.jpg,LightBlue,LightBlue.jpg,,
,,,,,,,,,,,,,,,,,,-1,,,,,,,,,,,,,,,,,,,,,,,,,,,5f8f58da2cacd91b623a815e,001,2021-12-17_24h05.21.314,jm_natural_scene_simialrity_2-12-2021_version2,2021.2.3,Win32,74.95128167,5f8f58da2cacd91b623a815e,61bbc5c79a1c66460f44041e,61bbc617e1fab6766dcc0e44,,,,,,-38.3999403,-95.20000786,1,0,0,response5disk,1.0586,7.200011551,1.599993587,1,0,0,rectangle,7.200011551,1.599993587,1,0,0,3,1,"[25,20,60,106,144,47,38,85,105,153]",7.200011551,1.599993587,1,0,0,0,30,30,58,1,Pink,Pink.jpg,Yellow,Yellow.jpg,,
,,,,,,,,,,,,,,,,,,-3,,,,,,,,,,,,,,,,,,,,,,,,,,,5f8f58da2cacd91b623a815e,001,2021-12-17_24h05.21.314,jm_natural_scene_simialrity_2-12-2021_version2,2021.2.3,Win32,74.95128167,5f8f58da2cacd91b623a815e,61bbc5c79a1c66460f44041e,61bbc617e1fab6766dcc0e44,,,,,,-109.5999902,77.59999472,1,0,0,response7disk,1.2039,-23.99998891,9.599993706,1,0,0,rectangle,-23.99998891,9.599993706,1,0,0,3,3,"[25,20,60,106,144,47,38,85,105,153]",-23.99998891,9.599993706,1,0,0,0,31,31,57,1,DarkBlue,DarkBlue.jpg,Yellow,Yellow.jpg,,
,,,,,,,,,,,,,,,,,,-3,,,,,,,,,,,,,,,,,,,,,,,,,,,5f8f58da2cacd91b623a815e,001,2021-12-17_24h05.21.314,jm_natural_scene_simialrity_2-12-2021_version2,2021.2.3,Win32,74.95128167,5f8f58da2cacd91b623a815e,61bbc5c79a1c66460f44041e,61bbc617e1fab6766dcc0e44,,,,,,-98.39994119,49.5999943,1,0,0,response7disk,1.107,4.800011516,-8.000006557,1,0,0,rectangle,4.800011516,-8.000006557,1,0,0,3,-4,"[25,20,60,106,144,47,38,85,105,153]",4.800011516,-8.000006557,1,0,0,0,32,32,34,1,Turquiose,Turquiose.jpg,Purple,Purple.jpg,,
,,,,,,,,,,,,,,,,,,-3,,,,,,,,,,,,,,,,,,,,,,,,,,,5f8f58da2cacd91b623a815e,001,2021-12-17_24h05.21.314,jm_natural_scene_simialrity_2-12-2021_version2,2021.2.3,Win32,74.95128167,5f8f58da2cacd91b623a815e,61bbc5c79a1c66460f44041e,61bbc617e1fab6766dcc0e44,,,,,,-91.19998991,44.79999423,1,0,0,response7disk,1.24,-3.999988616,-3.200006485,1,0,0,rectangle,-3.999988616,-3.200006485,1,0,0,3,-4,"[25,20,60,106,144,47,38,85,105,153]",-3.999988616,-3.200006485,1,0,0,0,33,33,63,1,DarkBlue,DarkBlue.jpg,LightGreen,LightGreen.jpg,,
,,,,,,,,,,,,,,,,,,-3,,,,,,,,,,,,,,,,,,,,,,,,,,,5f8f58da2cacd91b623a815e,001,2021-12-17_24h05.21.314,jm_natural_scene_simialrity_2-12-2021_version2,2021.2.3,Win32,74.95128167,5f8f58da2cacd91b623a815e,61bbc5c79a1c66460f44041e,61bbc617e1fab6766dcc0e44,,,,,,-98.39994119,52.79999435,1,0,0,response7disk,0.8629,-4.799988627,-3.200006485,1,0,0,rectangle,-4.799988627,-3.200006485,1,0,0,3,1,"[25,20,60,106,144,47,38,85,105,153]",-4.799988627,-3.200006485,1,0,0,0,34,34,73,1,Pink,Pink.jpg,Turquiose,Turquiose.jpg,,
,,,,,,,,,,,,,,,,,,-3,,,,,,,,,,,,,,,,,,,,,,,,,,,5f8f58da2cacd91b623a815e,001,2021-12-17_24h05.21.314,jm_natural_scene_simialrity_2-12-2021_version2,2021.2.3,Win32,74.95128167,5f8f58da2cacd91b623a815e,61bbc5c79a1c66460f44041e,61bbc617e1fab6766dcc0e44,,,,,,-97.59999001,50.39999431,1,0,0,response7disk,0.7513,-3.999988616,-8.000006557,1,0,0,rectangle,-3.999988616,-8.000006557,1,0,0,3,-1,"[25,20,60,106,144,47,38,85,105,153]",-3.999988616,-8.000006557,1,0,0,0,35,35,70,1,Purple,Purple.jpg,DarkGreen,DarkGreen.jpg,,
,,,,,,,,,,,,,,,,,,-3,,,,,,,,,,,,,,,,,,,,,,,,,,,5f8f58da2cacd91b623a815e,001,2021-12-17_24h05.21.314,jm_natural_scene_simialrity_2-12-2021_version2,2021.2.3,Win32,74.95128167,5f8f58da2cacd91b623a815e,61bbc5c79a1c66460f44041e,61bbc617e1fab6766dcc0e44,,,,,,-99.99999005,50.39999431,1,0,0,response7disk,0.6668,-8.799988687,0.799993575,1,0,0,rectangle,-8.799988687,0.799993575,1,0,0,3,-1,"[25,20,60,106,144,47,38,85,105,153]",-8.799988687,0.799993575,1,0,0,0,36,36,21,1,LightGreen,LightGreen.jpg,DarkBlue,DarkBlue.jpg,,
,,,,,,,,,,,,,,,,,,3,,,,,,,,,,,,,,,,,,,,,,,,,,,5f8f58da2cacd91b623a815e,001,2021-12-17_24h05.21.314,jm_natural_scene_simialrity_2-12-2021_version2,2021.2.3,Win32,74.95128167,5f8f58da2cacd91b623a815e,61bbc5c79a1c66460f44041e,61bbc617e1fab6766dcc0e44,,,,,,100.8000129,55.19996997,1,0,0,response1disk,1.3085,-6.399939823,-2.400006473,1,0,0,rectangle,-56.7999894,-120.0000082,1,0,0,-1,-1,"[25,20,60,106,144,47,38,85,105,153]",0.800011456,0.799993575,1,0,0,0,37,37,51,1,Pink,Pink.jpg,Red,Red.jpg,response5disk_3,rectangle
,,,,,,,,,,,,,,,,,,-4,,,,,,,,,,,,,,,,,,,,,,,,,,,5f8f58da2cacd91b623a815e,001,2021-12-17_24h05.21.314,jm_natural_scene_simialrity_2-12-2021_version2,2021.2.3,Win32,74.95128167,5f8f58da2cacd91b623a815e,61bbc5c79a1c66460f44041e,61bbc617e1fab6766dcc0e44,,,,,,-58.3999406,94.39999497,1,0,0,response7disk,1.1482,3.200011492,-0.800006449,1,0,0,rectangle,3.200011492,-0.800006449,1,0,0,-1,-3,"[25,20,60,106,144,47,38,85,105,153]",3.200011492,-0.800006449,1,0,0,0,38,38,2,1,Red,Red.jpg,LightGreen,LightGreen.jpg,,
,,,,,,,,,,,,,,,,,,4,,,,,,,,,,,,,,,,,,,,,,,,,,,5f8f58da2cacd91b623a815e,001,2021-12-17_24h05.21.314,jm_natural_scene_simialrity_2-12-2021_version2,2021.2.3,Win32,74.95128167,5f8f58da2cacd91b623a815e,61bbc5c79a1c66460f44041e,61bbc617e1fab6766dcc0e44,,,,,,42.40001208,101.5999951,1,0,0,response1disk,1.0933,-10.39993988,-6.400006533,1,0,0,rectangle,-10.39993988,-6.400006533,1,0,0,-1,1,"[25,20,60,106,144,47,38,85,105,153]",-10.39993988,-6.400006533,1,0,0,0,39,39,35,1,LightBlue,LightBlue.jpg,LightBlue,LightBlue.jpg,,
,,,,,,,,,,,,,,,,,,-4,,,,,,,,,,,,,,,,,,,,,,,,,,,5f8f58da2cacd91b623a815e,001,2021-12-17_24h05.21.314,jm_natural_scene_simialrity_2-12-2021_version2,2021.2.3,Win32,74.95128167,5f8f58da2cacd91b623a815e,61bbc5c79a1c66460f44041e,61bbc617e1fab6766dcc0e44,,,,,,-47.19998926,89.5999949,1,0,0,response7disk,0.9064,8.000011563,-8.000006557,1,0,0,rectangle,8.000011563,-8.000006557,1,0,0,-1,-3,"[25,20,60,106,144,47,38,85,105,153]",8.000011563,-8.000006557,1,0,0,0,40,40,10,1,Yellow,Yellow.jpg,LightGreen,LightGreen.jpg,,
,,,,,,,,,,,,,,,,,,-4,,,,,,,,,,,,,,,,,,,,,,,,,,,5f8f58da2cacd91b623a815e,001,2021-12-17_24h05.21.314,jm_natural_scene_simialrity_2-12-2021_version2,2021.2.3,Win32,74.95128167,5f8f58da2cacd91b623a815e,61bbc5c79a1c66460f44041e,61bbc617e1fab6766dcc0e44,,,,,,-55.99998939,101.5999951,1,0,0,response7disk,0.6398,-7.199988663,-0.800006449,1,0,0,rectangle,-7.199988663,-0.800006449,1,0,0,-1,-4,"[25,20,60,106,144,47,38,85,105,153]",-7.199988663,-0.800006449,1,0,0,0,41,41,40,1,DarkBlue,DarkBlue.jpg,Pink,Pink.jpg,,
,,,,,,,,,,,,,,,,,,-4,,,,,,,,,,,,,,,,,,,,,,,,,,,5f8f58da2cacd91b623a815e,001,2021-12-17_24h05.21.314,jm_natural_scene_simialrity_2-12-2021_version2,2021.2.3,Win32,74.95128167,5f8f58da2cacd91b623a815e,61bbc5c79a1c66460f44041e,61bbc617e1fab6766dcc0e44,,,,,,-46.39994042,93.59999496,1,0,0,response7disk,0.5733,-3.999988616,-8.000006557,1,0,0,rectangle,-3.999988616,-8.000006557,1,0,0,-1,-2,"[25,20,60,106,144,47,38,85,105,153]",-3.999988616,-8.000006557,1,0,0,0,42,42,4,1,Red,Red.jpg,Turquiose,Turquiose.jpg,,
,,,,,,,,,,,,,,,,,,-3,,,,,,,,,,,,,,,,,,,,,,,,,,,5f8f58da2cacd91b623a815e,001,2021-12-17_24h05.21.314,jm_natural_scene_simialrity_2-12-2021_version2,2021.2.3,Win32,74.95128167,5f8f58da2cacd91b623a815e,61bbc5c79a1c66460f44041e,61bbc617e1fab6766dcc0e44,,,,,,-119.9999903,68.79999459,1,0,0,response7disk,1.7472,0.800011456,0.799993575,1,0,0,rectangle,0.800011456,0.799993575,1,0,0,-1,-4,"[25,20,60,106,144,47,38,85,105,153]",0.800011456,0.799993575,1,0,0,0,43,43,11,1,Yellow,Yellow.jpg,DarkGreen,DarkGreen.jpg,,
,,,,,,,,,,,,,,,,,,1,,,,,,,,,,,,,,,,,,,,,,,,,,,5f8f58da2cacd91b623a815e,001,2021-12-17_24h05.21.314,jm_natural_scene_simialrity_2-12-2021_version2,2021.2.3,Win32,74.95128167,5f8f58da2cacd91b623a815e,61bbc5c79a1c66460f44041e,61bbc617e1fab6766dcc0e44,,,,,,51.20001221,-106.400008,1,0,0,response3disk,1.9909,-2.399939764,2.399993598,1,0,0,rectangle,-2.399939764,2.399993598,1,0,0,-1,-1,"[25,20,60,106,144,47,38,85,105,153]",-2.399939764,2.399993598,1,0,0,0,44,44,1,1,Red,Red.jpg,Yellow,Yellow.jpg,,
,,,,,,,,,,,,,,,,,,-2,,,,,,,,,,,,,,,,,,,,,,,,,,,5f8f58da2cacd91b623a815e,001,2021-12-17_24h05.21.314,jm_natural_scene_simialrity_2-12-2021_version2,2021.2.3,Win32,74.95128167,5f8f58da2cacd91b623a815e,61bbc5c79a1c66460f44041e,61bbc617e1fab6766dcc0e44,,,,,,-86.39994102,-43.20000708,1,0,0,response5disk,1.3869,-9.599988699,7.19999367,1,0,0,rectangle,-9.599988699,7.19999367,1,0,0,-1,-4,"[25,20,60,106,144,47,38,85,105,153]",-9.599988699,7.19999367,1,0,0,0,45,45,19,1,LightGreen,LightGreen.jpg,Turquiose,Turquiose.jpg,,
,,,,,,,,,,,,,,,,,,-3,,,,,,,,,,,,,,,,,,,,,,,,,,,5f8f58da2cacd91b623a815e,001,2021-12-17_24h05.21.314,jm_natural_scene_simialrity_2-12-2021_version2,2021.2.3,Win32,74.95128167,5f8f58da2cacd91b623a815e,61bbc5c79a1c66460f44041e,61bbc617e1fab6766dcc0e44,,,,,,-89.59998989,52.79999435,1,0,0,response7disk,1.1198,2.40001148,-6.4373E-06,1,0,0,rectangle,-110.3999414,47.19996985,1,0,0,-3,-3,"[25,20,60,106,144,47,38,85,105,153]",-4.799988627,1.599993587,1,0,0,0,46,46,56,1,LightBlue,LightBlue.jpg,Yellow,Yellow.jpg,response7disk_3,rectangle
,,,,,,,,,,,,,,,,,,2,,,,,,,,,,,,,,,,,,,,,,,,,,,5f8f58da2cacd91b623a815e,001,2021-12-17_24h05.21.314,jm_natural_scene_simialrity_2-12-2021_version2,2021.2.3,Win32,74.95128167,5f8f58da2cacd91b623a815e,61bbc5c79a1c66460f44041e,61bbc617e1fab6766dcc0e44,,,,,,100.8000129,-47.20000714,1,0,0,response3disk,1.3732,-6.399939823,7.999993682,1,0,0,rectangle,-6.399939823,7.999993682,1,0,0,-3,-4,"[25,20,60,106,144,47,38,85,105,153]",-6.399939823,7.999993682,1,0,0,0,47,47,80,1,Purple,Purple.jpg,Pink,Pink.jpg,,
,,,,,,,,,,,,,,,,,,4,,,,,,,,,,,,,,,,,,,,,,,,,,,5f8f58da2cacd91b623a815e,001,2021-12-17_24h05.21.314,jm_natural_scene_simialrity_2-12-2021_version2,2021.2.3,Win32,74.95128167,5f8f58da2cacd91b623a815e,61bbc5c79a1c66460f44041e,61bbc617e1fab6766dcc0e44,,,,,,68.80001247,92.79999495,1,0,0,response1disk,1.0795,16.80001169,-6.400006533,1,0,0,rectangle,16.80001169,-6.400006533,1,0,0,-3,-2,"[25,20,60,106,144,47,38,85,105,153]",16.80001169,-6.400006533,1,0,0,0,48,48,42,1,Pink,Pink.jpg,Pink,Pink.jpg,,
,,,,,,,,,,,,,,,,,,-3,,,,,,,,,,,,,,,,,,,,,,,,,,,5f8f58da2cacd91b623a815e,001,2021-12-17_24h05.21.314,jm_natural_scene_simialrity_2-12-2021_version2,2021.2.3,Win32,74.95128167,5f8f58da2cacd91b623a815e,61bbc5c79a1c66460f44041e,61bbc617e1fab6766dcc0e44,,,,,,-90.39994107,50.39999431,1,0,0,response7disk,0.9462,15.20001167,-5.600006521,1,0,0,rectangle,15.20001167,-5.600006521,1,0,0,-3,2,"[25,20,60,106,144,47,38,85,105,153]",15.20001167,-5.600006521,1,0,0,0,49,49,12,1,Yellow,Yellow.jpg,Turquiose,Turquiose.jpg,,
,,,,,,,,,,,,,,,,,,-3,,,,,,,,,,,,,,,,,,,,,,,,,,,5f8f58da2cacd91b623a815e,001,2021-12-17_24h05.21.314,jm_natural_scene_simialrity_2-12-2021_version2,2021.2.3,Win32,74.95128167,5f8f58da2cacd91b623a815e,61bbc5c79a1c66460f44041e,61bbc617e1fab6766dcc0e44,,,,,,-86.39994102,51.99999434,1,0,0,response7disk,0.8399,0.800011456,-2.400006473,1,0,0,rectangle,0.800011456,-2.400006473,1,0,0,-3,3,"[25,20,60,106,144,47,38,85,105,153]",0.800011456,-2.400006473,1,0,0,0,50,50,66,1,Turquiose,Turquiose.jpg,DarkGreen,DarkGreen.jpg,,
,,,,,,,,,,,,,,,,,,-3,,,,,,,,,,,,,,,,,,,,,,,,,,,5f8f58da2cacd91b623a815e,001,2021-12-17_24h05.21.314,jm_natural_scene_simialrity_2-12-2021_version2,2021.2.3,Win32,74.95128167,5f8f58da2cacd91b623a815e,61bbc5c79a1c66460f44041e,61bbc617e1fab6766dcc0e44,,,,,,-103.1999901,59.99999446,1,0,0,response7disk,1.1603,7.200011551,0.799993575,1,0,0,rectangle,7.200011551,0.799993575,1,0,0,-3,1,"[25,20,60,106,144,47,38,85,105,153]",7.200011551,0.799993575,1,0,0,0,51,51,23,1,LightGreen,LightGreen.jpg,Purple,Purple.jpg,,
,,,,,,,,,,,,,,,,,,-4,,,,,,,,,,,,,,,,,,,,,,,,,,,5f8f58da2cacd91b623a815e,001,2021-12-17_24h05.21.314,jm_natural_scene_simialrity_2-12-2021_version2,2021.2.3,Win32,74.95128167,5f8f58da2cacd91b623a815e,61bbc5c79a1c66460f44041e,61bbc617e1fab6766dcc0e44,,,,,,-42.39994036,96.79999501,1,0,0,response7disk,0.9378,5.600060356,-1.600006461,1,0,0,rectangle,5.600060356,-1.600006461,1,0,0,-3,-1,"[25,20,60,106,144,47,38,85,105,153]",5.600060356,-1.600006461,1,0,0,0,52,52,27,1,DarkGreen,DarkGreen.jpg,DarkBlue,DarkBlue.jpg,,
,,,,,,,,,,,,,,,,,,-4,,,,,,,,,,,,,,,,,,,,,,,,,,,5f8f58da2cacd91b623a815e,001,2021-12-17_24h05.21.314,jm_natural_scene_simialrity_2-12-2021_version2,2021.2.3,Win32,74.95128167,5f8f58da2cacd91b623a815e,61bbc5c79a1c66460f44041e,61bbc617e1fab6766dcc0e44,,,,,,-47.19998926,96.79999501,1,0,0,response7disk,1.1866,-3.999988616,-7.200006545,1,0,0,rectangle,-3.999988616,-7.200006545,1,0,0,-3,-4,"[25,20,60,106,144,47,38,85,105,153]",-3.999988616,-7.200006545,1,0,0,0,53,53,22,1,LightGreen,LightGreen.jpg,Pink,Pink.jpg,,
,,,,,,,,,,,,,,,,,,3,,,,,,,,,,,,,,,,,,,,,,,,,,,5f8f58da2cacd91b623a815e,001,2021-12-17_24h05.21.314,jm_natural_scene_simialrity_2-12-2021_version2,2021.2.3,Win32,74.95128167,5f8f58da2cacd91b623a815e,61bbc5c79a1c66460f44041e,61bbc617e1fab6766dcc0e44,,,,,,79.20001262,43.99999422,1,0,0,response1disk,1.4801,4.800011516,-16.00000668,1,0,0,rectangle,4.800011516,-16.00000668,1,0,0,-3,-1,"[25,20,60,106,144,47,38,85,105,153]",4.800011516,-16.00000668,1,0,0,0,54,54,18,1,LightGreen,LightGreen.jpg,DarkGreen,DarkGreen.jpg,,
,,,,,,,,,,,,,,,,,,-4,,,,,,,,,,,,,,,,,,,,,,,,,,,5f8f58da2cacd91b623a815e,001,2021-12-17_24h05.21.314,jm_natural_scene_simialrity_2-12-2021_version2,2021.2.3,Win32,74.95128167,5f8f58da2cacd91b623a815e,61bbc5c79a1c66460f44041e,61bbc617e1fab6766dcc0e44,,,,,,-44.79998922,92.79999495,1,0,0,response7disk,0.76,2.40001148,-9.60000658,1,0,0,rectangle,2.40001148,-9.60000658,1,0,0,-3,3,"[25,20,60,106,144,47,38,85,105,153]",2.40001148,-9.60000658,1,0,0,0,55,55,3,1,Red,Red.jpg,DarkGreen,DarkGreen.jpg,,
,,,,,,,,,,,,,,,,,,-1,,,,,,,,,,,,,,,,,,,,,,,,,,,5f8f58da2cacd91b623a815e,001,2021-12-17_24h05.21.314,jm_natural_scene_simialrity_2-12-2021_version2,2021.2.3,Win32,74.95128167,5f8f58da2cacd91b623a815e,61bbc5c79a1c66460f44041e,61bbc617e1fab6766dcc0e44,,,,,,-36.7999891,-104.000008,1,0,0,response5disk,1.3096,6.400011539,10.39999372,1,0,0,rectangle,6.400011539,10.39999372,1,0,0,-3,-3,"[25,20,60,106,144,47,38,85,105,153]",6.400011539,10.39999372,1,0,0,0,56,56,25,1,DarkGreen,DarkGreen.jpg,Turquiose,Turquiose.jpg,,
,,,,,,,,,,,,,,,,,,4,,,,,,,,,,,,,,,,,,,,,,,,,,,5f8f58da2cacd91b623a815e,001,2021-12-17_24h05.21.314,jm_natural_scene_simialrity_2-12-2021_version2,2021.2.3,Win32,74.95128167,5f8f58da2cacd91b623a815e,61bbc5c79a1c66460f44041e,61bbc617e1fab6766dcc0e44,,,,,,57.6000123,96.79999501,1,0,0,response1disk,1.1602,6.400011539,11.99999374,1,0,0,rectangle,6.400011539,11.99999374,1,0,0,-3,3,"[25,20,60,106,144,47,38,85,105,153]",6.400011539,11.99999374,1,0,0,0,57,57,39,1,DarkBlue,DarkBlue.jpg,DarkBlue,DarkBlue.jpg,,
,,,,,,,,,,,,,,,,,,3,,,,,,,,,,,,,,,,,,,,,,,,,,,5f8f58da2cacd91b623a815e,001,2021-12-17_24h05.21.314,jm_natural_scene_simialrity_2-12-2021_version2,2021.2.3,Win32,74.95128167,5f8f58da2cacd91b623a815e,61bbc5c79a1c66460f44041e,61bbc617e1fab6766dcc0e44,,,,,,92.80001283,31.19996961,1,0,0,response1disk,1.2141,-15.99998879,3.999993622,1,0,0,rectangle,-15.99998879,3.999993622,1,0,0,-3,-3,"[25,20,60,106,144,47,38,85,105,153]",-15.99998879,3.999993622,1,0,0,0,58,58,7,1,Red,Red.jpg,Pink,Pink.jpg,,
,,,,,,,,,,,,,,,,,,1,,,,,,,,,,,,,,,,,,,,,,,,,,,5f8f58da2cacd91b623a815e,001,2021-12-17_24h05.21.314,jm_natural_scene_simialrity_2-12-2021_version2,2021.2.3,Win32,74.95128167,5f8f58da2cacd91b623a815e,61bbc5c79a1c66460f44041e,61bbc617e1fab6766dcc0e44,,,,,,72.80001253,-120.0000082,1,0,0,response3disk,1.3199,5.600060356,11.99999374,1,0,0,rectangle,-66.39994072,-99.20000792,1,0,0,-1,-1,"[25,20,60,106,144,47,38,85,105,153]",1.600060296,-0.800006449,1,0,0,0,59,59,49,1,LightBlue,LightBlue.jpg,Red,Red.jpg,response5disk_3,rectangle
,,,,,,,,,,,,,,,,,,-2,,,,,,,,,,,,,,,,,,,,,,,,,,,5f8f58da2cacd91b623a815e,001,2021-12-17_24h05.21.314,jm_natural_scene_simialrity_2-12-2021_version2,2021.2.3,Win32,74.95128167,5f8f58da2cacd91b623a815e,61bbc5c79a1c66460f44041e,61bbc617e1fab6766dcc0e44,,,,,,-83.1999898,-44.00000709,1,0,0,response5disk,1.5246,1.600060296,-5.600006521,1,0,0,rectangle,1.600060296,-5.600006521,1,0,0,-1,-2,"[25,20,60,106,144,47,38,85,105,153]",1.600060296,-5.600006521,1,0,0,0,60,60,6,1,Red,Red.jpg,DarkBlue,DarkBlue.jpg,,
,,,,,,,,,,,,,,,,,,-4,,,,,,,,,,,,,,,,,,,,,,,,,,,5f8f58da2cacd91b623a815e,001,2021-12-17_24h05.21.314,jm_natural_scene_simialrity_2-12-2021_version2,2021.2.3,Win32,74.95128167,5f8f58da2cacd91b623a815e,61bbc5c79a1c66460f44041e,61bbc617e1fab6766dcc0e44,,,,,,-39.19998914,96.79999501,1,0,0,response7disk,0.9737,-8.799988687,7.999993682,1,0,0,rectangle,-8.799988687,7.999993682,1,0,0,-1,1,"[25,20,60,106,144,47,38,85,105,153]",-8.799988687,7.999993682,1,0,0,0,61,61,53,1,LightGreen,LightGreen.jpg,Yellow,Yellow.jpg,,
,,,,,,,,,,,,,,,,,,-3,,,,,,,,,,,,,,,,,,,,,,,,,,,5f8f58da2cacd91b623a815e,001,2021-12-17_24h05.21.314,jm_natural_scene_simialrity_2-12-2021_version2,2021.2.3,Win32,74.95128167,5f8f58da2cacd91b623a815e,61bbc5c79a1c66460f44041e,61bbc617e1fab6766dcc0e44,,,,,,-131.1999905,54.39999437,1,0,0,response7disk,0.9047,-7.999988675,5.599993646,1,0,0,rectangle,-7.999988675,5.599993646,1,0,0,-1,2,"[25,20,60,106,144,47,38,85,105,153]",-7.999988675,5.599993646,1,0,0,0,62,62,62,1,LightBlue,LightBlue.jpg,LightGreen,LightGreen.jpg,,
,,,,,,,,,,,,,,,,,,-1,,,,,,,,,,,,,,,,,,,,,,,,,,,5f8f58da2cacd91b623a815e,001,2021-12-17_24h05.21.314,jm_natural_scene_simialrity_2-12-2021_version2,2021.2.3,Win32,74.95128167,5f8f58da2cacd91b623a815e,61bbc5c79a1c66460f44041e,61bbc617e1fab6766dcc0e44,,,,,,-35.19998908,-92.00000781,1,0,0,response5disk,1.0667,2.40001148,2.399993598,1,0,0,rectangle,2.40001148,2.399993598,1,0,0,-1,2,"[25,20,60,106,144,47,38,85,105,153]",2.40001148,2.399993598,1,0,0,0,63,63,72,1,DarkBlue,DarkBlue.jpg,Turquiose,Turquiose.jpg,,
,,,,,,,,,,,,,,,,,,-3,,,,,,,,,,,,,,,,,,,,,,,,,,,5f8f58da2cacd91b623a815e,001,2021-12-17_24h05.21.314,jm_natural_scene_simialrity_2-12-2021_version2,2021.2.3,Win32,74.95128167,5f8f58da2cacd91b623a815e,61bbc5c79a1c66460f44041e,61bbc617e1fab6766dcc0e44,,,,,,-103.9999901,52.79999435,1,0,0,response7disk,1.1376,-3.999988616,11.19999373,1,0,0,rectangle,-3.999988616,11.19999373,1,0,0,-1,-4,"[25,20,60,106,144,47,38,85,105,153]",-3.999988616,11.19999373,1,0,0,0,64,64,67,1,LightBlue,LightBlue.jpg,DarkGreen,DarkGreen.jpg,,
,,,,,,,,,,,,,,,,,,4,,,,,,,,,,,,,,,,,,,,,,,,,,,5f8f58da2cacd91b623a815e,001,2021-12-17_24h05.21.314,jm_natural_scene_simialrity_2-12-2021_version2,2021.2.3,Win32,74.95128167,5f8f58da2cacd91b623a815e,61bbc5c79a1c66460f44041e,61bbc617e1fab6766dcc0e44,,,,,,38.40001202,83.19997039,1,0,0,response1disk,1.1336,-19.19998884,-17.6000067,1,0,0,rectangle,-19.19998884,-17.6000067,1,0,0,-1,3,"[25,20,60,106,144,47,38,85,105,153]",-19.19998884,-17.6000067,1,0,0,0,65,65,9,1,Yellow,Yellow.jpg,Yellow,Yellow.jpg,,
,,,,,,,,,,,,,,,,,,-3,,,,,,,,,,,,,,,,,,,,,,,,,,,5f8f58da2cacd91b623a815e,001,2021-12-17_24h05.21.314,jm_natural_scene_simialrity_2-12-2021_version2,2021.2.3,Win32,74.95128167,5f8f58da2cacd91b623a815e,61bbc5c79a1c66460f44041e,61bbc617e1fab6766dcc0e44,,,,,,-93.59998995,48.79999429,1,0,0,response7disk,0.9737,-19.19998884,-15.20000666,1,0,0,rectangle,-19.19998884,-15.20000666,1,0,0,-1,-2,"[25,20,60,106,144,47,38,85,105,153]",-19.19998884,-15.20000666,1,0,0,0,66,66,68,1,DarkBlue,DarkBlue.jpg,DarkGreen,DarkGreen.jpg,,
,,,,,,,,,,,,,,,,,,-3,,,,,,,,,,,,,,,,,,,,,,,,,,,5f8f58da2cacd91b623a815e,001,2021-12-17_24h05.21.314,jm_natural_scene_simialrity_2-12-2021_version2,2021.2.3,Win32,74.95128167,5f8f58da2cacd91b623a815e,61bbc5c79a1c66460f44041e,61bbc617e1fab6766dcc0e44,,,,,,-91.19998991,43.19996979,1,0,0,response7disk,0.8934,-1.59998858,-16.00000668,1,0,0,rectangle,-1.59998858,-16.00000668,1,0,0,-1,1,"[25,20,60,106,144,47,38,85,105,153]",-1.59998858,-16.00000668,1,0,0,0,67,67,65,1,Purple,Purple.jpg,LightGreen,LightGreen.jpg,,
,,,,,,,,,,,,,,,,,,-3,,,,,,,,,,,,,,,,,,,,,,,,,,,5f8f58da2cacd91b623a815e,001,2021-12-17_24h05.21.314,jm_natural_scene_simialrity_2-12-2021_version2,2021.2.3,Win32,74.95128167,5f8f58da2cacd91b623a815e,61bbc5c79a1c66460f44041e,61bbc617e1fab6766dcc0e44,,,,,,-81.59998977,49.5999943,1,0,0,response7disk,0.5732,-8.799988687,-1.600006461,1,0,0,rectangle,-8.799988687,-1.600006461,1,0,0,-1,1,"[25,20,60,106,144,47,38,85,105,153]",-8.799988687,-1.600006461,1,0,0,0,68,68,79,1,Purple,Purple.jpg,DarkBlue,DarkBlue.jpg,,
,,,,,,,,,,,,,,,,,,-3,,,,,,,,,,,,,,,,,,,,,,,,,,,5f8f58da2cacd91b623a815e,001,2021-12-17_24h05.21.314,jm_natural_scene_simialrity_2-12-2021_version2,2021.2.3,Win32,74.95128167,5f8f58da2cacd91b623a815e,61bbc5c79a1c66460f44041e,61bbc617e1fab6766dcc0e44,,,,,,-102.3999413,55.19996997,1,0,0,response7disk,0.7467,-19.99998885,3.999993622,1,0,0,rectangle,-19.99998885,3.999993622,1,0,0,-1,-2,"[25,20,60,106,144,47,38,85,105,153]",-19.99998885,3.999993622,1,0,0,0,69,69,46,1,LightGreen,LightGreen.jpg,Red,Red.jpg,,
,,,,,,,,,,,,,,,,,,4,,,,,,,,,,,,,,,,,,,,,,,,,,,5f8f58da2cacd91b623a815e,001,2021-12-17_24h05.21.314,jm_natural_scene_simialrity_2-12-2021_version2,2021.2.3,Win32,74.95128167,5f8f58da2cacd91b623a815e,61bbc5c79a1c66460f44041e,61bbc617e1fab6766dcc0e44,,,,,,38.40001202,87.99999487,1,0,0,response1disk,0.9392,-7.999988675,14.39999378,1,0,0,rectangle,-7.999988675,14.39999378,1,0,0,-1,2,"[25,20,60,106,144,47,38,85,105,153]",-7.999988675,14.39999378,1,0,0,0,70,70,30,1,Turquiose,Turquiose.jpg,Turquiose,Turquiose.jpg,,
,,,,,,,,,,,,,,,,,,-3,,,,,,,,,,,,,,,,,,,,,,,,,,,5f8f58da2cacd91b623a815e,001,2021-12-17_24h05.21.314,jm_natural_scene_simialrity_2-12-2021_version2,2021.2.3,Win32,74.95128167,5f8f58da2cacd91b623a815e,61bbc5c79a1c66460f44041e,61bbc617e1fab6766dcc0e44,,,,,,-106.3999413,55.19996997,1,0,0,response7disk,0.9603,-4.799988627,10.39999372,1,0,0,rectangle,-4.799988627,10.39999372,1,0,0,-1,-1,"[25,20,60,106,144,47,38,85,105,153]",-4.799988627,10.39999372,1,0,0,0,71,71,20,1,LightGreen,LightGreen.jpg,LightBlue,LightBlue.jpg,,
,,,,,,,,,,,,,,,,,,-2,,,,,,,,,,,,,,,,,,,,,,,,,,,5f8f58da2cacd91b623a815e,001,2021-12-17_24h05.21.314,jm_natural_scene_simialrity_2-12-2021_version2,2021.2.3,Win32,74.95128167,5f8f58da2cacd91b623a815e,61bbc5c79a1c66460f44041e,61bbc617e1fab6766dcc0e44,,,,,,-75.99998969,-53.60000724,1,0,0,response5disk,0.9375,-3.199988604,18.39999384,1,0,0,rectangle,-3.199988604,18.39999384,1,0,0,-1,1,"[25,20,60,106,144,47,38,85,105,153]",-3.199988604,18.39999384,1,0,0,0,72,72,50,1,DarkBlue,DarkBlue.jpg,Red,Red.jpg,,
,,,,,,,,,,,,,,,,,,2,,,,,,,,,,,,,,,,,,,,,,,,,,,5f8f58da2cacd91b623a815e,001,2021-12-17_24h05.21.314,jm_natural_scene_simialrity_2-12-2021_version2,2021.2.3,Win32,74.95128167,5f8f58da2cacd91b623a815e,61bbc5c79a1c66460f44041e,61bbc617e1fab6766dcc0e44,,,,,,78.40001261,-44.8000071,1,0,0,response3disk,2.1473,-8.799988687,3.999993622,1,0,0,rectangle,-8.799988687,3.999993622,1,0,0,-1,-1,"[25,20,60,106,144,47,38,85,105,153]",-8.799988687,3.999993622,1,0,0,0,73,73,45,1,Yellow,Yellow.jpg,Red,Red.jpg,,
,,,,,,,,,,,,,,,,,,-3,,,,,,,,,,,,,,,,,,,,,,,,,,,5f8f58da2cacd91b623a815e,001,2021-12-17_24h05.21.314,jm_natural_scene_simialrity_2-12-2021_version2,2021.2.3,Win32,74.95128167,5f8f58da2cacd91b623a815e,61bbc5c79a1c66460f44041e,61bbc617e1fab6766dcc0e44,,,,,,-95.19998997,43.99999422,1,0,0,response7disk,1.6194,-2.399939764,-6.4373E-06,1,0,0,rectangle,-2.399939764,-6.4373E-06,1,0,0,-1,-4,"[25,20,60,106,144,47,38,85,105,153]",-2.399939764,-6.4373E-06,1,0,0,0,74,74,48,1,Turquiose,Turquiose.jpg,Red,Red.jpg,,
,,,,,,,,,,,,,,,,,,-4,,,,,,,,,,,,,,,,,,,,,,,,,,,5f8f58da2cacd91b623a815e,001,2021-12-17_24h05.21.314,jm_natural_scene_simialrity_2-12-2021_version2,2021.2.3,Win32,74.95128167,5f8f58da2cacd91b623a815e,61bbc5c79a1c66460f44041e,61bbc617e1fab6766dcc0e44,,,,,,-41.59998918,91.19997051,1,0,0,response7disk,1.3337,5.600060356,0.799993575,1,0,0,rectangle,5.600060356,0.799993575,1,0,0,-1,-2,"[25,20,60,106,144,47,38,85,105,153]",5.600060356,0.799993575,1,0,0,0,75,75,78,1,Pink,Pink.jpg,DarkBlue,DarkBlue.jpg,,
,,,,,,,,,,,,,,,,,,-4,,,,,,,,,,,,,,,,,,,,,,,,,,,5f8f58da2cacd91b623a815e,001,2021-12-17_24h05.21.314,jm_natural_scene_simialrity_2-12-2021_version2,2021.2.3,Win32,74.95128167,5f8f58da2cacd91b623a815e,61bbc5c79a1c66460f44041e,61bbc617e1fab6766dcc0e44,,,,,,-28.79998899,91.99999493,1,0,0,response7disk,0.8938,18.40001172,-9.60000658,1,0,0,rectangle,18.40001172,-9.60000658,1,0,0,-1,3,"[25,20,60,106,144,47,38,85,105,153]",18.40001172,-9.60000658,1,0,0,0,76,76,13,1,Yellow,Yellow.jpg,LightBlue,LightBlue.jpg,,
,,,,,,,,,,,,,,,,,,-4,,,,,,,,,,,,,,,,,,,,,,,,,,,5f8f58da2cacd91b623a815e,001,2021-12-17_24h05.21.314,jm_natural_scene_simialrity_2-12-2021_version2,2021.2.3,Win32,74.95128167,5f8f58da2cacd91b623a815e,61bbc5c79a1c66460f44041e,61bbc617e1fab6766dcc0e44,,,,,,-51.19998932,86.39999485,1,0,0,response7disk,0.7067,-15.99998879,-3.200006485,1,0,0,rectangle,-15.99998879,-3.200006485,1,0,0,-1,-2,"[25,20,60,106,144,47,38,85,105,153]",-15.99998879,-3.200006485,1,0,0,0,77,77,47,1,DarkGreen,DarkGreen.jpg,Red,Red.jpg,,
,,,,,,,,,,,,,,,,,,-1,,,,,,,,,,,,,,,,,,,,,,,,,,,5f8f58da2cacd91b623a815e,001,2021-12-17_24h05.21.314,jm_natural_scene_simialrity_2-12-2021_version2,2021.2.3,Win32,74.95128167,5f8f58da2cacd91b623a815e,61bbc5c79a1c66460f44041e,61bbc617e1fab6766dcc0e44,,,,,,-49.5999893,-99.20000792,1,0,0,response5disk,1.1072,8.800011575,0.799993575,1,0,0,rectangle,8.800011575,0.799993575,1,0,0,-1,-4,"[25,20,60,106,144,47,38,85,105,153]",8.800011575,0.799993575,1,0,0,0,78,78,41,1,DarkBlue,DarkBlue.jpg,Purple,Purple.jpg,,
,,,,,,,,,,,,,,,,,,4,,,,,,,,,,,,,,,,,,,,,,,,,,,5f8f58da2cacd91b623a815e,001,2021-12-17_24h05.21.314,jm_natural_scene_simialrity_2-12-2021_version2,2021.2.3,Win32,74.95128167,5f8f58da2cacd91b623a815e,61bbc5c79a1c66460f44041e,61bbc617e1fab6766dcc0e44,,,,,,57.6000123,95.99999499,1,0,0,response1disk,0.8672,5.600060356,-6.400006533,1,0,0,rectangle,5.600060356,-6.400006533,1,0,0,-1,-2,"[25,20,60,106,144,47,38,85,105,153]",5.600060356,-6.400006533,1,0,0,0,79,79,17,1,LightGreen,LightGreen.jpg,LightGreen,LightGreen.jpg,,
,,,,,,,,,,,,,,,,,,-3,,,,,,,,,,,,,,,,,,,,,,,,,,,5f8f58da2cacd91b623a815e,001,2021-12-17_24h05.21.314,jm_natural_scene_simialrity_2-12-2021_version2,2021.2.3,Win32,74.95128167,5f8f58da2cacd91b623a815e,61bbc5c79a1c66460f44041e,61bbc617e1fab6766dcc0e44,,,,,,-109.5999902,51.99999434,1,0,0,response7disk,0.7742,5.600060356,14.39999378,1,0,0,rectangle,5.600060356,14.39999378,1,0,0,-1,-3,"[25,20,60,106,144,47,38,85,105,153]",5.600060356,14.39999378,1,0,0,0,80,80,14,1,Yellow,Yellow.jpg,DarkBlue,DarkBlue.jpg,,
,,,,,,,,,,,,,,,,,,4,,,,,,,,,,,,,,,,,,,,,,,,,,,5f8f58da2cacd91b623a815e,001,2021-12-17_24h05.21.314,jm_natural_scene_simialrity_2-12-2021_version2,2021.2.3,Win32,74.95128167,5f8f58da2cacd91b623a815e,61bbc5c79a1c66460f44041e,61bbc617e1fab6766dcc0e44,,,,,,40.80001205,103.9999951,1,0,0,response1disk,0.8269,-13.59998876,14.39999378,1,0,0,rectangle,-13.59998876,14.39999378,1,0,0,-1,3,"[25,20,60,106,144,47,38,85,105,153]",-13.59998876,14.39999378,1,0,0,1,0,81,44,1,Purple,Purple.jpg,Purple,Purple.jpg,,
,,,,,,,,,,,,,,,,,,-4,,,,,,,,,,,,,,,,,,,,,,,,,,,5f8f58da2cacd91b623a815e,001,2021-12-17_24h05.21.314,jm_natural_scene_simialrity_2-12-2021_version2,2021.2.3,Win32,74.95128167,5f8f58da2cacd91b623a815e,61bbc5c79a1c66460f44041e,61bbc617e1fab6766dcc0e44,,,,,,-41.59998918,93.59999496,1,0,0,response7disk,0.8934,8.000011563,-6.4373E-06,1,0,0,rectangle,8.000011563,-6.4373E-06,1,0,0,-1,-4,"[25,20,60,106,144,47,38,85,105,153]",8.000011563,-6.4373E-06,1,0,0,1,1,82,55,1,Turquiose,Turquiose.jpg,Yellow,Yellow.jpg,,
,,,,,,,,,,,,,,,,,,-4,,,,,,,,,,,,,,,,,,,,,,,,,,,5f8f58da2cacd91b623a815e,001,2021-12-17_24h05.21.314,jm_natural_scene_simialrity_2-12-2021_version2,2021.2.3,Win32,74.95128167,5f8f58da2cacd91b623a815e,61bbc5c79a1c66460f44041e,61bbc617e1fab6766dcc0e44,,,,,,-55.19998938,93.59999496,1,0,0,response7disk,0.9337,-0.799988568,-6.4373E-06,1,0,0,rectangle,-0.799988568,-6.4373E-06,1,0,0,-1,-2,"[25,20,60,106,144,47,38,85,105,153]",-0.799988568,-6.4373E-06,1,0,0,1,2,83,12,1,Yellow,Yellow.jpg,Turquiose,Turquiose.jpg,,
,,,,,,,,,,,,,,,,,,-4,,,,,,,,,,,,,,,,,,,,,,,,,,,5f8f58da2cacd91b623a815e,001,2021-12-17_24h05.21.314,jm_natural_scene_simialrity_2-12-2021_version2,2021.2.3,Win32,74.95128167,5f8f58da2cacd91b623a815e,61bbc5c79a1c66460f44041e,61bbc617e1fab6766dcc0e44,,,,,,-47.99998927,99.19997063,1,0,0,response7disk,0.6403,2.40001148,11.99999374,1,0,0,rectangle,-101.5999901,50.39999431,1,0,0,-3,-3,"[25,20,60,106,144,47,38,85,105,153]",3.200011492,7.999993682,1,0,0,1,3,84,20,1,LightGreen,LightGreen.jpg,LightBlue,LightBlue.jpg,response7disk_3,rectangle
,,,,,,,,,,,,,,,,,,-3,,,,,,,,,,,,,,,,,,,,,,,,,,,5f8f58da2cacd91b623a815e,001,2021-12-17_24h05.21.314,jm_natural_scene_simialrity_2-12-2021_version2,2021.2.3,Win32,74.95128167,5f8f58da2cacd91b623a815e,61bbc5c79a1c66460f44041e,61bbc617e1fab6766dcc0e44,,,,,,-90.39994107,56.79999441,1,0,0,response7disk,0.9604,-18.39994,3.999993622,1,0,0,rectangle,-18.39994,3.999993622,1,0,0,-3,2,"[25,20,60,106,144,47,38,85,105,153]",-18.39994,3.999993622,1,0,0,1,4,85,21,1,LightGreen,LightGreen.jpg,DarkBlue,DarkBlue.jpg,,
,,,,,,,,,,,,,,,,,,-2,,,,,,,,,,,,,,,,,,,,,,,,,,,5f8f58da2cacd91b623a815e,001,2021-12-17_24h05.21.314,jm_natural_scene_simialrity_2-12-2021_version2,2021.2.3,Win32,74.95128167,5f8f58da2cacd91b623a815e,61bbc5c79a1c66460f44041e,61bbc617e1fab6766dcc0e44,,,,,,-84.79998982,-48.00000715,1,0,0,response5disk,1.0006,21.60006059,7.19999367,1,0,0,rectangle,21.60006059,7.19999367,1,0,0,-3,-4,"[25,20,60,106,144,47,38,85,105,153]",21.60006059,7.19999367,1,0,0,1,5,86,5,1,Red,Red.jpg,LightBlue,LightBlue.jpg,,
,,,,,,,,,,,,,,,,,,-3,,,,,,,,,,,,,,,,,,,,,,,,,,,5f8f58da2cacd91b623a815e,001,2021-12-17_24h05.21.314,jm_natural_scene_simialrity_2-12-2021_version2,2021.2.3,Win32,74.95128167,5f8f58da2cacd91b623a815e,61bbc5c79a1c66460f44041e,61bbc617e1fab6766dcc0e44,,,,,,-90.39994107,43.19996979,1,0,0,response7disk,2.0138,-0.799988568,-4.800006509,1,0,0,rectangle,-0.799988568,-4.800006509,1,0,0,-3,2,"[25,20,60,106,144,47,38,85,105,153]",-0.799988568,-4.800006509,1,0,0,1,6,87,19,1,LightGreen,LightGreen.jpg,Turquiose,Turquiose.jpg,,
,,,,,,,,,,,,,,,,,,2,,,,,,,,,,,,,,,,,,,,,,,,,,,5f8f58da2cacd91b623a815e,001,2021-12-17_24h05.21.314,jm_natural_scene_simialrity_2-12-2021_version2,2021.2.3,Win32,74.95128167,5f8f58da2cacd91b623a815e,61bbc5c79a1c66460f44041e,61bbc617e1fab6766dcc0e44,,,,,,105.600013,-36.00000697,1,0,0,response3disk,1.4937,1.600060296,0.799993575,1,0,0,rectangle,1.600060296,0.799993575,1,0,0,-3,1,"[25,20,60,106,144,47,38,85,105,153]",1.600060296,0.799993575,1,0,0,1,7,88,43,1,Pink,Pink.jpg,Purple,Purple.jpg,,
,,,,,,,,,,,,,,,,,,-4,,,,,,,,,,,,,,,,,,,,,,,,,,,5f8f58da2cacd91b623a815e,001,2021-12-17_24h05.21.314,jm_natural_scene_simialrity_2-12-2021_version2,2021.2.3,Win32,74.95128167,5f8f58da2cacd91b623a815e,61bbc5c79a1c66460f44041e,61bbc617e1fab6766dcc0e44,,,,,,-52.79998934,91.99999493,1,0,0,response7disk,0.7738,-1.59998858,-0.800006449,1,0,0,rectangle,-1.59998858,-0.800006449,1,0,0,-3,1,"[25,20,60,106,144,47,38,85,105,153]",-1.59998858,-0.800006449,1,0,0,1,8,89,47,1,DarkGreen,DarkGreen.jpg,Red,Red.jpg,,
,,,,,,,,,,,,,,,,,,-2,,,,,,,,,,,,,,,,,,,,,,,,,,,5f8f58da2cacd91b623a815e,001,2021-12-17_24h05.21.314,jm_natural_scene_simialrity_2-12-2021_version2,2021.2.3,Win32,74.95128167,5f8f58da2cacd91b623a815e,61bbc5c79a1c66460f44041e,61bbc617e1fab6766dcc0e44,,,,,,-101.5999901,-49.60000718,1,0,0,response5disk,0.9199,1.600060296,3.999993622,1,0,0,rectangle,1.600060296,3.999993622,1,0,0,-3,2,"[25,20,60,106,144,47,38,85,105,153]",1.600060296,3.999993622,1,0,0,1,9,90,26,1,DarkGreen,DarkGreen.jpg,LightBlue,LightBlue.jpg,,
,,,,,,,,,,,,,,,,,,-3,,,,,,,,,,,,,,,,,,,,,,,,,,,5f8f58da2cacd91b623a815e,001,2021-12-17_24h05.21.314,jm_natural_scene_simialrity_2-12-2021_version2,2021.2.3,Win32,74.95128167,5f8f58da2cacd91b623a815e,61bbc5c79a1c66460f44041e,61bbc617e1fab6766dcc0e44,,,,,,-102.3999413,31.19996961,1,0,0,response7disk,1.0933,-3.999988616,-16.00000668,1,0,0,rectangle,-3.999988616,-16.00000668,1,0,0,-3,2,"[25,20,60,106,144,47,38,85,105,153]",-3.999988616,-16.00000668,1,0,0,1,10,91,38,1,LightBlue,LightBlue.jpg,Purple,Purple.jpg,,
,,,,,,,,,,,,,,,,,,3,,,,,,,,,,,,,,,,,,,,,,,,,,,5f8f58da2cacd91b623a815e,001,2021-12-17_24h05.21.314,jm_natural_scene_simialrity_2-12-2021_version2,2021.2.3,Win32,74.95128167,5f8f58da2cacd91b623a815e,61bbc5c79a1c66460f44041e,61bbc617e1fab6766dcc0e44,,,,,,73.60001254,40.79999417,1,0,0,response1disk,1.0798,-7.999988675,-6.4373E-06,1,0,0,rectangle,-7.999988675,-6.4373E-06,1,0,0,-3,3,"[25,20,60,106,144,47,38,85,105,153]",-7.999988675,-6.4373E-06,1,0,0,1,11,92,76,1,Pink,Pink.jpg,LightBlue,LightBlue.jpg,,
,,,,,,,,,,,,,,,,,,-4,,,,,,,,,,,,,,,,,,,,,,,,,,,5f8f58da2cacd91b623a815e,001,2021-12-17_24h05.21.314,jm_natural_scene_simialrity_2-12-2021_version2,2021.2.3,Win32,74.95128167,5f8f58da2cacd91b623a815e,61bbc5c79a1c66460f44041e,61bbc617e1fab6766dcc0e44,,,,,,-52.79998934,113.5999953,1,0,0,response7disk,0.7597,-3.199988604,-2.400006473,1,0,0,rectangle,-3.199988604,-2.400006473,1,0,0,-3,2,"[25,20,60,106,144,47,38,85,105,153]",-3.199988604,-2.400006473,1,0,0,1,12,93,70,1,Purple,Purple.jpg,DarkGreen,DarkGreen.jpg,,
,,,,,,,,,,,,,,,,,,-1,,,,,,,,,,,,,,,,,,,,,,,,,,,5f8f58da2cacd91b623a815e,001,2021-12-17_24h05.21.314,jm_natural_scene_simialrity_2-12-2021_version2,2021.2.3,Win32,74.95128167,5f8f58da2cacd91b623a815e,61bbc5c79a1c66460f44041e,61bbc617e1fab6766dcc0e44,,,,,,-35.99998909,-84.8000077,1,0,0,response5disk,1.0666,-2.399939764,9.599993706,1,0,0,rectangle,-2.399939764,9.599993706,1,0,0,-3,-4,"[25,20,60,106,144,47,38,85,105,153]",-2.399939764,9.599993706,1,0,0,1,13,94,4,1,Red,Red.jpg,Turquiose,Turquiose.jpg,,
,,,,,,,,,,,,,,,,,,-3,,,,,,,,,,,,,,,,,,,,,,,,,,,5f8f58da2cacd91b623a815e,001,2021-12-17_24h05.21.314,jm_natural_scene_simialrity_2-12-2021_version2,2021.2.3,Win32,74.95128167,5f8f58da2cacd91b623a815e,61bbc5c79a1c66460f44041e,61bbc617e1fab6766dcc0e44,,,,,,-76.7999897,32.79999405,1,0,0,response7disk,1.7069,-4.799988627,-8.800006568,1,0,0,rectangle,-4.799988627,-8.800006568,1,0,0,-3,-4,"[25,20,60,106,144,47,38,85,105,153]",-4.799988627,-8.800006568,1,0,0,1,14,95,1,1,Red,Red.jpg,Yellow,Yellow.jpg,,
,,,,,,,,,,,,,,,,,,-3,,,,,,,,,,,,,,,,,,,,,,,,,,,5f8f58da2cacd91b623a815e,001,2021-12-17_24h05.21.314,jm_natural_scene_simialrity_2-12-2021_version2,2021.2.3,Win32,74.95128167,5f8f58da2cacd91b623a815e,61bbc5c79a1c66460f44041e,61bbc617e1fab6766dcc0e44,,,,,,-92.79998994,49.5999943,1,0,0,response7disk,0.8001,-2.399939764,2.399993598,1,0,0,rectangle,-2.399939764,2.399993598,1,0,0,-3,3,"[25,20,60,106,144,47,38,85,105,153]",-2.399939764,2.399993598,1,0,0,1,15,96,41,1,DarkBlue,DarkBlue.jpg,Purple,Purple.jpg,,
,,,,,,,,,,,,,,,,,,4,,,,,,,,,,,,,,,,,,,,,,,,,,,5f8f58da2cacd91b623a815e,001,2021-12-17_24h05.21.314,jm_natural_scene_simialrity_2-12-2021_version2,2021.2.3,Win32,74.95128167,5f8f58da2cacd91b623a815e,61bbc5c79a1c66460f44041e,61bbc617e1fab6766dcc0e44,,,,,,49.60006101,97.59999502,1,0,0,response1disk,0.7993,-6.399939823,9.599993706,1,0,0,rectangle,-6.399939823,9.599993706,1,0,0,-3,3,"[25,20,60,106,144,47,38,85,105,153]",-6.399939823,9.599993706,1,0,0,1,16,97,39,1,DarkBlue,DarkBlue.jpg,DarkBlue,DarkBlue.jpg,,
,,,,,,,,,,,,,,,,,,-3,,,,,,,,,,,,,,,,,,,,,,,,,,,5f8f58da2cacd91b623a815e,001,2021-12-17_24h05.21.314,jm_natural_scene_simialrity_2-12-2021_version2,2021.2.3,Win32,74.95128167,5f8f58da2cacd91b623a815e,61bbc5c79a1c66460f44041e,61bbc617e1fab6766dcc0e44,,,,,,-99.19999003,51.99999434,1,0,0,response7disk,0.7339,6.400011539,12.79999375,1,0,0,rectangle,6.400011539,12.79999375,1,0,0,-3,2,"[25,20,60,106,144,47,38,85,105,153]",6.400011539,12.79999375,1,0,0,1,17,98,53,1,LightGreen,LightGreen.jpg,Yellow,Yellow.jpg,,
,,,,,,,,,,,,,,,,,,-2,,,,,,,,,,,,,,,,,,,,,,,,,,,5f8f58da2cacd91b623a815e,001,2021-12-17_24h05.21.314,jm_natural_scene_simialrity_2-12-2021_version2,2021.2.3,Win32,74.95128167,5f8f58da2cacd91b623a815e,61bbc5c79a1c66460f44041e,61bbc617e1fab6766dcc0e44,,,,,,-102.3999413,-35.20000696,1,0,0,response5disk,0.9332,-7.999988675,11.99999374,1,0,0,rectangle,-7.999988675,11.99999374,1,0,0,-3,-2,"[25,20,60,106,144,47,38,85,105,153]",-7.999988675,11.99999374,1,0,0,1,18,99,74,1,Purple,Purple.jpg,Turquiose,Turquiose.jpg,,
,,,,,,,,,,,,,,,,,,-1,,,,,,,,,,,,,,,,,,,,,,,,,,,5f8f58da2cacd91b623a815e,001,2021-12-17_24h05.21.314,jm_natural_scene_simialrity_2-12-2021_version2,2021.2.3,Win32,74.95128167,5f8f58da2cacd91b623a815e,61bbc5c79a1c66460f44041e,61bbc617e1fab6766dcc0e44,,,,,,-57.59998941,-115.2000082,1,0,0,response5disk,1.1065,8.800011575,13.59999377,1,0,0,rectangle,8.800011575,13.59999377,1,0,0,-3,1,"[25,20,60,106,144,47,38,85,105,153]",8.800011575,13.59999377,1,0,0,1,19,100,49,1,LightBlue,LightBlue.jpg,Red,Red.jpg,,
,,,,,,,,,,,,,,,,,,2,,,,,,,,,,,,,,,,,,,,,,,,,,,5f8f58da2cacd91b623a815e,001,2021-12-17_24h05.21.314,jm_natural_scene_simialrity_2-12-2021_version2,2021.2.3,Win32,74.95128167,5f8f58da2cacd91b623a815e,61bbc5c79a1c66460f44041e,61bbc617e1fab6766dcc0e44,,,,,,71.20001251,-23.20000678,1,0,0,response3disk,1.0805,-7.199988663,8.799993694,1,0,0,rectangle,-7.199988663,8.799993694,1,0,0,-3,-4,"[25,20,60,106,144,47,38,85,105,153]",-7.199988663,8.799993694,1,0,0,1,20,101,45,1,Yellow,Yellow.jpg,Red,Red.jpg,,
,,,,,,,,,,,,,,,,,,-1,,,,,,,,,,,,,,,,,,,,,,,,,,,5f8f58da2cacd91b623a815e,001,2021-12-17_24h05.21.314,jm_natural_scene_simialrity_2-12-2021_version2,2021.2.3,Win32,74.95128167,5f8f58da2cacd91b623a815e,61bbc5c79a1c66460f44041e,61bbc617e1fab6766dcc0e44,,,,,,-66.39994072,-104.800008,1,0,0,response5disk,0.7196,-11.19998872,3.19999361,1,0,0,rectangle,-11.19998872,3.19999361,1,0,0,-3,2,"[25,20,60,106,144,47,38,85,105,153]",-11.19998872,3.19999361,1,0,0,1,21,102,56,1,LightBlue,LightBlue.jpg,Yellow,Yellow.jpg,,
,,,,,,,,,,,,,,,,,,4,,,,,,,,,,,,,,,,,,,,,,,,,,,5f8f58da2cacd91b623a815e,001,2021-12-17_24h05.21.314,jm_natural_scene_simialrity_2-12-2021_version2,2021.2.3,Win32,74.95128167,5f8f58da2cacd91b623a815e,61bbc5c79a1c66460f44041e,61bbc617e1fab6766dcc0e44,,,,,,39.20001203,102.3999951,1,0,0,response1disk,0.8136,-5.599988639,9.599993706,1,0,0,rectangle,-5.599988639,9.599993706,1,0,0,-3,-1,"[25,20,60,106,144,47,38,85,105,153]",-5.599988639,9.599993706,1,0,0,1,22,103,42,1,Pink,Pink.jpg,Pink,Pink.jpg,,
,,,,,,,,,,,,,,,,,,-3,,,,,,,,,,,,,,,,,,,,,,,,,,,5f8f58da2cacd91b623a815e,001,2021-12-17_24h05.21.314,jm_natural_scene_simialrity_2-12-2021_version2,2021.2.3,Win32,74.95128167,5f8f58da2cacd91b623a815e,61bbc5c79a1c66460f44041e,61bbc617e1fab6766dcc0e44,,,,,,-109.5999902,35.9999941,1,0,0,response7disk,0.72,-7.199988663,10.39999372,1,0,0,rectangle,89.60001278,35.19996967,1,0,0,3,3,"[25,20,60,106,144,47,38,85,105,153]",-5.599988639,7.19999367,1,0,0,1,23,104,13,1,Yellow,Yellow.jpg,LightBlue,LightBlue.jpg,response1disk_3,rectangle
,,,,,,,,,,,,,,,,,,4,,,,,,,,,,,,,,,,,,,,,,,,,,,5f8f58da2cacd91b623a815e,001,2021-12-17_24h05.21.314,jm_natural_scene_simialrity_2-12-2021_version2,2021.2.3,Win32,74.95128167,5f8f58da2cacd91b623a815e,61bbc5c79a1c66460f44041e,61bbc617e1fab6766dcc0e44,,,,,,48.80001217,96.79999501,1,0,0,response1disk,0.7467,-19.19998884,14.39999378,1,0,0,rectangle,108.0000131,43.19996979,1,0,0,3,3,"[25,20,60,106,144,47,38,85,105,153]",-3.999988616,3.999993622,1,0,0,1,24,105,35,1,LightBlue,LightBlue.jpg,LightBlue,LightBlue.jpg,response1disk_3,rectangle
,,,,,,,,,,,,,,,,,,3,,,,,,,,,,,,,,,,,,,,,,,,,,,5f8f58da2cacd91b623a815e,001,2021-12-17_24h05.21.314,jm_natural_scene_simialrity_2-12-2021_version2,2021.2.3,Win32,74.95128167,5f8f58da2cacd91b623a815e,61bbc5c79a1c66460f44041e,61bbc617e1fab6766dcc0e44,,,,,,75.20001256,33.59999406,1,0,0,response1disk,0.9462,-8.799988687,9.599993706,1,0,0,rectangle,-8.799988687,9.599993706,1,0,0,3,-2,"[25,20,60,106,144,47,38,85,105,153]",-8.799988687,9.599993706,1,0,0,1,25,106,18,1,LightGreen,LightGreen.jpg,DarkGreen,DarkGreen.jpg,,
,,,,,,,,,,,,,,,,,,-3,,,,,,,,,,,,,,,,,,,,,,,,,,,5f8f58da2cacd91b623a815e,001,2021-12-17_24h05.21.314,jm_natural_scene_simialrity_2-12-2021_version2,2021.2.3,Win32,74.95128167,5f8f58da2cacd91b623a815e,61bbc5c79a1c66460f44041e,61bbc617e1fab6766dcc0e44,,,,,,-95.99998999,29.599994,1,0,0,response7disk,0.7465,-1.59998858,8.799993694,1,0,0,rectangle,-1.59998858,8.799993694,1,0,0,3,-3,"[25,20,60,106,144,47,38,85,105,153]",-1.59998858,8.799993694,1,0,0,1,26,107,27,1,DarkGreen,DarkGreen.jpg,DarkBlue,DarkBlue.jpg,,
,,,,,,,,,,,,,,,,,,-3,,,,,,,,,,,,,,,,,,,,,,,,,,,5f8f58da2cacd91b623a815e,001,2021-12-17_24h05.21.314,jm_natural_scene_simialrity_2-12-2021_version2,2021.2.3,Win32,74.95128167,5f8f58da2cacd91b623a815e,61bbc5c79a1c66460f44041e,61bbc617e1fab6766dcc0e44,,,,,,-82.39994096,49.5999943,1,0,0,response7disk,0.5195,13.60006047,13.59999377,1,0,0,rectangle,13.60006047,13.59999377,1,0,0,3,-3,"[25,20,60,106,144,47,38,85,105,153]",13.60006047,13.59999377,1,0,0,1,27,108,57,1,DarkBlue,DarkBlue.jpg,Yellow,Yellow.jpg,,
,,,,,,,,,,,,,,,,,,-4,,,,,,,,,,,,,,,,,,,,,,,,,,,5f8f58da2cacd91b623a815e,001,2021-12-17_24h05.21.314,jm_natural_scene_simialrity_2-12-2021_version2,2021.2.3,Win32,74.95128167,5f8f58da2cacd91b623a815e,61bbc5c79a1c66460f44041e,61bbc617e1fab6766dcc0e44,,,,,,-50.39994048,105.5999951,1,0,0,response7disk,0.5999,-6.399939823,3.19999361,1,0,0,rectangle,-6.399939823,3.19999361,1,0,0,3,-1,"[25,20,60,106,144,47,38,85,105,153]",-6.399939823,3.19999361,1,0,0,1,28,109,28,1,DarkGreen,DarkGreen.jpg,Pink,Pink.jpg,,
,,,,,,,,,,,,,,,,,,3,,,,,,,,,,,,,,,,,,,,,,,,,,,5f8f58da2cacd91b623a815e,001,2021-12-17_24h05.21.314,jm_natural_scene_simialrity_2-12-2021_version2,2021.2.3,Win32,74.95128167,5f8f58da2cacd91b623a815e,61bbc5c79a1c66460f44041e,61bbc617e1fab6766dcc0e44,,,,,,91.2000128,23.19996949,1,0,0,response1disk,1.2535,5.600060356,-0.800006449,1,0,0,rectangle,5.600060356,-0.800006449,1,0,0,3,1,"[25,20,60,106,144,47,38,85,105,153]",5.600060356,-0.800006449,1,0,0,1,29,110,51,1,Pink,Pink.jpg,Red,Red.jpg,,
,,,,,,,,,,,,,,,,,,2,,,,,,,,,,,,,,,,,,,,,,,,,,,5f8f58da2cacd91b623a815e,001,2021-12-17_24h05.21.314,jm_natural_scene_simialrity_2-12-2021_version2,2021.2.3,Win32,74.95128167,5f8f58da2cacd91b623a815e,61bbc5c79a1c66460f44041e,61bbc617e1fab6766dcc0e44,,,,,,59.20001233,-32.00000691,1,0,0,response3disk,0.9868,-11.99998873,7.19999367,1,0,0,rectangle,-11.99998873,7.19999367,1,0,0,3,2,"[25,20,60,106,144,47,38,85,105,153]",-11.99998873,7.19999367,1,0,0,1,30,111,80,1,Purple,Purple.jpg,Pink,Pink.jpg,,
,,,,,,,,,,,,,,,,,,-3,,,,,,,,,,,,,,,,,,,,,,,,,,,5f8f58da2cacd91b623a815e,001,2021-12-17_24h05.21.314,jm_natural_scene_simialrity_2-12-2021_version2,2021.2.3,Win32,74.95128167,5f8f58da2cacd91b623a815e,61bbc5c79a1c66460f44041e,61bbc617e1fab6766dcc0e44,,,,,,-111.1999902,56.79999441,1,0,0,response7disk,0.7195,-7.999988675,-6.4373E-06,1,0,0,rectangle,-7.999988675,-6.4373E-06,1,0,0,3,-4,"[25,20,60,106,144,47,38,85,105,153]",-7.999988675,-6.4373E-06,1,0,0,1,31,112,34,1,Turquiose,Turquiose.jpg,Purple,Purple.jpg,,
,,,,,,,,,,,,,,,,,,1,,,,,,,,,,,,,,,,,,,,,,,,,,,5f8f58da2cacd91b623a815e,001,2021-12-17_24h05.21.314,jm_natural_scene_simialrity_2-12-2021_version2,2021.2.3,Win32,74.95128167,5f8f58da2cacd91b623a815e,61bbc5c79a1c66460f44041e,61bbc617e1fab6766dcc0e44,,,,,,31.20001191,-101.6000568,1,0,0,response3disk,1.3174,-21.59998888,-4.800006509,1,0,0,rectangle,-21.59998888,-4.800006509,1,0,0,3,-3,"[25,20,60,106,144,47,38,85,105,153]",-21.59998888,-4.800006509,1,0,0,1,32,113,36,1,LightBlue,LightBlue.jpg,DarkBlue,DarkBlue.jpg,,
,,,,,,,,,,,,,,,,,,2,,,,,,,,,,,,,,,,,,,,,,,,,,,5f8f58da2cacd91b623a815e,001,2021-12-17_24h05.21.314,jm_natural_scene_simialrity_2-12-2021_version2,2021.2.3,Win32,74.95128167,5f8f58da2cacd91b623a815e,61bbc5c79a1c66460f44041e,61bbc617e1fab6766dcc0e44,,,,,,112.0000131,-35.20000696,1,0,0,response3disk,1.1734,-16.79998881,8.799993694,1,0,0,rectangle,-16.79998881,8.799993694,1,0,0,3,-2,"[25,20,60,106,144,47,38,85,105,153]",-16.79998881,8.799993694,1,0,0,1,33,114,32,1,Turquiose,Turquiose.jpg,DarkBlue,DarkBlue.jpg,,
,,,,,,,,,,,,,,,,,,4,,,,,,,,,,,,,,,,,,,,,,,,,,,5f8f58da2cacd91b623a815e,001,2021-12-17_24h05.21.314,jm_natural_scene_simialrity_2-12-2021_version2,2021.2.3,Win32,74.95128167,5f8f58da2cacd91b623a815e,61bbc5c79a1c66460f44041e,61bbc617e1fab6766dcc0e44,,,,,,38.40001202,99.19997063,1,0,0,response1disk,0.8134,-6.399939823,23.99999392,1,0,0,rectangle,-6.399939823,23.99999392,1,0,0,3,-4,"[25,20,60,106,144,47,38,85,105,153]",-6.399939823,23.99999392,1,0,0,1,34,115,9,1,Yellow,Yellow.jpg,Yellow,Yellow.jpg,,
,,,,,,,,,,,,,,,,,,-4,,,,,,,,,,,,,,,,,,,,,,,,,,,5f8f58da2cacd91b623a815e,001,2021-12-17_24h05.21.314,jm_natural_scene_simialrity_2-12-2021_version2,2021.2.3,Win32,74.95128167,5f8f58da2cacd91b623a815e,61bbc5c79a1c66460f44041e,61bbc617e1fab6766dcc0e44,,,,,,-59.99998945,105.5999951,1,0,0,response7disk,0.7869,4.800011516,-10.40000659,1,0,0,rectangle,4.800011516,-10.40000659,1,0,0,3,1,"[25,20,60,106,144,47,38,85,105,153]",4.800011516,-10.40000659,1,0,0,1,35,116,2,1,Red,Red.jpg,LightGreen,LightGreen.jpg,,
,,,,,,,,,,,,,,,,,,-4,,,,,,,,,,,,,,,,,,,,,,,,,,,5f8f58da2cacd91b623a815e,001,2021-12-17_24h05.21.314,jm_natural_scene_simialrity_2-12-2021_version2,2021.2.3,Win32,74.95128167,5f8f58da2cacd91b623a815e,61bbc5c79a1c66460f44041e,61bbc617e1fab6766dcc0e44,,,,,,-35.19998908,95.19997057,1,0,0,response7disk,0.8662,17.60006053,3.999993622,1,0,0,rectangle,17.60006053,3.999993622,1,0,0,3,2,"[25,20,60,106,144,47,38,85,105,153]",17.60006053,3.999993622,1,0,0,1,36,117,14,1,Yellow,Yellow.jpg,DarkBlue,DarkBlue.jpg,,
,,,,,,,,,,,,,,,,,,-4,,,,,,,,,,,,,,,,,,,,,,,,,,,5f8f58da2cacd91b623a815e,001,2021-12-17_24h05.21.314,jm_natural_scene_simialrity_2-12-2021_version2,2021.2.3,Win32,74.95128167,5f8f58da2cacd91b623a815e,61bbc5c79a1c66460f44041e,61bbc617e1fab6766dcc0e44,,,,,,-55.99998939,109.5999952,1,0,0,response7disk,0.7465,6.400011539,-1.600006461,1,0,0,rectangle,6.400011539,-1.600006461,1,0,0,3,2,"[25,20,60,106,144,47,38,85,105,153]",6.400011539,-1.600006461,1,0,0,1,37,118,78,1,Pink,Pink.jpg,DarkBlue,DarkBlue.jpg,,
,,,,,,,,,,,,,,,,,,-4,,,,,,,,,,,,,,,,,,,,,,,,,,,5f8f58da2cacd91b623a815e,001,2021-12-17_24h05.21.314,jm_natural_scene_simialrity_2-12-2021_version2,2021.2.3,Win32,74.95128167,5f8f58da2cacd91b623a815e,61bbc5c79a1c66460f44041e,61bbc617e1fab6766dcc0e44,,,,,,-43.99998921,96.79999501,1,0,0,response7disk,0.76,23.20001179,-3.200006485,1,0,0,rectangle,23.20001179,-3.200006485,1,0,0,3,1,"[25,20,60,106,144,47,38,85,105,153]",23.20001179,-3.200006485,1,0,0,1,38,119,68,1,DarkBlue,DarkBlue.jpg,DarkGreen,DarkGreen.jpg,,
,,,,,,,,,,,,,,,,,,-4,,,,,,,,,,,,,,,,,,,,,,,,,,,5f8f58da2cacd91b623a815e,001,2021-12-17_24h05.21.314,jm_natural_scene_simialrity_2-12-2021_version2,2021.2.3,Win32,74.95128167,5f8f58da2cacd91b623a815e,61bbc5c79a1c66460f44041e,61bbc617e1fab6766dcc0e44,,,,,,-64.79998952,102.3999951,1,0,0,response7disk,0.7732,-10.39993988,-1.600006461,1,0,0,rectangle,-10.39993988,-1.600006461,1,0,0,3,2,"[25,20,60,106,144,47,38,85,105,153]",-10.39993988,-1.600006461,1,0,0,1,39,120,22,1,LightGreen,LightGreen.jpg,Pink,Pink.jpg,,
,,,,,,,,,,,,,,,,,,3,,,,,,,,,,,,,,,,,,,,,,,,,,,5f8f58da2cacd91b623a815e,001,2021-12-17_24h05.21.314,jm_natural_scene_simialrity_2-12-2021_version2,2021.2.3,Win32,74.95128167,5f8f58da2cacd91b623a815e,61bbc5c79a1c66460f44041e,61bbc617e1fab6766dcc0e44,,,,,,108.8000131,27.19996955,1,0,0,response1disk,0.8401,2.40001148,-17.6000067,1,0,0,rectangle,2.40001148,-17.6000067,1,0,0,3,1,"[25,20,60,106,144,47,38,85,105,153]",2.40001148,-17.6000067,1,0,0,1,40,121,58,1,Pink,Pink.jpg,Yellow,Yellow.jpg,,
,,,,,,,,,,,,,,,,,,-4,,,,,,,,,,,,,,,,,,,,,,,,,,,5f8f58da2cacd91b623a815e,001,2021-12-17_24h05.21.314,jm_natural_scene_simialrity_2-12-2021_version2,2021.2.3,Win32,74.95128167,5f8f58da2cacd91b623a815e,61bbc5c79a1c66460f44041e,61bbc617e1fab6766dcc0e44,,,,,,-46.39994042,106.3999951,1,0,0,response7disk,0.6263,9.600060415,-0.800006449,1,0,0,rectangle,9.600060415,-0.800006449,1,0,0,3,-3,"[25,20,60,106,144,47,38,85,105,153]",9.600060415,-0.800006449,1,0,0,1,41,122,10,1,Yellow,Yellow.jpg,LightGreen,LightGreen.jpg,,
,,,,,,,,,,,,,,,,,,-3,,,,,,,,,,,,,,,,,,,,,,,,,,,5f8f58da2cacd91b623a815e,001,2021-12-17_24h05.21.314,jm_natural_scene_simialrity_2-12-2021_version2,2021.2.3,Win32,74.95128167,5f8f58da2cacd91b623a815e,61bbc5c79a1c66460f44041e,61bbc617e1fab6766dcc0e44,,,,,,-106.3999413,34.39999408,1,0,0,response7disk,0.7333,-16.79998881,-6.400006533,1,0,0,rectangle,-16.79998881,-6.400006533,1,0,0,3,-3,"[25,20,60,106,144,47,38,85,105,153]",-16.79998881,-6.400006533,1,0,0,1,42,123,67,1,LightBlue,LightBlue.jpg,DarkGreen,DarkGreen.jpg,,
,,,,,,,,,,,,,,,,,,3,,,,,,,,,,,,,,,,,,,,,,,,,,,5f8f58da2cacd91b623a815e,001,2021-12-17_24h05.21.314,jm_natural_scene_simialrity_2-12-2021_version2,2021.2.3,Win32,74.95128167,5f8f58da2cacd91b623a815e,61bbc5c79a1c66460f44041e,61bbc617e1fab6766dcc0e44,,,,,,88.00001276,19.19999385,1,0,0,response1disk,0.8538,-24.79998893,-22.40000677,1,0,0,rectangle,-24.79998893,-22.40000677,1,0,0,3,-1,"[25,20,60,106,144,47,38,85,105,153]",-24.79998893,-22.40000677,1,0,0,1,43,124,15,1,Yellow,Yellow.jpg,Pink,Pink.jpg,,
,,,,,,,,,,,,,,,,,,-3,,,,,,,,,,,,,,,,,,,,,,,,,,,5f8f58da2cacd91b623a815e,001,2021-12-17_24h05.21.314,jm_natural_scene_simialrity_2-12-2021_version2,2021.2.3,Win32,74.95128167,5f8f58da2cacd91b623a815e,61bbc5c79a1c66460f44041e,61bbc617e1fab6766dcc0e44,,,,,,-95.99998999,60.79999447,1,0,0,response7disk,1.1572,-3.199988604,-2.400006473,1,0,0,rectangle,-3.199988604,-2.400006473,1,0,0,3,2,"[25,20,60,106,144,47,38,85,105,153]",-3.199988604,-2.400006473,1,0,0,1,44,125,25,1,DarkGreen,DarkGreen.jpg,Turquiose,Turquiose.jpg,,
,,,,,,,,,,,,,,,,,,2,,,,,,,,,,,,,,,,,,,,,,,,,,,5f8f58da2cacd91b623a815e,001,2021-12-17_24h05.21.314,jm_natural_scene_simialrity_2-12-2021_version2,2021.2.3,Win32,74.95128167,5f8f58da2cacd91b623a815e,61bbc5c79a1c66460f44041e,61bbc617e1fab6766dcc0e44,,,,,,104.000013,-49.60000718,1,0,0,response3disk,1.1337,-7.999988675,-2.400006473,1,0,0,rectangle,-7.999988675,-2.400006473,1,0,0,3,3,"[25,20,60,106,144,47,38,85,105,153]",-7.999988675,-2.400006473,1,0,0,1,45,126,66,1,Turquiose,Turquiose.jpg,DarkGreen,DarkGreen.jpg,,
,,,,,,,,,,,,,,,,,,-1,,,,,,,,,,,,,,,,,,,,,,,,,,,5f8f58da2cacd91b623a815e,001,2021-12-17_24h05.21.314,jm_natural_scene_simialrity_2-12-2021_version2,2021.2.3,Win32,74.95128167,5f8f58da2cacd91b623a815e,61bbc5c79a1c66460f44041e,61bbc617e1fab6766dcc0e44,,,,,,-63.99998951,-73.60000753,1,0,0,response5disk,1.2273,1.14441E-05,-4.800006509,1,0,0,rectangle,1.14441E-05,-4.800006509,1,0,0,3,2,"[25,20,60,106,144,47,38,85,105,153]",1.14441E-05,-4.800006509,1,0,0,1,46,127,31,1,Turquiose,Turquiose.jpg,LightBlue,LightBlue.jpg,,
,,,,,,,,,,,,,,,,,,2,,,,,,,,,,,,,,,,,,,,,,,,,,,5f8f58da2cacd91b623a815e,001,2021-12-17_24h05.21.314,jm_natural_scene_simialrity_2-12-2021_version2,2021.2.3,Win32,74.95128167,5f8f58da2cacd91b623a815e,61bbc5c79a1c66460f44041e,61bbc617e1fab6766dcc0e44,,,,,,79.20001262,-29.60000688,1,0,0,response3disk,1.0935,-0.799988568,24.79999393,1,0,0,rectangle,-0.799988568,24.79999393,1,0,0,3,-2,"[25,20,60,106,144,47,38,85,105,153]",-0.799988568,24.79999393,1,0,0,1,47,128,37,1,LightBlue,LightBlue.jpg,Pink,Pink.jpg,,
,,,,,,,,,,,,,,,,,,-4,,,,,,,,,,,,,,,,,,,,,,,,,,,5f8f58da2cacd91b623a815e,001,2021-12-17_24h05.21.314,jm_natural_scene_simialrity_2-12-2021_version2,2021.2.3,Win32,74.95128167,5f8f58da2cacd91b623a815e,61bbc5c79a1c66460f44041e,61bbc617e1fab6766dcc0e44,,,,,,-64.79998952,89.5999949,1,0,0,response7disk,0.8132,-7.999988675,-14.40000665,1,0,0,rectangle,-7.999988675,-14.40000665,1,0,0,3,-3,"[25,20,60,106,144,47,38,85,105,153]",-7.999988675,-14.40000665,1,0,0,1,48,129,64,1,Pink,Pink.jpg,LightGreen,LightGreen.jpg,,
,,,,,,,,,,,,,,,,,,-4,,,,,,,,,,,,,,,,,,,,,,,,,,,5f8f58da2cacd91b623a815e,001,2021-12-17_24h05.21.314,jm_natural_scene_simialrity_2-12-2021_version2,2021.2.3,Win32,74.95128167,5f8f58da2cacd91b623a815e,61bbc5c79a1c66460f44041e,61bbc617e1fab6766dcc0e44,,,,,,-53.59998935,91.99999493,1,0,0,response7disk,0.7598,-1.59998858,-9.60000658,1,0,0,rectangle,-1.59998858,-9.60000658,1,0,0,3,-4,"[25,20,60,106,144,47,38,85,105,153]",-1.59998858,-9.60000658,1,0,0,1,49,130,46,1,LightGreen,LightGreen.jpg,Red,Red.jpg,,
,,,,,,,,,,,,,,,,,,4,,,,,,,,,,,,,,,,,,,,,,,,,,,5f8f58da2cacd91b623a815e,001,2021-12-17_24h05.21.314,jm_natural_scene_simialrity_2-12-2021_version2,2021.2.3,Win32,74.95128167,5f8f58da2cacd91b623a815e,61bbc5c79a1c66460f44041e,61bbc617e1fab6766dcc0e44,,,,,,38.40001202,104.7999951,1,0,0,response1disk,0.8002,2.40001148,9.599993706,1,0,0,rectangle,2.40001148,9.599993706,1,0,0,3,-2,"[25,20,60,106,144,47,38,85,105,153]",2.40001148,9.599993706,1,0,0,1,50,131,30,1,Turquiose,Turquiose.jpg,Turquiose,Turquiose.jpg,,
,,,,,,,,,,,,,,,,,,4,,,,,,,,,,,,,,,,,,,,,,,,,,,5f8f58da2cacd91b623a815e,001,2021-12-17_24h05.21.314,jm_natural_scene_simialrity_2-12-2021_version2,2021.2.3,Win32,74.95128167,5f8f58da2cacd91b623a815e,61bbc5c79a1c66460f44041e,61bbc617e1fab6766dcc0e44,,,,,,35.20001197,103.9999951,1,0,0,response1disk,0.6536,-7.999988675,1.599993587,1,0,0,rectangle,-7.999988675,1.599993587,1,0,0,3,-3,"[25,20,60,106,144,47,38,85,105,153]",-7.999988675,1.599993587,1,0,0,1,51,132,24,1,DarkGreen,DarkGreen.jpg,DarkGreen,DarkGreen.jpg,,
,,,,,,,,,,,,,,,,,,-3,,,,,,,,,,,,,,,,,,,,,,,,,,,5f8f58da2cacd91b623a815e,001,2021-12-17_24h05.21.314,jm_natural_scene_simialrity_2-12-2021_version2,2021.2.3,Win32,74.95128167,5f8f58da2cacd91b623a815e,61bbc5c79a1c66460f44041e,61bbc617e1fab6766dcc0e44,,,,,,-89.59998989,45.59999424,1,0,0,response7disk,0.5997,7.200011551,8.799993694,1,0,0,rectangle,7.200011551,8.799993694,1,0,0,3,2,"[25,20,60,106,144,47,38,85,105,153]",7.200011551,8.799993694,1,0,0,1,52,133,79,1,Purple,Purple.jpg,DarkBlue,DarkBlue.jpg,,
,,,,,,,,,,,,,,,,,,-4,,,,,,,,,,,,,,,,,,,,,,,,,,,5f8f58da2cacd91b623a815e,001,2021-12-17_24h05.21.314,jm_natural_scene_simialrity_2-12-2021_version2,2021.2.3,Win32,74.95128167,5f8f58da2cacd91b623a815e,61bbc5c79a1c66460f44041e,61bbc617e1fab6766dcc0e44,,,,,,-57.59998941,113.5999953,1,0,0,response7disk,0.8664,2.40001148,19.19999385,1,0,0,rectangle,2.40001148,19.19999385,1,0,0,3,-2,"[25,20,60,106,144,47,38,85,105,153]",2.40001148,19.19999385,1,0,0,1,53,134,54,1,DarkGreen,DarkGreen.jpg,Yellow,Yellow.jpg,,
,,,,,,,,,,,,,,,,,,-4,,,,,,,,,,,,,,,,,,,,,,,,,,,5f8f58da2cacd91b623a815e,001,2021-12-17_24h05.21.314,jm_natural_scene_simialrity_2-12-2021_version2,2021.2.3,Win32,74.95128167,5f8f58da2cacd91b623a815e,61bbc5c79a1c66460f44041e,61bbc617e1fab6766dcc0e44,,,,,,-54.39994054,98.39999503,1,0,0,response7disk,0.7329,-6.399939823,-3.200006485,1,0,0,rectangle,-6.399939823,-3.200006485,1,0,0,3,-2,"[25,20,60,106,144,47,38,85,105,153]",-6.399939823,-3.200006485,1,0,0,1,54,135,3,1,Red,Red.jpg,DarkGreen,DarkGreen.jpg,,
,,,,,,,,,,,,,,,,,,-4,,,,,,,,,,,,,,,,,,,,,,,,,,,5f8f58da2cacd91b623a815e,001,2021-12-17_24h05.21.314,jm_natural_scene_simialrity_2-12-2021_version2,2021.2.3,Win32,74.95128167,5f8f58da2cacd91b623a815e,61bbc5c79a1c66460f44041e,61bbc617e1fab6766dcc0e44,,,,,,-48.79998928,93.59999496,1,0,0,response7disk,0.64,-0.799988568,5.599993646,1,0,0,rectangle,-0.799988568,5.599993646,1,0,0,3,-3,"[25,20,60,106,144,47,38,85,105,153]",-0.799988568,5.599993646,1,0,0,1,55,136,73,1,Pink,Pink.jpg,Turquiose,Turquiose.jpg,,
,,,,,,,,,,,,,,,,,,-4,,,,,,,,,,,,,,,,,,,,,,,,,,,5f8f58da2cacd91b623a815e,001,2021-12-17_24h05.21.314,jm_natural_scene_simialrity_2-12-2021_version2,2021.2.3,Win32,74.95128167,5f8f58da2cacd91b623a815e,61bbc5c79a1c66460f44041e,61bbc617e1fab6766dcc0e44,,,,,,-43.99998921,78.39999473,1,0,0,response7disk,0.7601,-0.799988568,0.799993575,1,0,0,rectangle,-0.799988568,0.799993575,1,0,0,3,-3,"[25,20,60,106,144,47,38,85,105,153]",-0.799988568,0.799993575,1,0,0,1,56,137,29,1,DarkGreen,DarkGreen.jpg,Purple,Purple.jpg,,
,,,,,,,,,,,,,,,,,,-4,,,,,,,,,,,,,,,,,,,,,,,,,,,5f8f58da2cacd91b623a815e,001,2021-12-17_24h05.21.314,jm_natural_scene_simialrity_2-12-2021_version2,2021.2.3,Win32,74.95128167,5f8f58da2cacd91b623a815e,61bbc5c79a1c66460f44041e,61bbc617e1fab6766dcc0e44,,,,,,-55.99998939,94.39999497,1,0,0,response7disk,0.56,-7.199988663,5.599993646,1,0,0,rectangle,-7.199988663,5.599993646,1,0,0,3,-4,"[25,20,60,106,144,47,38,85,105,153]",-7.199988663,5.599993646,1,0,0,1,57,138,69,1,Pink,Pink.jpg,DarkGreen,DarkGreen.jpg,,
,,,,,,,,,,,,,,,,,,4,,,,,,,,,,,,,,,,,,,,,,,,,,,5f8f58da2cacd91b623a815e,001,2021-12-17_24h05.21.314,jm_natural_scene_simialrity_2-12-2021_version2,2021.2.3,Win32,74.95128167,5f8f58da2cacd91b623a815e,61bbc5c79a1c66460f44041e,61bbc617e1fab6766dcc0e44,,,,,,36.00001198,99.99999505,1,0,0,response1disk,0.7064,-7.199988663,11.99999374,1,0,0,rectangle,-7.199988663,11.99999374,1,0,0,3,-3,"[25,20,60,106,144,47,38,85,105,153]",-7.199988663,11.99999374,1,0,0,1,58,139,17,1,LightGreen,LightGreen.jpg,LightGreen,LightGreen.jpg,,
,,,,,,,,,,,,,,,,,,-3,,,,,,,,,,,,,,,,,,,,,,,,,,,5f8f58da2cacd91b623a815e,001,2021-12-17_24h05.21.314,jm_natural_scene_simialrity_2-12-2021_version2,2021.2.3,Win32,74.95128167,5f8f58da2cacd91b623a815e,61bbc5c79a1c66460f44041e,61bbc617e1fab6766dcc0e44,,,,,,-91.99998993,35.9999941,1,0,0,response7disk,0.9867,-7.999988675,-4.000006497,1,0,0,rectangle,-7.999988675,-4.000006497,1,0,0,3,-2,"[25,20,60,106,144,47,38,85,105,153]",-7.999988675,-4.000006497,1,0,0,1,59,140,59,1,Purple,Purple.jpg,Yellow,Yellow.jpg,,
,,,,,,,,,,,,,,,,,,-4,,,,,,,,,,,,,,,,,,,,,,,,,,,5f8f58da2cacd91b623a815e,001,2021-12-17_24h05.21.314,jm_natural_scene_simialrity_2-12-2021_version2,2021.2.3,Win32,74.95128167,5f8f58da2cacd91b623a815e,61bbc5c79a1c66460f44041e,61bbc617e1fab6766dcc0e44,,,,,,-58.3999406,104.7999951,1,0,0,response7disk,0.7599,-10.39993988,10.39999372,1,0,0,rectangle,-10.39993988,10.39999372,1,0,0,3,-2,"[25,20,60,106,144,47,38,85,105,153]",-10.39993988,10.39999372,1,0,0,1,60,141,65,1,Purple,Purple.jpg,LightGreen,LightGreen.jpg,,
,,,,,,,,,,,,,,,,,,-4,,,,,,,,,,,,,,,,,,,,,,,,,,,5f8f58da2cacd91b623a815e,001,2021-12-17_24h05.21.314,jm_natural_scene_simialrity_2-12-2021_version2,2021.2.3,Win32,74.95128167,5f8f58da2cacd91b623a815e,61bbc5c79a1c66460f44041e,61bbc617e1fab6766dcc0e44,,,,,,-55.99998939,91.19997051,1,0,0,response7disk,0.6266,-5.599988639,3.19999361,1,0,0,rectangle,-5.599988639,3.19999361,1,0,0,3,-3,"[25,20,60,106,144,47,38,85,105,153]",-5.599988639,3.19999361,1,0,0,1,61,142,48,1,Turquiose,Turquiose.jpg,Red,Red.jpg,,
,,,,,,,,,,,,,,,,,,-3,,,,,,,,,,,,,,,,,,,,,,,,,,,5f8f58da2cacd91b623a815e,001,2021-12-17_24h05.21.314,jm_natural_scene_simialrity_2-12-2021_version2,2021.2.3,Win32,74.95128167,5f8f58da2cacd91b623a815e,61bbc5c79a1c66460f44041e,61bbc617e1fab6766dcc0e44,,,,,,-109.5999902,39.99999416,1,0,0,response7disk,0.8936,-7.199988663,-11.2000066,1,0,0,rectangle,-38.3999403,-123.2000083,1,0,0,-1,-1,"[25,20,60,106,144,47,38,85,105,153]",-4.799988627,20.79999387,1,0,0,1,62,143,71,1,LightBlue,LightBlue.jpg,Turquiose,Turquiose.jpg,response5disk_3,rectangle
,,,,,,,,,,,,,,,,,,3,,,,,,,,,,,,,,,,,,,,,,,,,,,5f8f58da2cacd91b623a815e,001,2021-12-17_24h05.21.314,jm_natural_scene_simialrity_2-12-2021_version2,2021.2.3,Win32,74.95128167,5f8f58da2cacd91b623a815e,61bbc5c79a1c66460f44041e,61bbc617e1fab6766dcc0e44,,,,,,85.60001272,32.79999405,1,0,0,response1disk,0.9729,-15.19998878,-5.600006521,1,0,0,rectangle,-15.19998878,-5.600006521,1,0,0,-1,2,"[25,20,60,106,144,47,38,85,105,153]",-15.19998878,-5.600006521,1,0,0,1,63,144,72,1,DarkBlue,DarkBlue.jpg,Turquiose,Turquiose.jpg,,
,,,,,,,,,,,,,,,,,,-4,,,,,,,,,,,,,,,,,,,,,,,,,,,5f8f58da2cacd91b623a815e,001,2021-12-17_24h05.21.314,jm_natural_scene_simialrity_2-12-2021_version2,2021.2.3,Win32,74.95128167,5f8f58da2cacd91b623a815e,61bbc5c79a1c66460f44041e,61bbc617e1fab6766dcc0e44,,,,,,-39.19998914,81.59999478,1,0,0,response7disk,0.8268,1.600060296,10.39999372,1,0,0,rectangle,1.600060296,10.39999372,1,0,0,-1,3,"[25,20,60,106,144,47,38,85,105,153]",1.600060296,10.39999372,1,0,0,1,64,145,11,1,Yellow,Yellow.jpg,DarkGreen,DarkGreen.jpg,,
,,,,,,,,,,,,,,,,,,-4,,,,,,,,,,,,,,,,,,,,,,,,,,,5f8f58da2cacd91b623a815e,001,2021-12-17_24h05.21.314,jm_natural_scene_simialrity_2-12-2021_version2,2021.2.3,Win32,74.95128167,5f8f58da2cacd91b623a815e,61bbc5c79a1c66460f44041e,61bbc617e1fab6766dcc0e44,,,,,,-55.99998939,77.59999472,1,0,0,response7disk,0.6399,-8.799988687,-4.800006509,1,0,0,rectangle,-8.799988687,-4.800006509,1,0,0,-1,-4,"[25,20,60,106,144,47,38,85,105,153]",-8.799988687,-4.800006509,1,0,0,1,65,146,6,1,Red,Red.jpg,DarkBlue,DarkBlue.jpg,,
,,,,,,,,,,,,,,,,,,-3,,,,,,,,,,,,,,,,,,,,,,,,,,,5f8f58da2cacd91b623a815e,001,2021-12-17_24h05.21.314,jm_natural_scene_simialrity_2-12-2021_version2,2021.2.3,Win32,74.95128167,5f8f58da2cacd91b623a815e,61bbc5c79a1c66460f44041e,61bbc617e1fab6766dcc0e44,,,,,,-89.59998989,29.599994,1,0,0,response7disk,0.7647,-2.399939764,-13.60000664,1,0,0,rectangle,-2.399939764,-13.60000664,1,0,0,-1,2,"[25,20,60,106,144,47,38,85,105,153]",-2.399939764,-13.60000664,1,0,0,1,66,147,33,1,Turquiose,Turquiose.jpg,Pink,Pink.jpg,,
,,,,,,,,,,,,,,,,,,2,,,,,,,,,,,,,,,,,,,,,,,,,,,5f8f58da2cacd91b623a815e,001,2021-12-17_24h05.21.314,jm_natural_scene_simialrity_2-12-2021_version2,2021.2.3,Win32,74.95128167,5f8f58da2cacd91b623a815e,61bbc5c79a1c66460f44041e,61bbc617e1fab6766dcc0e44,,,,,,81.60001266,-31.2000069,1,0,0,response3disk,1.1221,-13.59998876,-3.200006485,1,0,0,rectangle,-13.59998876,-3.200006485,1,0,0,-1,-2,"[25,20,60,106,144,47,38,85,105,153]",-13.59998876,-3.200006485,1,0,0,1,67,148,77,1,Purple,Purple.jpg,LightBlue,LightBlue.jpg,,
,,,,,,,,,,,,,,,,,,4,,,,,,,,,,,,,,,,,,,,,,,,,,,5f8f58da2cacd91b623a815e,001,2021-12-17_24h05.21.314,jm_natural_scene_simialrity_2-12-2021_version2,2021.2.3,Win32,74.95128167,5f8f58da2cacd91b623a815e,61bbc5c79a1c66460f44041e,61bbc617e1fab6766dcc0e44,,,,,,59.20001233,92.79999495,1,0,0,response1disk,0.8447,-3.999988616,-13.60000664,1,0,0,rectangle,-3.999988616,-13.60000664,1,0,0,-1,3,"[25,20,60,106,144,47,38,85,105,153]",-3.999988616,-13.60000664,1,0,0,1,68,149,0,1,Red,Red.jpg,Red,Red.jpg,,
,,,,,,,,,,,,,,,,,,-2,,,,,,,,,,,,,,,,,,,,,,,,,,,5f8f58da2cacd91b623a815e,001,2021-12-17_24h05.21.314,jm_natural_scene_simialrity_2-12-2021_version2,2021.2.3,Win32,74.95128167,5f8f58da2cacd91b623a815e,61bbc5c79a1c66460f44041e,61bbc617e1fab6766dcc0e44,,,,,,-103.9999901,-49.60000718,1,0,0,response5disk,0.765,22.40001178,6.399993658,1,0,0,rectangle,22.40001178,6.399993658,1,0,0,-1,-1,"[25,20,60,106,144,47,38,85,105,153]",22.40001178,6.399993658,1,0,0,1,69,150,50,1,DarkBlue,DarkBlue.jpg,Red,Red.jpg,,
,,,,,,,,,,,,,,,,,,-4,,,,,,,,,,,,,,,,,,,,,,,,,,,5f8f58da2cacd91b623a815e,001,2021-12-17_24h05.21.314,jm_natural_scene_simialrity_2-12-2021_version2,2021.2.3,Win32,74.95128167,5f8f58da2cacd91b623a815e,61bbc5c79a1c66460f44041e,61bbc617e1fab6766dcc0e44,,,,,,-56.7999894,81.59999478,1,0,0,response7disk,0.6663,-7.999988675,-6.4373E-06,1,0,0,rectangle,-7.999988675,-6.4373E-06,1,0,0,-1,-1,"[25,20,60,106,144,47,38,85,105,153]",-7.999988675,-6.4373E-06,1,0,0,1,70,151,52,1,Purple,Purple.jpg,Red,Red.jpg,,
,,,,,,,,,,,,,,,,,,-3,,,,,,,,,,,,,,,,,,,,,,,,,,,5f8f58da2cacd91b623a815e,001,2021-12-17_24h05.21.314,jm_natural_scene_simialrity_2-12-2021_version2,2021.2.3,Win32,74.95128167,5f8f58da2cacd91b623a815e,61bbc5c79a1c66460f44041e,61bbc617e1fab6766dcc0e44,,,,,,-75.99998969,47.99999428,1,0,0,response7disk,0.8046,-7.199988663,6.399993658,1,0,0,rectangle,-99.99999005,-40.00000703,1,0,0,-1,-2,"[25,20,60,106,144,47,38,85,105,153]",-2.399939764,3.19999361,1,0,0,1,71,152,40,1,DarkBlue,DarkBlue.jpg,Pink,Pink.jpg,response5disk_3,rectangle
,,,,,,,,,,,,,,,,,,-2,,,,,,,,,,,,,,,,,,,,,,,,,,,5f8f58da2cacd91b623a815e,001,2021-12-17_24h05.21.314,jm_natural_scene_simialrity_2-12-2021_version2,2021.2.3,Win32,74.95128167,5f8f58da2cacd91b623a815e,61bbc5c79a1c66460f44041e,61bbc617e1fab6766dcc0e44,,,,,,-83.99998981,-61.60000736,1,0,0,response5disk,1.205,-7.999988675,1.599993587,1,0,0,rectangle,-7.999988675,1.599993587,1,0,0,-1,-2,"[25,20,60,106,144,47,38,85,105,153]",-7.999988675,1.599993587,1,0,0,1,72,153,61,1,Turquiose,Turquiose.jpg,LightGreen,LightGreen.jpg,,
,,,,,,,,,,,,,,,,,,-2,,,,,,,,,,,,,,,,,,,,,,,,,,,5f8f58da2cacd91b623a815e,001,2021-12-17_24h05.21.314,jm_natural_scene_simialrity_2-12-2021_version2,2021.2.3,Win32,74.95128167,5f8f58da2cacd91b623a815e,61bbc5c79a1c66460f44041e,61bbc617e1fab6766dcc0e44,,,,,,-131.9999905,-40.00000703,1,0,0,response5disk,0.7329,-21.59998888,10.39999372,1,0,0,rectangle,-21.59998888,10.39999372,1,0,0,-1,-1,"[25,20,60,106,144,47,38,85,105,153]",-21.59998888,10.39999372,1,0,0,1,73,154,62,1,LightBlue,LightBlue.jpg,LightGreen,LightGreen.jpg,,
,,,,,,,,,,,,,,,,,,-3,,,,,,,,,,,,,,,,,,,,,,,,,,,5f8f58da2cacd91b623a815e,001,2021-12-17_24h05.21.314,jm_natural_scene_simialrity_2-12-2021_version2,2021.2.3,Win32,74.95128167,5f8f58da2cacd91b623a815e,61bbc5c79a1c66460f44041e,61bbc617e1fab6766dcc0e44,,,,,,-95.99998999,52.79999435,1,0,0,response7disk,0.7466,-5.599988639,3.999993622,1,0,0,rectangle,-5.599988639,3.999993622,1,0,0,-1,1,"[25,20,60,106,144,47,38,85,105,153]",-5.599988639,3.999993622,1,0,0,1,74,155,63,1,DarkBlue,DarkBlue.jpg,LightGreen,LightGreen.jpg,,
,,,,,,,,,,,,,,,,,,-3,,,,,,,,,,,,,,,,,,,,,,,,,,,5f8f58da2cacd91b623a815e,001,2021-12-17_24h05.21.314,jm_natural_scene_simialrity_2-12-2021_version2,2021.2.3,Win32,74.95128167,5f8f58da2cacd91b623a815e,61bbc5c79a1c66460f44041e,61bbc617e1fab6766dcc0e44,,,,,,-71.19998962,43.19996979,1,0,0,response7disk,0.8664,-4.799988627,7.19999367,1,0,0,rectangle,-4.799988627,7.19999367,1,0,0,-1,2,"[25,20,60,106,144,47,38,85,105,153]",-4.799988627,7.19999367,1,0,0,1,75,156,8,1,Red,Red.jpg,Purple,Purple.jpg,,
,,,,,,,,,,,,,,,,,,-4,,,,,,,,,,,,,,,,,,,,,,,,,,,5f8f58da2cacd91b623a815e,001,2021-12-17_24h05.21.314,jm_natural_scene_simialrity_2-12-2021_version2,2021.2.3,Win32,74.95128167,5f8f58da2cacd91b623a815e,61bbc5c79a1c66460f44041e,61bbc617e1fab6766dcc0e44,,,,,,-48.79998928,91.99999493,1,0,0,response7disk,0.7158,-3.999988616,7.999993682,1,0,0,rectangle,-3.999988616,7.999993682,1,0,0,-1,-1,"[25,20,60,106,144,47,38,85,105,153]",-3.999988616,7.999993682,1,0,0,1,76,157,23,1,LightGreen,LightGreen.jpg,Purple,Purple.jpg,,
,,,,,,,,,,,,,,,,,,2,,,,,,,,,,,,,,,,,,,,,,,,,,,5f8f58da2cacd91b623a815e,001,2021-12-17_24h05.21.314,jm_natural_scene_simialrity_2-12-2021_version2,2021.2.3,Win32,74.95128167,5f8f58da2cacd91b623a815e,61bbc5c79a1c66460f44041e,61bbc617e1fab6766dcc0e44,,,,,,76.80001259,-34.40000695,1,0,0,response3disk,1.1071,7.200011551,-1.600006461,1,0,0,rectangle,7.200011551,-1.600006461,1,0,0,-1,3,"[25,20,60,106,144,47,38,85,105,153]",7.200011551,-1.600006461,1,0,0,1,77,158,75,1,DarkBlue,DarkBlue.jpg,LightBlue,LightBlue.jpg,,
,,,,,,,,,,,,,,,,,,3,,,,,,,,,,,,,,,,,,,,,,,,,,,5f8f58da2cacd91b623a815e,001,2021-12-17_24h05.21.314,jm_natural_scene_simialrity_2-12-2021_version2,2021.2.3,Win32,74.95128167,5f8f58da2cacd91b623a815e,61bbc5c79a1c66460f44041e,61bbc617e1fab6766dcc0e44,,,,,,111.2000131,39.19996973,1,0,0,response1disk,1.4407,8.000011563,3.999993622,1,0,0,rectangle,8.000011563,3.999993622,1,0,0,-1,-2,"[25,20,60,106,144,47,38,85,105,153]",8.000011563,3.999993622,1,0,0,1,78,159,60,1,DarkGreen,DarkGreen.jpg,LightGreen,LightGreen.jpg,,
,,,,,,,,,,,,,,,,,,3,,,,,,,,,,,,,,,,,,,,,,,,,,,5f8f58da2cacd91b623a815e,001,2021-12-17_24h05.21.314,jm_natural_scene_simialrity_2-12-2021_version2,2021.2.3,Win32,74.95128167,5f8f58da2cacd91b623a815e,61bbc5c79a1c66460f44041e,61bbc617e1fab6766dcc0e44,,,,,,100.0000129,47.99999428,1,0,0,response1disk,0.9206,-20.79998887,-6.4373E-06,1,0,0,rectangle,-20.79998887,-6.4373E-06,1,0,0,-1,3,"[25,20,60,106,144,47,38,85,105,153]",-20.79998887,-6.4373E-06,1,0,0,1,79,160,7,1,Red,Red.jpg,Pink,Pink.jpg,,
,,,,,,,,,,,,,,,,,,3,,,,,,,,,,,,,,,,,,,,,,,,,,,5f8f58da2cacd91b623a815e,001,2021-12-17_24h05.21.314,jm_natural_scene_simialrity_2-12-2021_version2,2021.2.3,Win32,74.95128167,5f8f58da2cacd91b623a815e,61bbc5c79a1c66460f44041e,61bbc617e1fab6766dcc0e44,,,,,,72.80001253,28.79999399,1,0,0,response1disk,1.0492,-14.39993994,-4.000006497,1,0,0,rectangle,-14.39993994,-4.000006497,1,0,0,-1,-2,"[25,20,60,106,144,47,38,85,105,153]",-14.39993994,-4.000006497,1,0,0,1,80,161,16,1,Yellow,Yellow.jpg,Purple,Purple.jpg,,
