key_resp.keys,key_resp.rt,key_resp_16.keys,key_resp_16.rt,key_resp_2.keys,key_resp_2.rt,key_resp_3.keys,key_resp_3.rt,key_resp_19.keys,key_resp_19.rt,key_resp_10.keys,key_resp_10.rt,mouse_prac.x,mouse_prac.y,mouse_prac.leftButton,mouse_prac.midButton,mouse_prac.rightButton,mouse_prac.clicked_name,similarity,mouse_10.x,mouse_10.y,mouse_10.leftButton,mouse_10.midButton,mouse_10.rightButton,mouse_10.clicked_name,mouse_catch_prac.x,mouse_catch_prac.y,mouse_catch_prac.leftButton,mouse_catch_prac.midButton,mouse_catch_prac.rightButton,mouse_catch_prac.clicked_name,catchprac,catchnumberprac,mouse_6.x,mouse_6.y,mouse_6.leftButton,mouse_6.midButton,mouse_6.rightButton,mouse_6.clicked_name,during_prac.thisRepN,during_prac.thisTrialN,during_prac.thisN,during_prac.thisIndex,during_prac.ran,trailimage1,trial1adress,trailimage2,trial2adress,participant,session,date,expName,psychopyVersion,OS,frameRate,PROLIFIC_PID,STUDY_ID,SESSION_ID,key_resp_22.keys,key_resp_22.rt,mouse.x,mouse.y,mouse.leftButton,mouse.midButton,mouse.rightButton,mouse.clicked_name,response_time,mouse_2.x,mouse_2.y,mouse_2.leftButton,mouse_2.midButton,mouse_2.rightButton,mouse_2.clicked_name,mouse_3.x,mouse_3.y,mouse_3.leftButton,mouse_3.midButton,mouse_3.rightButton,catchresponse,catchnumber,catchtrialorder,mouse_11.x,mouse_11.y,mouse_11.leftButton,mouse_11.midButton,mouse_11.rightButton,trials_2.thisRepN,trials_2.thisTrialN,trials_2.thisN,trials_2.thisIndex,trials_2.ran,image1,image1adress,image2,image2adress,mouse_3.clicked_name,mouse_11.clicked_name
space,2.343,space,23.74,space,4.335,space,21.942,space,1.391,space,8.521,-110,-109,1,0,0,response5disk_5,-2,-3,-2,1,0,0,rectangle_8,43,-68,1,0,0,response3disk_7,1,2,-9,2,1,0,0,rectangle_4,0,0,0,1,1,trail1,trail1.jpg,trail2,trail2.jpg,60130bd289b4b215f94d9979,001,2021-12-16_23h05.12.872,jm_natural_scene_simialrity_2-12-2021_version2,2021.2.3,Win32,60.0240096,60130bd289b4b215f94d9979,61bbc5c79a1c66460f44041e,61bbc60efc06e4a85c9dadff,,,,,,,,,,,,,,,,,,,,,,,,,,,,,,,,,,,,,,,
,,,,,,,,,,,,-51,-98,1,0,0,response5disk_5,-1,-13,-1,1,0,0,rectangle_8,-13,-1,1,0,0,,,2,-13,-1,1,0,0,,0,1,1,3,1,trail2,trail2.jpg,trail2,trail2.jpg,60130bd289b4b215f94d9979,001,2021-12-16_23h05.12.872,jm_natural_scene_simialrity_2-12-2021_version2,2021.2.3,Win32,60.0240096,60130bd289b4b215f94d9979,61bbc5c79a1c66460f44041e,61bbc60efc06e4a85c9dadff,,,,,,,,,,,,,,,,,,,,,,,,,,,,,,,,,,,,,,,
,,,,,,,,,,,,78,-38,1,0,0,response3disk_5,2,6,-9,1,0,0,rectangle_8,6,-9,1,0,0,,,2,6,-9,1,0,0,,0,2,2,5,1,trail3,trail3.jpg,trail3,trail3.jpg,60130bd289b4b215f94d9979,001,2021-12-16_23h05.12.872,jm_natural_scene_simialrity_2-12-2021_version2,2021.2.3,Win32,60.0240096,60130bd289b4b215f94d9979,61bbc5c79a1c66460f44041e,61bbc60efc06e4a85c9dadff,,,,,,,,,,,,,,,,,,,,,,,,,,,,,,,,,,,,,,,
,,,,,,,,,,,,-78,-30,1,0,0,response5disk_5,-2,5,3,1,0,0,rectangle_8,116,-65,1,0,0,response3disk_7,2,2,-8,-12,1,0,0,rectangle_4,0,3,3,0,1,trail1,trail1.jpg,trail1,trail1.jpg,60130bd289b4b215f94d9979,001,2021-12-16_23h05.12.872,jm_natural_scene_simialrity_2-12-2021_version2,2021.2.3,Win32,60.0240096,60130bd289b4b215f94d9979,61bbc5c79a1c66460f44041e,61bbc60efc06e4a85c9dadff,,,,,,,,,,,,,,,,,,,,,,,,,,,,,,,,,,,,,,,
,,,,,,,,,,,,-77,-32,1,0,0,response5disk_5,-2,-6,-10,1,0,0,rectangle_8,-6,-10,1,0,0,,,2,-6,-10,1,0,0,,0,4,4,4,1,trail2,trail2.jpg,trail3,trail3.jpg,60130bd289b4b215f94d9979,001,2021-12-16_23h05.12.872,jm_natural_scene_simialrity_2-12-2021_version2,2021.2.3,Win32,60.0240096,60130bd289b4b215f94d9979,61bbc5c79a1c66460f44041e,61bbc60efc06e4a85c9dadff,,,,,,,,,,,,,,,,,,,,,,,,,,,,,,,,,,,,,,,
,,,,,,,,,,,,84,36,1,0,0,response1disk_5,3,-10,3,1,0,0,rectangle_8,-10,3,1,0,0,,,2,-10,3,1,0,0,,0,5,5,2,1,trail1,trail1.jpg,trail3,trail3.jpg,60130bd289b4b215f94d9979,001,2021-12-16_23h05.12.872,jm_natural_scene_simialrity_2-12-2021_version2,2021.2.3,Win32,60.0240096,60130bd289b4b215f94d9979,61bbc5c79a1c66460f44041e,61bbc60efc06e4a85c9dadff,,,,,,,,,,,,,,,,,,,,,,,,,,,,,,,,,,,,,,,
,,,,,,,,,,,,,,,,,,3,,,,,,,,,,,,,,,,,,,,,,,,,,,,,,60130bd289b4b215f94d9979,001,2021-12-16_23h05.12.872,jm_natural_scene_simialrity_2-12-2021_version2,2021.2.3,Win32,60.0240096,60130bd289b4b215f94d9979,61bbc5c79a1c66460f44041e,61bbc60efc06e4a85c9dadff,space,1.772,85,54,1,0,0,response1disk,5.02,1,2,1,0,0,rectangle,1,2,1,0,0,,2,"[91,158,156,16,77,68,17,144,46,83]",1,2,1,0,0,0,0,0,61,1,Turquiose,Turquiose.jpg,LightGreen,LightGreen.jpg,,
,,,,,,,,,,,,,,,,,,3,,,,,,,,,,,,,,,,,,,,,,,,,,,,,,60130bd289b4b215f94d9979,001,2021-12-16_23h05.12.872,jm_natural_scene_simialrity_2-12-2021_version2,2021.2.3,Win32,60.0240096,60130bd289b4b215f94d9979,61bbc5c79a1c66460f44041e,61bbc60efc06e4a85c9dadff,,,84,36,1,0,0,response1disk,1.317,-6,3,1,0,0,rectangle,-6,3,1,0,0,,-1,"[91,158,156,16,77,68,17,144,46,83]",-6,3,1,0,0,0,1,1,54,1,DarkGreen,DarkGreen.jpg,Yellow,Yellow.jpg,,
,,,,,,,,,,,,,,,,,,4,,,,,,,,,,,,,,,,,,,,,,,,,,,,,,60130bd289b4b215f94d9979,001,2021-12-16_23h05.12.872,jm_natural_scene_simialrity_2-12-2021_version2,2021.2.3,Win32,60.0240096,60130bd289b4b215f94d9979,61bbc5c79a1c66460f44041e,61bbc60efc06e4a85c9dadff,,,53,87,1,0,0,response1disk,1.483,-16,10,1,0,0,rectangle,-16,10,1,0,0,,3,"[91,158,156,16,77,68,17,144,46,83]",-16,10,1,0,0,0,2,2,16,1,Yellow,Yellow.jpg,Purple,Purple.jpg,,
,,,,,,,,,,,,,,,,,,2,,,,,,,,,,,,,,,,,,,,,,,,,,,,,,60130bd289b4b215f94d9979,001,2021-12-16_23h05.12.872,jm_natural_scene_simialrity_2-12-2021_version2,2021.2.3,Win32,60.0240096,60130bd289b4b215f94d9979,61bbc5c79a1c66460f44041e,61bbc60efc06e4a85c9dadff,,,102,-53,1,0,0,response3disk,1.634,4,11,1,0,0,rectangle,4,11,1,0,0,,1,"[91,158,156,16,77,68,17,144,46,83]",4,11,1,0,0,0,3,3,77,1,Purple,Purple.jpg,LightBlue,LightBlue.jpg,,
,,,,,,,,,,,,,,,,,,4,,,,,,,,,,,,,,,,,,,,,,,,,,,,,,60130bd289b4b215f94d9979,001,2021-12-16_23h05.12.872,jm_natural_scene_simialrity_2-12-2021_version2,2021.2.3,Win32,60.0240096,60130bd289b4b215f94d9979,61bbc5c79a1c66460f44041e,61bbc60efc06e4a85c9dadff,,,34,89,1,0,0,response1disk,1.733,5,17,1,0,0,rectangle,5,17,1,0,0,,-1,"[91,158,156,16,77,68,17,144,46,83]",5,17,1,0,0,0,4,4,26,1,DarkGreen,DarkGreen.jpg,LightBlue,LightBlue.jpg,,
,,,,,,,,,,,,,,,,,,-4,,,,,,,,,,,,,,,,,,,,,,,,,,,,,,60130bd289b4b215f94d9979,001,2021-12-16_23h05.12.872,jm_natural_scene_simialrity_2-12-2021_version2,2021.2.3,Win32,60.0240096,60130bd289b4b215f94d9979,61bbc5c79a1c66460f44041e,61bbc60efc06e4a85c9dadff,,,-83,113,1,0,0,response7disk,4.803,4,-1,1,0,0,rectangle,4,-1,1,0,0,,-4,"[91,158,156,16,77,68,17,144,46,83]",4,-1,1,0,0,0,5,5,69,1,Pink,Pink.jpg,DarkGreen,DarkGreen.jpg,,
,,,,,,,,,,,,,,,,,,-3,,,,,,,,,,,,,,,,,,,,,,,,,,,,,,60130bd289b4b215f94d9979,001,2021-12-16_23h05.12.872,jm_natural_scene_simialrity_2-12-2021_version2,2021.2.3,Win32,60.0240096,60130bd289b4b215f94d9979,61bbc5c79a1c66460f44041e,61bbc60efc06e4a85c9dadff,,,-105,39,1,0,0,response7disk,2.135,0,9,1,0,0,rectangle,0,9,1,0,0,,1,"[91,158,156,16,77,68,17,144,46,83]",0,9,1,0,0,0,6,6,5,1,Red,Red.jpg,LightBlue,LightBlue.jpg,,
,,,,,,,,,,,,,,,,,,-2,,,,,,,,,,,,,,,,,,,,,,,,,,,,,,60130bd289b4b215f94d9979,001,2021-12-16_23h05.12.872,jm_natural_scene_simialrity_2-12-2021_version2,2021.2.3,Win32,60.0240096,60130bd289b4b215f94d9979,61bbc5c79a1c66460f44041e,61bbc60efc06e4a85c9dadff,,,-87,-34,1,0,0,response5disk,4.619,1,22,1,0,0,rectangle,1,22,1,0,0,,-4,"[91,158,156,16,77,68,17,144,46,83]",1,22,1,0,0,0,7,7,43,1,Pink,Pink.jpg,Purple,Purple.jpg,,
,,,,,,,,,,,,,,,,,,4,,,,,,,,,,,,,,,,,,,,,,,,,,,,,,60130bd289b4b215f94d9979,001,2021-12-16_23h05.12.872,jm_natural_scene_simialrity_2-12-2021_version2,2021.2.3,Win32,60.0240096,60130bd289b4b215f94d9979,61bbc5c79a1c66460f44041e,61bbc60efc06e4a85c9dadff,,,65,124,1,0,0,response1disk,2.368,14,5,1,0,0,rectangle,14,5,1,0,0,,-4,"[91,158,156,16,77,68,17,144,46,83]",14,5,1,0,0,0,8,8,0,1,Red,Red.jpg,Red,Red.jpg,,
,,,,,,,,,,,,,,,,,,-4,,,,,,,,,,,,,,,,,,,,,,,,,,,,,,60130bd289b4b215f94d9979,001,2021-12-16_23h05.12.872,jm_natural_scene_simialrity_2-12-2021_version2,2021.2.3,Win32,60.0240096,60130bd289b4b215f94d9979,61bbc5c79a1c66460f44041e,61bbc60efc06e4a85c9dadff,,,-42,99,1,0,0,response7disk,1.853,-1,4,1,0,0,rectangle,-1,4,1,0,0,,-4,"[91,158,156,16,77,68,17,144,46,83]",-1,4,1,0,0,0,9,9,28,1,DarkGreen,DarkGreen.jpg,Pink,Pink.jpg,,
,,,,,,,,,,,,,,,,,,-1,,,,,,,,,,,,,,,,,,,,,,,,,,,,,,60130bd289b4b215f94d9979,001,2021-12-16_23h05.12.872,jm_natural_scene_simialrity_2-12-2021_version2,2021.2.3,Win32,60.0240096,60130bd289b4b215f94d9979,61bbc5c79a1c66460f44041e,61bbc60efc06e4a85c9dadff,,,-72,-106,1,0,0,response5disk,2.668,-5,-4,1,0,0,rectangle,-5,-4,1,0,0,,3,"[91,158,156,16,77,68,17,144,46,83]",-5,-4,1,0,0,0,10,10,32,1,Turquiose,Turquiose.jpg,DarkBlue,DarkBlue.jpg,,
,,,,,,,,,,,,,,,,,,-1,,,,,,,,,,,,,,,,,,,,,,,,,,,,,,60130bd289b4b215f94d9979,001,2021-12-16_23h05.12.872,jm_natural_scene_simialrity_2-12-2021_version2,2021.2.3,Win32,60.0240096,60130bd289b4b215f94d9979,61bbc5c79a1c66460f44041e,61bbc60efc06e4a85c9dadff,,,-40,-110,1,0,0,response5disk,0.952,-21,7,1,0,0,rectangle,-21,7,1,0,0,,-1,"[91,158,156,16,77,68,17,144,46,83]",-21,7,1,0,0,0,11,11,33,1,Turquiose,Turquiose.jpg,Pink,Pink.jpg,,
,,,,,,,,,,,,,,,,,,-4,,,,,,,,,,,,,,,,,,,,,,,,,,,,,,60130bd289b4b215f94d9979,001,2021-12-16_23h05.12.872,jm_natural_scene_simialrity_2-12-2021_version2,2021.2.3,Win32,60.0240096,60130bd289b4b215f94d9979,61bbc5c79a1c66460f44041e,61bbc60efc06e4a85c9dadff,,,-29,69,1,0,0,response7disk,1.484,-10,2,1,0,0,rectangle,-10,2,1,0,0,,-4,"[91,158,156,16,77,68,17,144,46,83]",-10,2,1,0,0,0,12,12,52,1,Purple,Purple.jpg,Red,Red.jpg,,
,,,,,,,,,,,,,,,,,,-3,,,,,,,,,,,,,,,,,,,,,,,,,,,,,,60130bd289b4b215f94d9979,001,2021-12-16_23h05.12.872,jm_natural_scene_simialrity_2-12-2021_version2,2021.2.3,Win32,60.0240096,60130bd289b4b215f94d9979,61bbc5c79a1c66460f44041e,61bbc60efc06e4a85c9dadff,,,-58,23,1,0,0,response7disk,1.918,-12,-8,1,0,0,rectangle,-12,-8,1,0,0,,3,"[91,158,156,16,77,68,17,144,46,83]",-12,-8,1,0,0,0,13,13,76,1,Pink,Pink.jpg,LightBlue,LightBlue.jpg,,
,,,,,,,,,,,,,,,,,,-4,,,,,,,,,,,,,,,,,,,,,,,,,,,,,,60130bd289b4b215f94d9979,001,2021-12-16_23h05.12.872,jm_natural_scene_simialrity_2-12-2021_version2,2021.2.3,Win32,60.0240096,60130bd289b4b215f94d9979,61bbc5c79a1c66460f44041e,61bbc60efc06e4a85c9dadff,,,-59,83,1,0,0,response7disk,1.584,-4,2,1,0,0,rectangle,-4,2,1,0,0,,1,"[91,158,156,16,77,68,17,144,46,83]",-4,2,1,0,0,0,14,14,71,1,LightBlue,LightBlue.jpg,Turquiose,Turquiose.jpg,,
,,,,,,,,,,,,,,,,,,-4,,,,,,,,,,,,,,,,,,,,,,,,,,,,,,60130bd289b4b215f94d9979,001,2021-12-16_23h05.12.872,jm_natural_scene_simialrity_2-12-2021_version2,2021.2.3,Win32,60.0240096,60130bd289b4b215f94d9979,61bbc5c79a1c66460f44041e,61bbc60efc06e4a85c9dadff,,,-24,59,1,0,0,response7disk,0.817,7,7,1,0,0,rectangle,30,-86,1,0,0,1,1,"[91,158,156,16,77,68,17,144,46,83]",-16,13,1,0,0,0,15,15,59,1,Purple,Purple.jpg,Yellow,Yellow.jpg,response3disk_3,rectangle
,,,,,,,,,,,,,,,,,,4,,,,,,,,,,,,,,,,,,,,,,,,,,,,,,60130bd289b4b215f94d9979,001,2021-12-16_23h05.12.872,jm_natural_scene_simialrity_2-12-2021_version2,2021.2.3,Win32,60.0240096,60130bd289b4b215f94d9979,61bbc5c79a1c66460f44041e,61bbc60efc06e4a85c9dadff,,,53,99,1,0,0,response1disk,1.886,-1,-4,1,0,0,rectangle,-60,-97,1,0,0,-1,-1,"[91,158,156,16,77,68,17,144,46,83]",-6,-11,1,0,0,0,16,16,24,1,DarkGreen,DarkGreen.jpg,DarkGreen,DarkGreen.jpg,response5disk_3,rectangle
,,,,,,,,,,,,,,,,,,-4,,,,,,,,,,,,,,,,,,,,,,,,,,,,,,60130bd289b4b215f94d9979,001,2021-12-16_23h05.12.872,jm_natural_scene_simialrity_2-12-2021_version2,2021.2.3,Win32,60.0240096,60130bd289b4b215f94d9979,61bbc5c79a1c66460f44041e,61bbc60efc06e4a85c9dadff,,,-72,80,1,0,0,response7disk,2.119,-8,2,1,0,0,rectangle,-8,2,1,0,0,-1,-2,"[91,158,156,16,77,68,17,144,46,83]",-8,2,1,0,0,0,17,17,38,1,LightBlue,LightBlue.jpg,Purple,Purple.jpg,,
,,,,,,,,,,,,,,,,,,-4,,,,,,,,,,,,,,,,,,,,,,,,,,,,,,60130bd289b4b215f94d9979,001,2021-12-16_23h05.12.872,jm_natural_scene_simialrity_2-12-2021_version2,2021.2.3,Win32,60.0240096,60130bd289b4b215f94d9979,61bbc5c79a1c66460f44041e,61bbc60efc06e4a85c9dadff,,,-69,90,1,0,0,response7disk,7.02,-23,18,1,0,0,rectangle,-23,18,1,0,0,-3,2,"[91,158,156,16,77,68,17,144,46,83]",-23,18,1,0,0,0,18,18,55,1,Turquiose,Turquiose.jpg,Yellow,Yellow.jpg,,
,,,,,,,,,,,,,,,,,,-4,,,,,,,,,,,,,,,,,,,,,,,,,,,,,,60130bd289b4b215f94d9979,001,2021-12-16_23h05.12.872,jm_natural_scene_simialrity_2-12-2021_version2,2021.2.3,Win32,60.0240096,60130bd289b4b215f94d9979,61bbc5c79a1c66460f44041e,61bbc60efc06e4a85c9dadff,,,-30,69,1,0,0,response7disk,0.749,-9,-3,1,0,0,rectangle,-9,-3,1,0,0,-3,1,"[91,158,156,16,77,68,17,144,46,83]",-9,-3,1,0,0,0,19,19,64,1,Pink,Pink.jpg,LightGreen,LightGreen.jpg,,
,,,,,,,,,,,,,,,,,,-3,,,,,,,,,,,,,,,,,,,,,,,,,,,,,,60130bd289b4b215f94d9979,001,2021-12-16_23h05.12.872,jm_natural_scene_simialrity_2-12-2021_version2,2021.2.3,Win32,60.0240096,60130bd289b4b215f94d9979,61bbc5c79a1c66460f44041e,61bbc60efc06e4a85c9dadff,,,-104,28,1,0,0,response7disk,0.967,-6,5,1,0,0,rectangle,-6,5,1,0,0,-3,-2,"[91,158,156,16,77,68,17,144,46,83]",-6,5,1,0,0,0,20,20,8,1,Red,Red.jpg,Purple,Purple.jpg,,
,,,,,,,,,,,,,,,,,,-3,,,,,,,,,,,,,,,,,,,,,,,,,,,,,,60130bd289b4b215f94d9979,001,2021-12-16_23h05.12.872,jm_natural_scene_simialrity_2-12-2021_version2,2021.2.3,Win32,60.0240096,60130bd289b4b215f94d9979,61bbc5c79a1c66460f44041e,61bbc60efc06e4a85c9dadff,,,-82,43,1,0,0,response7disk,1.25,-5,-1,1,0,0,rectangle,-5,-1,1,0,0,-3,-2,"[91,158,156,16,77,68,17,144,46,83]",-5,-1,1,0,0,0,21,21,36,1,LightBlue,LightBlue.jpg,DarkBlue,DarkBlue.jpg,,
,,,,,,,,,,,,,,,,,,2,,,,,,,,,,,,,,,,,,,,,,,,,,,,,,60130bd289b4b215f94d9979,001,2021-12-16_23h05.12.872,jm_natural_scene_simialrity_2-12-2021_version2,2021.2.3,Win32,60.0240096,60130bd289b4b215f94d9979,61bbc5c79a1c66460f44041e,61bbc60efc06e4a85c9dadff,,,120,-47,1,0,0,response3disk,1.803,-9,-4,1,0,0,rectangle,-9,-4,1,0,0,-3,-3,"[91,158,156,16,77,68,17,144,46,83]",-9,-4,1,0,0,0,22,22,60,1,DarkGreen,DarkGreen.jpg,LightGreen,LightGreen.jpg,,
,,,,,,,,,,,,,,,,,,-3,,,,,,,,,,,,,,,,,,,,,,,,,,,,,,60130bd289b4b215f94d9979,001,2021-12-16_23h05.12.872,jm_natural_scene_simialrity_2-12-2021_version2,2021.2.3,Win32,60.0240096,60130bd289b4b215f94d9979,61bbc5c79a1c66460f44041e,61bbc60efc06e4a85c9dadff,,,-48,36,1,0,0,response7disk,0.835,-3,12,1,0,0,rectangle,-3,12,1,0,0,-3,3,"[91,158,156,16,77,68,17,144,46,83]",-3,12,1,0,0,0,23,23,29,1,DarkGreen,DarkGreen.jpg,Purple,Purple.jpg,,
,,,,,,,,,,,,,,,,,,-4,,,,,,,,,,,,,,,,,,,,,,,,,,,,,,60130bd289b4b215f94d9979,001,2021-12-16_23h05.12.872,jm_natural_scene_simialrity_2-12-2021_version2,2021.2.3,Win32,60.0240096,60130bd289b4b215f94d9979,61bbc5c79a1c66460f44041e,61bbc60efc06e4a85c9dadff,,,-34,72,1,0,0,response7disk,0.783,2,8,1,0,0,rectangle,2,8,1,0,0,-3,-4,"[91,158,156,16,77,68,17,144,46,83]",2,8,1,0,0,0,24,24,15,1,Yellow,Yellow.jpg,Pink,Pink.jpg,,
,,,,,,,,,,,,,,,,,,-4,,,,,,,,,,,,,,,,,,,,,,,,,,,,,,60130bd289b4b215f94d9979,001,2021-12-16_23h05.12.872,jm_natural_scene_simialrity_2-12-2021_version2,2021.2.3,Win32,60.0240096,60130bd289b4b215f94d9979,61bbc5c79a1c66460f44041e,61bbc60efc06e4a85c9dadff,,,-52,66,1,0,0,response7disk,0.784,-10,15,1,0,0,rectangle,-10,15,1,0,0,-3,3,"[91,158,156,16,77,68,17,144,46,83]",-10,15,1,0,0,0,25,25,74,1,Purple,Purple.jpg,Turquiose,Turquiose.jpg,,
,,,,,,,,,,,,,,,,,,4,,,,,,,,,,,,,,,,,,,,,,,,,,,,,,60130bd289b4b215f94d9979,001,2021-12-16_23h05.12.872,jm_natural_scene_simialrity_2-12-2021_version2,2021.2.3,Win32,60.0240096,60130bd289b4b215f94d9979,61bbc5c79a1c66460f44041e,61bbc60efc06e4a85c9dadff,,,73,85,1,0,0,response1disk,1.418,13,-9,1,0,0,rectangle,13,-9,1,0,0,-3,-1,"[91,158,156,16,77,68,17,144,46,83]",13,-9,1,0,0,0,26,26,44,1,Purple,Purple.jpg,Purple,Purple.jpg,,
,,,,,,,,,,,,,,,,,,-3,,,,,,,,,,,,,,,,,,,,,,,,,,,,,,60130bd289b4b215f94d9979,001,2021-12-16_23h05.12.872,jm_natural_scene_simialrity_2-12-2021_version2,2021.2.3,Win32,60.0240096,60130bd289b4b215f94d9979,61bbc5c79a1c66460f44041e,61bbc60efc06e4a85c9dadff,,,-76,35,1,0,0,response7disk,1.201,-2,-7,1,0,0,rectangle,-2,-7,1,0,0,-3,-2,"[91,158,156,16,77,68,17,144,46,83]",-2,-7,1,0,0,0,27,27,37,1,LightBlue,LightBlue.jpg,Pink,Pink.jpg,,
,,,,,,,,,,,,,,,,,,-2,,,,,,,,,,,,,,,,,,,,,,,,,,,,,,60130bd289b4b215f94d9979,001,2021-12-16_23h05.12.872,jm_natural_scene_simialrity_2-12-2021_version2,2021.2.3,Win32,60.0240096,60130bd289b4b215f94d9979,61bbc5c79a1c66460f44041e,61bbc60efc06e4a85c9dadff,,,-40,-26,1,0,0,response5disk,0.651,-10,4,1,0,0,rectangle,-10,4,1,0,0,-3,1,"[91,158,156,16,77,68,17,144,46,83]",-10,4,1,0,0,0,28,28,31,1,Turquiose,Turquiose.jpg,LightBlue,LightBlue.jpg,,
,,,,,,,,,,,,,,,,,,-2,,,,,,,,,,,,,,,,,,,,,,,,,,,,,,60130bd289b4b215f94d9979,001,2021-12-16_23h05.12.872,jm_natural_scene_simialrity_2-12-2021_version2,2021.2.3,Win32,60.0240096,60130bd289b4b215f94d9979,61bbc5c79a1c66460f44041e,61bbc60efc06e4a85c9dadff,,,-48,-24,1,0,0,response5disk,0.784,-24,-8,1,0,0,rectangle,-24,-8,1,0,0,-3,-2,"[91,158,156,16,77,68,17,144,46,83]",-24,-8,1,0,0,0,29,29,75,1,DarkBlue,DarkBlue.jpg,LightBlue,LightBlue.jpg,,
,,,,,,,,,,,,,,,,,,-2,,,,,,,,,,,,,,,,,,,,,,,,,,,,,,60130bd289b4b215f94d9979,001,2021-12-16_23h05.12.872,jm_natural_scene_simialrity_2-12-2021_version2,2021.2.3,Win32,60.0240096,60130bd289b4b215f94d9979,61bbc5c79a1c66460f44041e,61bbc60efc06e4a85c9dadff,,,-59,-22,1,0,0,response5disk,0.633,-12,11,1,0,0,rectangle,-12,11,1,0,0,-3,-2,"[91,158,156,16,77,68,17,144,46,83]",-12,11,1,0,0,0,30,30,58,1,Pink,Pink.jpg,Yellow,Yellow.jpg,,
,,,,,,,,,,,,,,,,,,-3,,,,,,,,,,,,,,,,,,,,,,,,,,,,,,60130bd289b4b215f94d9979,001,2021-12-16_23h05.12.872,jm_natural_scene_simialrity_2-12-2021_version2,2021.2.3,Win32,60.0240096,60130bd289b4b215f94d9979,61bbc5c79a1c66460f44041e,61bbc60efc06e4a85c9dadff,,,-46,29,1,0,0,response7disk,0.651,3,-6,1,0,0,rectangle,3,-6,1,0,0,-3,-4,"[91,158,156,16,77,68,17,144,46,83]",3,-6,1,0,0,0,31,31,57,1,DarkBlue,DarkBlue.jpg,Yellow,Yellow.jpg,,
,,,,,,,,,,,,,,,,,,-3,,,,,,,,,,,,,,,,,,,,,,,,,,,,,,60130bd289b4b215f94d9979,001,2021-12-16_23h05.12.872,jm_natural_scene_simialrity_2-12-2021_version2,2021.2.3,Win32,60.0240096,60130bd289b4b215f94d9979,61bbc5c79a1c66460f44041e,61bbc60efc06e4a85c9dadff,,,-85,31,1,0,0,response7disk,0.733,-17,-4,1,0,0,rectangle,-17,-4,1,0,0,-3,2,"[91,158,156,16,77,68,17,144,46,83]",-17,-4,1,0,0,0,32,32,34,1,Turquiose,Turquiose.jpg,Purple,Purple.jpg,,
,,,,,,,,,,,,,,,,,,-3,,,,,,,,,,,,,,,,,,,,,,,,,,,,,,60130bd289b4b215f94d9979,001,2021-12-16_23h05.12.872,jm_natural_scene_simialrity_2-12-2021_version2,2021.2.3,Win32,60.0240096,60130bd289b4b215f94d9979,61bbc5c79a1c66460f44041e,61bbc60efc06e4a85c9dadff,,,-64,39,1,0,0,response7disk,0.617,0,-6,1,0,0,rectangle,0,-6,1,0,0,-3,2,"[91,158,156,16,77,68,17,144,46,83]",0,-6,1,0,0,0,33,33,63,1,DarkBlue,DarkBlue.jpg,LightGreen,LightGreen.jpg,,
,,,,,,,,,,,,,,,,,,-3,,,,,,,,,,,,,,,,,,,,,,,,,,,,,,60130bd289b4b215f94d9979,001,2021-12-16_23h05.12.872,jm_natural_scene_simialrity_2-12-2021_version2,2021.2.3,Win32,60.0240096,60130bd289b4b215f94d9979,61bbc5c79a1c66460f44041e,61bbc60efc06e4a85c9dadff,,,-44,28,1,0,0,response7disk,0.666,-2,-4,1,0,0,rectangle,-2,-4,1,0,0,-3,-2,"[91,158,156,16,77,68,17,144,46,83]",-2,-4,1,0,0,0,34,34,73,1,Pink,Pink.jpg,Turquiose,Turquiose.jpg,,
,,,,,,,,,,,,,,,,,,-3,,,,,,,,,,,,,,,,,,,,,,,,,,,,,,60130bd289b4b215f94d9979,001,2021-12-16_23h05.12.872,jm_natural_scene_simialrity_2-12-2021_version2,2021.2.3,Win32,60.0240096,60130bd289b4b215f94d9979,61bbc5c79a1c66460f44041e,61bbc60efc06e4a85c9dadff,,,-65,26,1,0,0,response7disk,0.683,6,-5,1,0,0,rectangle,6,-5,1,0,0,-3,-1,"[91,158,156,16,77,68,17,144,46,83]",6,-5,1,0,0,0,35,35,70,1,Purple,Purple.jpg,DarkGreen,DarkGreen.jpg,,
,,,,,,,,,,,,,,,,,,-3,,,,,,,,,,,,,,,,,,,,,,,,,,,,,,60130bd289b4b215f94d9979,001,2021-12-16_23h05.12.872,jm_natural_scene_simialrity_2-12-2021_version2,2021.2.3,Win32,60.0240096,60130bd289b4b215f94d9979,61bbc5c79a1c66460f44041e,61bbc60efc06e4a85c9dadff,,,-45,32,1,0,0,response7disk,0.634,-1,-9,1,0,0,rectangle,-1,-9,1,0,0,-3,-1,"[91,158,156,16,77,68,17,144,46,83]",-1,-9,1,0,0,0,36,36,21,1,LightGreen,LightGreen.jpg,DarkBlue,DarkBlue.jpg,,
,,,,,,,,,,,,,,,,,,2,,,,,,,,,,,,,,,,,,,,,,,,,,,,,,60130bd289b4b215f94d9979,001,2021-12-16_23h05.12.872,jm_natural_scene_simialrity_2-12-2021_version2,2021.2.3,Win32,60.0240096,60130bd289b4b215f94d9979,61bbc5c79a1c66460f44041e,61bbc60efc06e4a85c9dadff,,,103,-53,1,0,0,response3disk,1.535,16,-2,1,0,0,rectangle,16,-2,1,0,0,-3,3,"[91,158,156,16,77,68,17,144,46,83]",16,-2,1,0,0,0,37,37,51,1,Pink,Pink.jpg,Red,Red.jpg,,
,,,,,,,,,,,,,,,,,,-4,,,,,,,,,,,,,,,,,,,,,,,,,,,,,,60130bd289b4b215f94d9979,001,2021-12-16_23h05.12.872,jm_natural_scene_simialrity_2-12-2021_version2,2021.2.3,Win32,60.0240096,60130bd289b4b215f94d9979,61bbc5c79a1c66460f44041e,61bbc60efc06e4a85c9dadff,,,-68,90,1,0,0,response7disk,1.368,-21,9,1,0,0,rectangle,-21,9,1,0,0,-3,-2,"[91,158,156,16,77,68,17,144,46,83]",-21,9,1,0,0,0,38,38,2,1,Red,Red.jpg,LightGreen,LightGreen.jpg,,
,,,,,,,,,,,,,,,,,,4,,,,,,,,,,,,,,,,,,,,,,,,,,,,,,60130bd289b4b215f94d9979,001,2021-12-16_23h05.12.872,jm_natural_scene_simialrity_2-12-2021_version2,2021.2.3,Win32,60.0240096,60130bd289b4b215f94d9979,61bbc5c79a1c66460f44041e,61bbc60efc06e4a85c9dadff,,,42,96,1,0,0,response1disk,1.013,9,-9,1,0,0,rectangle,9,-9,1,0,0,-3,1,"[91,158,156,16,77,68,17,144,46,83]",9,-9,1,0,0,0,39,39,35,1,LightBlue,LightBlue.jpg,LightBlue,LightBlue.jpg,,
,,,,,,,,,,,,,,,,,,-3,,,,,,,,,,,,,,,,,,,,,,,,,,,,,,60130bd289b4b215f94d9979,001,2021-12-16_23h05.12.872,jm_natural_scene_simialrity_2-12-2021_version2,2021.2.3,Win32,60.0240096,60130bd289b4b215f94d9979,61bbc5c79a1c66460f44041e,61bbc60efc06e4a85c9dadff,,,-74,38,1,0,0,response7disk,1.168,-14,-6,1,0,0,rectangle,-14,-6,1,0,0,-3,2,"[91,158,156,16,77,68,17,144,46,83]",-14,-6,1,0,0,0,40,40,10,1,Yellow,Yellow.jpg,LightGreen,LightGreen.jpg,,
,,,,,,,,,,,,,,,,,,-4,,,,,,,,,,,,,,,,,,,,,,,,,,,,,,60130bd289b4b215f94d9979,001,2021-12-16_23h05.12.872,jm_natural_scene_simialrity_2-12-2021_version2,2021.2.3,Win32,60.0240096,60130bd289b4b215f94d9979,61bbc5c79a1c66460f44041e,61bbc60efc06e4a85c9dadff,,,-42,69,1,0,0,response7disk,0.718,-12,-5,1,0,0,rectangle,-12,-5,1,0,0,-3,-2,"[91,158,156,16,77,68,17,144,46,83]",-12,-5,1,0,0,0,41,41,40,1,DarkBlue,DarkBlue.jpg,Pink,Pink.jpg,,
,,,,,,,,,,,,,,,,,,-4,,,,,,,,,,,,,,,,,,,,,,,,,,,,,,60130bd289b4b215f94d9979,001,2021-12-16_23h05.12.872,jm_natural_scene_simialrity_2-12-2021_version2,2021.2.3,Win32,60.0240096,60130bd289b4b215f94d9979,61bbc5c79a1c66460f44041e,61bbc60efc06e4a85c9dadff,,,-30,75,1,0,0,response7disk,0.634,-6,1,1,0,0,rectangle,-6,1,1,0,0,-3,-1,"[91,158,156,16,77,68,17,144,46,83]",-6,1,1,0,0,0,42,42,4,1,Red,Red.jpg,Turquiose,Turquiose.jpg,,
,,,,,,,,,,,,,,,,,,-4,,,,,,,,,,,,,,,,,,,,,,,,,,,,,,60130bd289b4b215f94d9979,001,2021-12-16_23h05.12.872,jm_natural_scene_simialrity_2-12-2021_version2,2021.2.3,Win32,60.0240096,60130bd289b4b215f94d9979,61bbc5c79a1c66460f44041e,61bbc60efc06e4a85c9dadff,,,-48,67,1,0,0,response7disk,0.983,-20,10,1,0,0,rectangle,-20,10,1,0,0,-3,-3,"[91,158,156,16,77,68,17,144,46,83]",-20,10,1,0,0,0,43,43,11,1,Yellow,Yellow.jpg,DarkGreen,DarkGreen.jpg,,
,,,,,,,,,,,,,,,,,,-4,,,,,,,,,,,,,,,,,,,,,,,,,,,,,,60130bd289b4b215f94d9979,001,2021-12-16_23h05.12.872,jm_natural_scene_simialrity_2-12-2021_version2,2021.2.3,Win32,60.0240096,60130bd289b4b215f94d9979,61bbc5c79a1c66460f44041e,61bbc60efc06e4a85c9dadff,,,-36,62,1,0,0,response7disk,0.551,-8,6,1,0,0,rectangle,-8,6,1,0,0,-3,-1,"[91,158,156,16,77,68,17,144,46,83]",-8,6,1,0,0,0,44,44,1,1,Red,Red.jpg,Yellow,Yellow.jpg,,
,,,,,,,,,,,,,,,,,,-4,,,,,,,,,,,,,,,,,,,,,,,,,,,,,,60130bd289b4b215f94d9979,001,2021-12-16_23h05.12.872,jm_natural_scene_simialrity_2-12-2021_version2,2021.2.3,Win32,60.0240096,60130bd289b4b215f94d9979,61bbc5c79a1c66460f44041e,61bbc60efc06e4a85c9dadff,,,-41,63,1,0,0,response7disk,0.751,-11,6,1,0,0,rectangle,-102,-49,1,0,0,-3,-2,"[91,158,156,16,77,68,17,144,46,83]",4,-17,1,0,0,0,45,45,19,1,LightGreen,LightGreen.jpg,Turquiose,Turquiose.jpg,response5disk_3,rectangle
,,,,,,,,,,,,,,,,,,-4,,,,,,,,,,,,,,,,,,,,,,,,,,,,,,60130bd289b4b215f94d9979,001,2021-12-16_23h05.12.872,jm_natural_scene_simialrity_2-12-2021_version2,2021.2.3,Win32,60.0240096,60130bd289b4b215f94d9979,61bbc5c79a1c66460f44041e,61bbc60efc06e4a85c9dadff,,,-40,85,1,0,0,response7disk,0.917,-21,2,1,0,0,rectangle,-21,2,1,0,0,-3,-2,"[91,158,156,16,77,68,17,144,46,83]",-21,2,1,0,0,0,46,46,56,1,LightBlue,LightBlue.jpg,Yellow,Yellow.jpg,,
,,,,,,,,,,,,,,,,,,-4,,,,,,,,,,,,,,,,,,,,,,,,,,,,,,60130bd289b4b215f94d9979,001,2021-12-16_23h05.12.872,jm_natural_scene_simialrity_2-12-2021_version2,2021.2.3,Win32,60.0240096,60130bd289b4b215f94d9979,61bbc5c79a1c66460f44041e,61bbc60efc06e4a85c9dadff,,,-39,54,1,0,0,response7disk,1.217,-15,9,1,0,0,rectangle,-15,9,1,0,0,-3,-2,"[91,158,156,16,77,68,17,144,46,83]",-15,9,1,0,0,0,47,47,80,1,Purple,Purple.jpg,Pink,Pink.jpg,,
,,,,,,,,,,,,,,,,,,4,,,,,,,,,,,,,,,,,,,,,,,,,,,,,,60130bd289b4b215f94d9979,001,2021-12-16_23h05.12.872,jm_natural_scene_simialrity_2-12-2021_version2,2021.2.3,Win32,60.0240096,60130bd289b4b215f94d9979,61bbc5c79a1c66460f44041e,61bbc60efc06e4a85c9dadff,,,66,89,1,0,0,response1disk,0.785,11,1,1,0,0,rectangle,11,1,1,0,0,-3,-3,"[91,158,156,16,77,68,17,144,46,83]",11,1,1,0,0,0,48,48,42,1,Pink,Pink.jpg,Pink,Pink.jpg,,
,,,,,,,,,,,,,,,,,,-4,,,,,,,,,,,,,,,,,,,,,,,,,,,,,,60130bd289b4b215f94d9979,001,2021-12-16_23h05.12.872,jm_natural_scene_simialrity_2-12-2021_version2,2021.2.3,Win32,60.0240096,60130bd289b4b215f94d9979,61bbc5c79a1c66460f44041e,61bbc60efc06e4a85c9dadff,,,-58,74,1,0,0,response7disk,0.9,-19,3,1,0,0,rectangle,-19,3,1,0,0,-3,1,"[91,158,156,16,77,68,17,144,46,83]",-19,3,1,0,0,0,49,49,12,1,Yellow,Yellow.jpg,Turquiose,Turquiose.jpg,,
,,,,,,,,,,,,,,,,,,-4,,,,,,,,,,,,,,,,,,,,,,,,,,,,,,60130bd289b4b215f94d9979,001,2021-12-16_23h05.12.872,jm_natural_scene_simialrity_2-12-2021_version2,2021.2.3,Win32,60.0240096,60130bd289b4b215f94d9979,61bbc5c79a1c66460f44041e,61bbc60efc06e4a85c9dadff,,,-41,67,1,0,0,response7disk,0.601,-13,1,1,0,0,rectangle,-13,1,1,0,0,-3,1,"[91,158,156,16,77,68,17,144,46,83]",-13,1,1,0,0,0,50,50,66,1,Turquiose,Turquiose.jpg,DarkGreen,DarkGreen.jpg,,
,,,,,,,,,,,,,,,,,,-4,,,,,,,,,,,,,,,,,,,,,,,,,,,,,,60130bd289b4b215f94d9979,001,2021-12-16_23h05.12.872,jm_natural_scene_simialrity_2-12-2021_version2,2021.2.3,Win32,60.0240096,60130bd289b4b215f94d9979,61bbc5c79a1c66460f44041e,61bbc60efc06e4a85c9dadff,,,-38,52,1,0,0,response7disk,0.548,-13,-3,1,0,0,rectangle,-13,-3,1,0,0,-3,2,"[91,158,156,16,77,68,17,144,46,83]",-13,-3,1,0,0,0,51,51,23,1,LightGreen,LightGreen.jpg,Purple,Purple.jpg,,
,,,,,,,,,,,,,,,,,,-4,,,,,,,,,,,,,,,,,,,,,,,,,,,,,,60130bd289b4b215f94d9979,001,2021-12-16_23h05.12.872,jm_natural_scene_simialrity_2-12-2021_version2,2021.2.3,Win32,60.0240096,60130bd289b4b215f94d9979,61bbc5c79a1c66460f44041e,61bbc60efc06e4a85c9dadff,,,-30,64,1,0,0,response7disk,0.617,7,1,1,0,0,rectangle,7,1,1,0,0,-3,3,"[91,158,156,16,77,68,17,144,46,83]",7,1,1,0,0,0,52,52,27,1,DarkGreen,DarkGreen.jpg,DarkBlue,DarkBlue.jpg,,
,,,,,,,,,,,,,,,,,,-4,,,,,,,,,,,,,,,,,,,,,,,,,,,,,,60130bd289b4b215f94d9979,001,2021-12-16_23h05.12.872,jm_natural_scene_simialrity_2-12-2021_version2,2021.2.3,Win32,60.0240096,60130bd289b4b215f94d9979,61bbc5c79a1c66460f44041e,61bbc60efc06e4a85c9dadff,,,-64,88,1,0,0,response7disk,0.599,-14,5,1,0,0,rectangle,-14,5,1,0,0,-3,-4,"[91,158,156,16,77,68,17,144,46,83]",-14,5,1,0,0,0,53,53,22,1,LightGreen,LightGreen.jpg,Pink,Pink.jpg,,
,,,,,,,,,,,,,,,,,,3,,,,,,,,,,,,,,,,,,,,,,,,,,,,,,60130bd289b4b215f94d9979,001,2021-12-16_23h05.12.872,jm_natural_scene_simialrity_2-12-2021_version2,2021.2.3,Win32,60.0240096,60130bd289b4b215f94d9979,61bbc5c79a1c66460f44041e,61bbc60efc06e4a85c9dadff,,,94,49,1,0,0,response1disk,1.368,9,4,1,0,0,rectangle,9,4,1,0,0,-3,-2,"[91,158,156,16,77,68,17,144,46,83]",9,4,1,0,0,0,54,54,18,1,LightGreen,LightGreen.jpg,DarkGreen,DarkGreen.jpg,,
,,,,,,,,,,,,,,,,,,-4,,,,,,,,,,,,,,,,,,,,,,,,,,,,,,60130bd289b4b215f94d9979,001,2021-12-16_23h05.12.872,jm_natural_scene_simialrity_2-12-2021_version2,2021.2.3,Win32,60.0240096,60130bd289b4b215f94d9979,61bbc5c79a1c66460f44041e,61bbc60efc06e4a85c9dadff,,,-48,84,1,0,0,response7disk,0.917,3,-15,1,0,0,rectangle,3,-15,1,0,0,-3,1,"[91,158,156,16,77,68,17,144,46,83]",3,-15,1,0,0,0,55,55,3,1,Red,Red.jpg,DarkGreen,DarkGreen.jpg,,
,,,,,,,,,,,,,,,,,,-4,,,,,,,,,,,,,,,,,,,,,,,,,,,,,,60130bd289b4b215f94d9979,001,2021-12-16_23h05.12.872,jm_natural_scene_simialrity_2-12-2021_version2,2021.2.3,Win32,60.0240096,60130bd289b4b215f94d9979,61bbc5c79a1c66460f44041e,61bbc60efc06e4a85c9dadff,,,-33,46,1,0,0,response7disk,0.717,-19,13,1,0,0,rectangle,-19,13,1,0,0,-3,2,"[91,158,156,16,77,68,17,144,46,83]",-19,13,1,0,0,0,56,56,25,1,DarkGreen,DarkGreen.jpg,Turquiose,Turquiose.jpg,,
,,,,,,,,,,,,,,,,,,4,,,,,,,,,,,,,,,,,,,,,,,,,,,,,,60130bd289b4b215f94d9979,001,2021-12-16_23h05.12.872,jm_natural_scene_simialrity_2-12-2021_version2,2021.2.3,Win32,60.0240096,60130bd289b4b215f94d9979,61bbc5c79a1c66460f44041e,61bbc60efc06e4a85c9dadff,,,56,106,1,0,0,response1disk,1.151,5,-8,1,0,0,rectangle,5,-8,1,0,0,-3,-4,"[91,158,156,16,77,68,17,144,46,83]",5,-8,1,0,0,0,57,57,39,1,DarkBlue,DarkBlue.jpg,DarkBlue,DarkBlue.jpg,,
,,,,,,,,,,,,,,,,,,2,,,,,,,,,,,,,,,,,,,,,,,,,,,,,,60130bd289b4b215f94d9979,001,2021-12-16_23h05.12.872,jm_natural_scene_simialrity_2-12-2021_version2,2021.2.3,Win32,60.0240096,60130bd289b4b215f94d9979,61bbc5c79a1c66460f44041e,61bbc60efc06e4a85c9dadff,,,109,-49,1,0,0,response3disk,1.784,15,1,1,0,0,rectangle,15,1,1,0,0,-3,2,"[91,158,156,16,77,68,17,144,46,83]",15,1,1,0,0,0,58,58,7,1,Red,Red.jpg,Pink,Pink.jpg,,
,,,,,,,,,,,,,,,,,,-3,,,,,,,,,,,,,,,,,,,,,,,,,,,,,,60130bd289b4b215f94d9979,001,2021-12-16_23h05.12.872,jm_natural_scene_simialrity_2-12-2021_version2,2021.2.3,Win32,60.0240096,60130bd289b4b215f94d9979,61bbc5c79a1c66460f44041e,61bbc60efc06e4a85c9dadff,,,-61,30,1,0,0,response7disk,0.817,-24,7,1,0,0,rectangle,-24,7,1,0,0,-3,1,"[91,158,156,16,77,68,17,144,46,83]",-24,7,1,0,0,0,59,59,49,1,LightBlue,LightBlue.jpg,Red,Red.jpg,,
,,,,,,,,,,,,,,,,,,-3,,,,,,,,,,,,,,,,,,,,,,,,,,,,,,60130bd289b4b215f94d9979,001,2021-12-16_23h05.12.872,jm_natural_scene_simialrity_2-12-2021_version2,2021.2.3,Win32,60.0240096,60130bd289b4b215f94d9979,61bbc5c79a1c66460f44041e,61bbc60efc06e4a85c9dadff,,,-51,26,1,0,0,response7disk,0.551,0,-11,1,0,0,rectangle,0,-11,1,0,0,-3,1,"[91,158,156,16,77,68,17,144,46,83]",0,-11,1,0,0,0,60,60,6,1,Red,Red.jpg,DarkBlue,DarkBlue.jpg,,
,,,,,,,,,,,,,,,,,,-3,,,,,,,,,,,,,,,,,,,,,,,,,,,,,,60130bd289b4b215f94d9979,001,2021-12-16_23h05.12.872,jm_natural_scene_simialrity_2-12-2021_version2,2021.2.3,Win32,60.0240096,60130bd289b4b215f94d9979,61bbc5c79a1c66460f44041e,61bbc60efc06e4a85c9dadff,,,-72,38,1,0,0,response7disk,0.667,-16,-1,1,0,0,rectangle,-16,-1,1,0,0,-3,-1,"[91,158,156,16,77,68,17,144,46,83]",-16,-1,1,0,0,0,61,61,53,1,LightGreen,LightGreen.jpg,Yellow,Yellow.jpg,,
,,,,,,,,,,,,,,,,,,-3,,,,,,,,,,,,,,,,,,,,,,,,,,,,,,60130bd289b4b215f94d9979,001,2021-12-16_23h05.12.872,jm_natural_scene_simialrity_2-12-2021_version2,2021.2.3,Win32,60.0240096,60130bd289b4b215f94d9979,61bbc5c79a1c66460f44041e,61bbc60efc06e4a85c9dadff,,,-58,33,1,0,0,response7disk,0.784,13,-22,1,0,0,rectangle,13,-22,1,0,0,-3,2,"[91,158,156,16,77,68,17,144,46,83]",13,-22,1,0,0,0,62,62,62,1,LightBlue,LightBlue.jpg,LightGreen,LightGreen.jpg,,
,,,,,,,,,,,,,,,,,,-3,,,,,,,,,,,,,,,,,,,,,,,,,,,,,,60130bd289b4b215f94d9979,001,2021-12-16_23h05.12.872,jm_natural_scene_simialrity_2-12-2021_version2,2021.2.3,Win32,60.0240096,60130bd289b4b215f94d9979,61bbc5c79a1c66460f44041e,61bbc60efc06e4a85c9dadff,,,-56,24,1,0,0,response7disk,0.618,-8,-6,1,0,0,rectangle,-8,-6,1,0,0,-3,3,"[91,158,156,16,77,68,17,144,46,83]",-8,-6,1,0,0,0,63,63,72,1,DarkBlue,DarkBlue.jpg,Turquiose,Turquiose.jpg,,
,,,,,,,,,,,,,,,,,,-3,,,,,,,,,,,,,,,,,,,,,,,,,,,,,,60130bd289b4b215f94d9979,001,2021-12-16_23h05.12.872,jm_natural_scene_simialrity_2-12-2021_version2,2021.2.3,Win32,60.0240096,60130bd289b4b215f94d9979,61bbc5c79a1c66460f44041e,61bbc60efc06e4a85c9dadff,,,-75,30,1,0,0,response7disk,1.685,-20,-13,1,0,0,rectangle,-20,-13,1,0,0,-3,-4,"[91,158,156,16,77,68,17,144,46,83]",-20,-13,1,0,0,0,64,64,67,1,LightBlue,LightBlue.jpg,DarkGreen,DarkGreen.jpg,,
,,,,,,,,,,,,,,,,,,4,,,,,,,,,,,,,,,,,,,,,,,,,,,,,,60130bd289b4b215f94d9979,001,2021-12-16_23h05.12.872,jm_natural_scene_simialrity_2-12-2021_version2,2021.2.3,Win32,60.0240096,60130bd289b4b215f94d9979,61bbc5c79a1c66460f44041e,61bbc60efc06e4a85c9dadff,,,68,88,1,0,0,response1disk,0.766,16,1,1,0,0,rectangle,16,1,1,0,0,-3,3,"[91,158,156,16,77,68,17,144,46,83]",16,1,1,0,0,0,65,65,9,1,Yellow,Yellow.jpg,Yellow,Yellow.jpg,,
,,,,,,,,,,,,,,,,,,-3,,,,,,,,,,,,,,,,,,,,,,,,,,,,,,60130bd289b4b215f94d9979,001,2021-12-16_23h05.12.872,jm_natural_scene_simialrity_2-12-2021_version2,2021.2.3,Win32,60.0240096,60130bd289b4b215f94d9979,61bbc5c79a1c66460f44041e,61bbc60efc06e4a85c9dadff,,,-53,34,1,0,0,response7disk,0.568,-18,1,1,0,0,rectangle,-18,1,1,0,0,-3,-3,"[91,158,156,16,77,68,17,144,46,83]",-18,1,1,0,0,0,66,66,68,1,DarkBlue,DarkBlue.jpg,DarkGreen,DarkGreen.jpg,,
,,,,,,,,,,,,,,,,,,-3,,,,,,,,,,,,,,,,,,,,,,,,,,,,,,60130bd289b4b215f94d9979,001,2021-12-16_23h05.12.872,jm_natural_scene_simialrity_2-12-2021_version2,2021.2.3,Win32,60.0240096,60130bd289b4b215f94d9979,61bbc5c79a1c66460f44041e,61bbc60efc06e4a85c9dadff,,,-58,36,1,0,0,response7disk,0.551,-20,-1,1,0,0,rectangle,-73,26,1,0,0,-3,-3,"[91,158,156,16,77,68,17,144,46,83]",-10,2,1,0,0,0,67,67,65,1,Purple,Purple.jpg,LightGreen,LightGreen.jpg,response7disk_3,rectangle
,,,,,,,,,,,,,,,,,,-3,,,,,,,,,,,,,,,,,,,,,,,,,,,,,,60130bd289b4b215f94d9979,001,2021-12-16_23h05.12.872,jm_natural_scene_simialrity_2-12-2021_version2,2021.2.3,Win32,60.0240096,60130bd289b4b215f94d9979,61bbc5c79a1c66460f44041e,61bbc60efc06e4a85c9dadff,,,-65,36,1,0,0,response7disk,0.605,-22,-1,1,0,0,rectangle,-22,-1,1,0,0,-3,-1,"[91,158,156,16,77,68,17,144,46,83]",-22,-1,1,0,0,0,68,68,79,1,Purple,Purple.jpg,DarkBlue,DarkBlue.jpg,,
,,,,,,,,,,,,,,,,,,-3,,,,,,,,,,,,,,,,,,,,,,,,,,,,,,60130bd289b4b215f94d9979,001,2021-12-16_23h05.12.872,jm_natural_scene_simialrity_2-12-2021_version2,2021.2.3,Win32,60.0240096,60130bd289b4b215f94d9979,61bbc5c79a1c66460f44041e,61bbc60efc06e4a85c9dadff,,,-66,27,1,0,0,response7disk,0.467,-8,-5,1,0,0,rectangle,-8,-5,1,0,0,-3,-4,"[91,158,156,16,77,68,17,144,46,83]",-8,-5,1,0,0,0,69,69,46,1,LightGreen,LightGreen.jpg,Red,Red.jpg,,
,,,,,,,,,,,,,,,,,,4,,,,,,,,,,,,,,,,,,,,,,,,,,,,,,60130bd289b4b215f94d9979,001,2021-12-16_23h05.12.872,jm_natural_scene_simialrity_2-12-2021_version2,2021.2.3,Win32,60.0240096,60130bd289b4b215f94d9979,61bbc5c79a1c66460f44041e,61bbc60efc06e4a85c9dadff,,,40,98,1,0,0,response1disk,0.801,5,0,1,0,0,rectangle,5,0,1,0,0,-3,2,"[91,158,156,16,77,68,17,144,46,83]",5,0,1,0,0,0,70,70,30,1,Turquiose,Turquiose.jpg,Turquiose,Turquiose.jpg,,
,,,,,,,,,,,,,,,,,,-3,,,,,,,,,,,,,,,,,,,,,,,,,,,,,,60130bd289b4b215f94d9979,001,2021-12-16_23h05.12.872,jm_natural_scene_simialrity_2-12-2021_version2,2021.2.3,Win32,60.0240096,60130bd289b4b215f94d9979,61bbc5c79a1c66460f44041e,61bbc60efc06e4a85c9dadff,,,-54,45,1,0,0,response7disk,0.667,-11,8,1,0,0,rectangle,-11,8,1,0,0,-3,-1,"[91,158,156,16,77,68,17,144,46,83]",-11,8,1,0,0,0,71,71,20,1,LightGreen,LightGreen.jpg,LightBlue,LightBlue.jpg,,
,,,,,,,,,,,,,,,,,,-4,,,,,,,,,,,,,,,,,,,,,,,,,,,,,,60130bd289b4b215f94d9979,001,2021-12-16_23h05.12.872,jm_natural_scene_simialrity_2-12-2021_version2,2021.2.3,Win32,60.0240096,60130bd289b4b215f94d9979,61bbc5c79a1c66460f44041e,61bbc60efc06e4a85c9dadff,,,-31,33,1,0,0,response7disk,0.517,-2,-1,1,0,0,rectangle,-2,-1,1,0,0,-3,-4,"[91,158,156,16,77,68,17,144,46,83]",-2,-1,1,0,0,0,72,72,50,1,DarkBlue,DarkBlue.jpg,Red,Red.jpg,,
,,,,,,,,,,,,,,,,,,-4,,,,,,,,,,,,,,,,,,,,,,,,,,,,,,60130bd289b4b215f94d9979,001,2021-12-16_23h05.12.872,jm_natural_scene_simialrity_2-12-2021_version2,2021.2.3,Win32,60.0240096,60130bd289b4b215f94d9979,61bbc5c79a1c66460f44041e,61bbc60efc06e4a85c9dadff,,,-36,59,1,0,0,response7disk,0.634,-3,-5,1,0,0,rectangle,-3,-5,1,0,0,-3,-3,"[91,158,156,16,77,68,17,144,46,83]",-3,-5,1,0,0,0,73,73,45,1,Yellow,Yellow.jpg,Red,Red.jpg,,
,,,,,,,,,,,,,,,,,,-3,,,,,,,,,,,,,,,,,,,,,,,,,,,,,,60130bd289b4b215f94d9979,001,2021-12-16_23h05.12.872,jm_natural_scene_simialrity_2-12-2021_version2,2021.2.3,Win32,60.0240096,60130bd289b4b215f94d9979,61bbc5c79a1c66460f44041e,61bbc60efc06e4a85c9dadff,,,-117,39,1,0,0,response7disk,0.868,22,5,1,0,0,rectangle,22,5,1,0,0,-3,3,"[91,158,156,16,77,68,17,144,46,83]",22,5,1,0,0,0,74,74,48,1,Turquiose,Turquiose.jpg,Red,Red.jpg,,
,,,,,,,,,,,,,,,,,,-3,,,,,,,,,,,,,,,,,,,,,,,,,,,,,,60130bd289b4b215f94d9979,001,2021-12-16_23h05.12.872,jm_natural_scene_simialrity_2-12-2021_version2,2021.2.3,Win32,60.0240096,60130bd289b4b215f94d9979,61bbc5c79a1c66460f44041e,61bbc60efc06e4a85c9dadff,,,-86,46,1,0,0,response7disk,0.749,14,3,1,0,0,rectangle,14,3,1,0,0,-3,-4,"[91,158,156,16,77,68,17,144,46,83]",14,3,1,0,0,0,75,75,78,1,Pink,Pink.jpg,DarkBlue,DarkBlue.jpg,,
,,,,,,,,,,,,,,,,,,-3,,,,,,,,,,,,,,,,,,,,,,,,,,,,,,60130bd289b4b215f94d9979,001,2021-12-16_23h05.12.872,jm_natural_scene_simialrity_2-12-2021_version2,2021.2.3,Win32,60.0240096,60130bd289b4b215f94d9979,61bbc5c79a1c66460f44041e,61bbc60efc06e4a85c9dadff,,,-59,36,1,0,0,response7disk,0.901,-13,3,1,0,0,rectangle,56,-105,1,0,0,1,1,"[91,158,156,16,77,68,17,144,46,83]",-7,9,1,0,0,0,76,76,13,1,Yellow,Yellow.jpg,LightBlue,LightBlue.jpg,response3disk_3,rectangle
,,,,,,,,,,,,,,,,,,-3,,,,,,,,,,,,,,,,,,,,,,,,,,,,,,60130bd289b4b215f94d9979,001,2021-12-16_23h05.12.872,jm_natural_scene_simialrity_2-12-2021_version2,2021.2.3,Win32,60.0240096,60130bd289b4b215f94d9979,61bbc5c79a1c66460f44041e,61bbc60efc06e4a85c9dadff,,,-86,40,1,0,0,response7disk,0.685,-2,-4,1,0,0,rectangle,-2,-4,1,0,0,1,-1,"[91,158,156,16,77,68,17,144,46,83]",-2,-4,1,0,0,0,77,77,47,1,DarkGreen,DarkGreen.jpg,Red,Red.jpg,,
,,,,,,,,,,,,,,,,,,-3,,,,,,,,,,,,,,,,,,,,,,,,,,,,,,60130bd289b4b215f94d9979,001,2021-12-16_23h05.12.872,jm_natural_scene_simialrity_2-12-2021_version2,2021.2.3,Win32,60.0240096,60130bd289b4b215f94d9979,61bbc5c79a1c66460f44041e,61bbc60efc06e4a85c9dadff,,,-61,36,1,0,0,response7disk,0.552,-1,-7,1,0,0,rectangle,-1,-7,1,0,0,1,3,"[91,158,156,16,77,68,17,144,46,83]",-1,-7,1,0,0,0,78,78,41,1,DarkBlue,DarkBlue.jpg,Purple,Purple.jpg,,
,,,,,,,,,,,,,,,,,,4,,,,,,,,,,,,,,,,,,,,,,,,,,,,,,60130bd289b4b215f94d9979,001,2021-12-16_23h05.12.872,jm_natural_scene_simialrity_2-12-2021_version2,2021.2.3,Win32,60.0240096,60130bd289b4b215f94d9979,61bbc5c79a1c66460f44041e,61bbc60efc06e4a85c9dadff,,,37,87,1,0,0,response1disk,0.668,10,0,1,0,0,rectangle,10,0,1,0,0,1,2,"[91,158,156,16,77,68,17,144,46,83]",10,0,1,0,0,0,79,79,17,1,LightGreen,LightGreen.jpg,LightGreen,LightGreen.jpg,,
,,,,,,,,,,,,,,,,,,-3,,,,,,,,,,,,,,,,,,,,,,,,,,,,,,60130bd289b4b215f94d9979,001,2021-12-16_23h05.12.872,jm_natural_scene_simialrity_2-12-2021_version2,2021.2.3,Win32,60.0240096,60130bd289b4b215f94d9979,61bbc5c79a1c66460f44041e,61bbc60efc06e4a85c9dadff,,,-52,45,1,0,0,response7disk,0.518,-11,1,1,0,0,rectangle,-11,1,1,0,0,1,-1,"[91,158,156,16,77,68,17,144,46,83]",-11,1,1,0,0,0,80,80,14,1,Yellow,Yellow.jpg,DarkBlue,DarkBlue.jpg,,
,,,,,,,,,,,,,,,,,,4,,,,,,,,,,,,,,,,,,,,,,,,,,,,,,60130bd289b4b215f94d9979,001,2021-12-16_23h05.12.872,jm_natural_scene_simialrity_2-12-2021_version2,2021.2.3,Win32,60.0240096,60130bd289b4b215f94d9979,61bbc5c79a1c66460f44041e,61bbc60efc06e4a85c9dadff,,,29,85,1,0,0,response1disk,0.567,6,-6,1,0,0,rectangle,6,-6,1,0,0,1,-4,"[91,158,156,16,77,68,17,144,46,83]",6,-6,1,0,0,1,0,81,44,1,Purple,Purple.jpg,Purple,Purple.jpg,,
,,,,,,,,,,,,,,,,,,-3,,,,,,,,,,,,,,,,,,,,,,,,,,,,,,60130bd289b4b215f94d9979,001,2021-12-16_23h05.12.872,jm_natural_scene_simialrity_2-12-2021_version2,2021.2.3,Win32,60.0240096,60130bd289b4b215f94d9979,61bbc5c79a1c66460f44041e,61bbc60efc06e4a85c9dadff,,,-46,45,1,0,0,response7disk,0.517,3,1,1,0,0,rectangle,50,-91,1,0,0,1,1,"[91,158,156,16,77,68,17,144,46,83]",6,11,1,0,0,1,1,82,55,1,Turquiose,Turquiose.jpg,Yellow,Yellow.jpg,response3disk_3,rectangle
,,,,,,,,,,,,,,,,,,-4,,,,,,,,,,,,,,,,,,,,,,,,,,,,,,60130bd289b4b215f94d9979,001,2021-12-16_23h05.12.872,jm_natural_scene_simialrity_2-12-2021_version2,2021.2.3,Win32,60.0240096,60130bd289b4b215f94d9979,61bbc5c79a1c66460f44041e,61bbc60efc06e4a85c9dadff,,,-48,74,1,0,0,response7disk,1.151,-20,16,1,0,0,rectangle,-20,16,1,0,0,1,-3,"[91,158,156,16,77,68,17,144,46,83]",-20,16,1,0,0,1,2,83,12,1,Yellow,Yellow.jpg,Turquiose,Turquiose.jpg,,
,,,,,,,,,,,,,,,,,,-2,,,,,,,,,,,,,,,,,,,,,,,,,,,,,,60130bd289b4b215f94d9979,001,2021-12-16_23h05.12.872,jm_natural_scene_simialrity_2-12-2021_version2,2021.2.3,Win32,60.0240096,60130bd289b4b215f94d9979,61bbc5c79a1c66460f44041e,61bbc60efc06e4a85c9dadff,,,-72,-28,1,0,0,response5disk,0.752,-7,6,1,0,0,rectangle,-7,6,1,0,0,1,-4,"[91,158,156,16,77,68,17,144,46,83]",-7,6,1,0,0,1,3,84,20,1,LightGreen,LightGreen.jpg,LightBlue,LightBlue.jpg,,
,,,,,,,,,,,,,,,,,,-3,,,,,,,,,,,,,,,,,,,,,,,,,,,,,,60130bd289b4b215f94d9979,001,2021-12-16_23h05.12.872,jm_natural_scene_simialrity_2-12-2021_version2,2021.2.3,Win32,60.0240096,60130bd289b4b215f94d9979,61bbc5c79a1c66460f44041e,61bbc60efc06e4a85c9dadff,,,-60,49,1,0,0,response7disk,0.599,-12,15,1,0,0,rectangle,-12,15,1,0,0,1,3,"[91,158,156,16,77,68,17,144,46,83]",-12,15,1,0,0,1,4,85,21,1,LightGreen,LightGreen.jpg,DarkBlue,DarkBlue.jpg,,
,,,,,,,,,,,,,,,,,,-3,,,,,,,,,,,,,,,,,,,,,,,,,,,,,,60130bd289b4b215f94d9979,001,2021-12-16_23h05.12.872,jm_natural_scene_simialrity_2-12-2021_version2,2021.2.3,Win32,60.0240096,60130bd289b4b215f94d9979,61bbc5c79a1c66460f44041e,61bbc60efc06e4a85c9dadff,,,-56,36,1,0,0,response7disk,0.53,-3,-4,1,0,0,rectangle,-3,-4,1,0,0,1,-3,"[91,158,156,16,77,68,17,144,46,83]",-3,-4,1,0,0,1,5,86,5,1,Red,Red.jpg,LightBlue,LightBlue.jpg,,
,,,,,,,,,,,,,,,,,,-4,,,,,,,,,,,,,,,,,,,,,,,,,,,,,,60130bd289b4b215f94d9979,001,2021-12-16_23h05.12.872,jm_natural_scene_simialrity_2-12-2021_version2,2021.2.3,Win32,60.0240096,60130bd289b4b215f94d9979,61bbc5c79a1c66460f44041e,61bbc60efc06e4a85c9dadff,,,-60,65,1,0,0,response7disk,0.534,-5,15,1,0,0,rectangle,-5,15,1,0,0,1,-1,"[91,158,156,16,77,68,17,144,46,83]",-5,15,1,0,0,1,6,87,19,1,LightGreen,LightGreen.jpg,Turquiose,Turquiose.jpg,,
,,,,,,,,,,,,,,,,,,-4,,,,,,,,,,,,,,,,,,,,,,,,,,,,,,60130bd289b4b215f94d9979,001,2021-12-16_23h05.12.872,jm_natural_scene_simialrity_2-12-2021_version2,2021.2.3,Win32,60.0240096,60130bd289b4b215f94d9979,61bbc5c79a1c66460f44041e,61bbc60efc06e4a85c9dadff,,,-35,60,1,0,0,response7disk,0.734,-12,14,1,0,0,rectangle,-12,14,1,0,0,1,-1,"[91,158,156,16,77,68,17,144,46,83]",-12,14,1,0,0,1,7,88,43,1,Pink,Pink.jpg,Purple,Purple.jpg,,
,,,,,,,,,,,,,,,,,,-4,,,,,,,,,,,,,,,,,,,,,,,,,,,,,,60130bd289b4b215f94d9979,001,2021-12-16_23h05.12.872,jm_natural_scene_simialrity_2-12-2021_version2,2021.2.3,Win32,60.0240096,60130bd289b4b215f94d9979,61bbc5c79a1c66460f44041e,61bbc60efc06e4a85c9dadff,,,-32,56,1,0,0,response7disk,0.567,-3,-1,1,0,0,rectangle,-3,-1,1,0,0,1,-3,"[91,158,156,16,77,68,17,144,46,83]",-3,-1,1,0,0,1,8,89,47,1,DarkGreen,DarkGreen.jpg,Red,Red.jpg,,
,,,,,,,,,,,,,,,,,,-4,,,,,,,,,,,,,,,,,,,,,,,,,,,,,,60130bd289b4b215f94d9979,001,2021-12-16_23h05.12.872,jm_natural_scene_simialrity_2-12-2021_version2,2021.2.3,Win32,60.0240096,60130bd289b4b215f94d9979,61bbc5c79a1c66460f44041e,61bbc60efc06e4a85c9dadff,,,-41,52,1,0,0,response7disk,0.533,-7,-9,1,0,0,rectangle,-35,-76,1,0,0,-1,-1,"[91,158,156,16,77,68,17,144,46,83]",-9,6,1,0,0,1,9,90,26,1,DarkGreen,DarkGreen.jpg,LightBlue,LightBlue.jpg,response5disk_3,rectangle
,,,,,,,,,,,,,,,,,,-3,,,,,,,,,,,,,,,,,,,,,,,,,,,,,,60130bd289b4b215f94d9979,001,2021-12-16_23h05.12.872,jm_natural_scene_simialrity_2-12-2021_version2,2021.2.3,Win32,60.0240096,60130bd289b4b215f94d9979,61bbc5c79a1c66460f44041e,61bbc60efc06e4a85c9dadff,,,-47,26,1,0,0,response7disk,0.65,-11,-12,1,0,0,rectangle,-11,-12,1,0,0,-1,2,"[91,158,156,16,77,68,17,144,46,83]",-11,-12,1,0,0,1,10,91,38,1,LightBlue,LightBlue.jpg,Purple,Purple.jpg,,
,,,,,,,,,,,,,,,,,,-4,,,,,,,,,,,,,,,,,,,,,,,,,,,,,,60130bd289b4b215f94d9979,001,2021-12-16_23h05.12.872,jm_natural_scene_simialrity_2-12-2021_version2,2021.2.3,Win32,60.0240096,60130bd289b4b215f94d9979,61bbc5c79a1c66460f44041e,61bbc60efc06e4a85c9dadff,,,-67,74,1,0,0,response7disk,0.89,-3,8,1,0,0,rectangle,-3,8,1,0,0,-1,2,"[91,158,156,16,77,68,17,144,46,83]",-3,8,1,0,0,1,11,92,76,1,Pink,Pink.jpg,LightBlue,LightBlue.jpg,,
,,,,,,,,,,,,,,,,,,-4,,,,,,,,,,,,,,,,,,,,,,,,,,,,,,60130bd289b4b215f94d9979,001,2021-12-16_23h05.12.872,jm_natural_scene_simialrity_2-12-2021_version2,2021.2.3,Win32,60.0240096,60130bd289b4b215f94d9979,61bbc5c79a1c66460f44041e,61bbc60efc06e4a85c9dadff,,,-36,61,1,0,0,response7disk,0.567,6,-8,1,0,0,rectangle,6,-8,1,0,0,-1,2,"[91,158,156,16,77,68,17,144,46,83]",6,-8,1,0,0,1,12,93,70,1,Purple,Purple.jpg,DarkGreen,DarkGreen.jpg,,
,,,,,,,,,,,,,,,,,,-4,,,,,,,,,,,,,,,,,,,,,,,,,,,,,,60130bd289b4b215f94d9979,001,2021-12-16_23h05.12.872,jm_natural_scene_simialrity_2-12-2021_version2,2021.2.3,Win32,60.0240096,60130bd289b4b215f94d9979,61bbc5c79a1c66460f44041e,61bbc60efc06e4a85c9dadff,,,-37,56,1,0,0,response7disk,0.501,-6,-3,1,0,0,rectangle,-6,-3,1,0,0,-1,-2,"[91,158,156,16,77,68,17,144,46,83]",-6,-3,1,0,0,1,13,94,4,1,Red,Red.jpg,Turquiose,Turquiose.jpg,,
,,,,,,,,,,,,,,,,,,-4,,,,,,,,,,,,,,,,,,,,,,,,,,,,,,60130bd289b4b215f94d9979,001,2021-12-16_23h05.12.872,jm_natural_scene_simialrity_2-12-2021_version2,2021.2.3,Win32,60.0240096,60130bd289b4b215f94d9979,61bbc5c79a1c66460f44041e,61bbc60efc06e4a85c9dadff,,,-35,63,1,0,0,response7disk,0.5,1,-6,1,0,0,rectangle,1,-6,1,0,0,-1,3,"[91,158,156,16,77,68,17,144,46,83]",1,-6,1,0,0,1,14,95,1,1,Red,Red.jpg,Yellow,Yellow.jpg,,
,,,,,,,,,,,,,,,,,,-4,,,,,,,,,,,,,,,,,,,,,,,,,,,,,,60130bd289b4b215f94d9979,001,2021-12-16_23h05.12.872,jm_natural_scene_simialrity_2-12-2021_version2,2021.2.3,Win32,60.0240096,60130bd289b4b215f94d9979,61bbc5c79a1c66460f44041e,61bbc60efc06e4a85c9dadff,,,-19,31,1,0,0,response7disk,0.703,-8,6,1,0,0,rectangle,-8,6,1,0,0,-1,3,"[91,158,156,16,77,68,17,144,46,83]",-8,6,1,0,0,1,15,96,41,1,DarkBlue,DarkBlue.jpg,Purple,Purple.jpg,,
,,,,,,,,,,,,,,,,,,4,,,,,,,,,,,,,,,,,,,,,,,,,,,,,,60130bd289b4b215f94d9979,001,2021-12-16_23h05.12.872,jm_natural_scene_simialrity_2-12-2021_version2,2021.2.3,Win32,60.0240096,60130bd289b4b215f94d9979,61bbc5c79a1c66460f44041e,61bbc60efc06e4a85c9dadff,,,34,69,1,0,0,response1disk,1.767,6,4,1,0,0,rectangle,6,4,1,0,0,-1,-2,"[91,158,156,16,77,68,17,144,46,83]",6,4,1,0,0,1,16,97,39,1,DarkBlue,DarkBlue.jpg,DarkBlue,DarkBlue.jpg,,
,,,,,,,,,,,,,,,,,,-2,,,,,,,,,,,,,,,,,,,,,,,,,,,,,,60130bd289b4b215f94d9979,001,2021-12-16_23h05.12.872,jm_natural_scene_simialrity_2-12-2021_version2,2021.2.3,Win32,60.0240096,60130bd289b4b215f94d9979,61bbc5c79a1c66460f44041e,61bbc60efc06e4a85c9dadff,,,-95,-43,1,0,0,response5disk,3.236,-4,-6,1,0,0,rectangle,-4,-6,1,0,0,-1,-1,"[91,158,156,16,77,68,17,144,46,83]",-4,-6,1,0,0,1,17,98,53,1,LightGreen,LightGreen.jpg,Yellow,Yellow.jpg,,
,,,,,,,,,,,,,,,,,,-3,,,,,,,,,,,,,,,,,,,,,,,,,,,,,,60130bd289b4b215f94d9979,001,2021-12-16_23h05.12.872,jm_natural_scene_simialrity_2-12-2021_version2,2021.2.3,Win32,60.0240096,60130bd289b4b215f94d9979,61bbc5c79a1c66460f44041e,61bbc60efc06e4a85c9dadff,,,-38,27,1,0,0,response7disk,0.602,-13,8,1,0,0,rectangle,-13,8,1,0,0,-1,-4,"[91,158,156,16,77,68,17,144,46,83]",-13,8,1,0,0,1,18,99,74,1,Purple,Purple.jpg,Turquiose,Turquiose.jpg,,
,,,,,,,,,,,,,,,,,,-3,,,,,,,,,,,,,,,,,,,,,,,,,,,,,,60130bd289b4b215f94d9979,001,2021-12-16_23h05.12.872,jm_natural_scene_simialrity_2-12-2021_version2,2021.2.3,Win32,60.0240096,60130bd289b4b215f94d9979,61bbc5c79a1c66460f44041e,61bbc60efc06e4a85c9dadff,,,-51,32,1,0,0,response7disk,0.484,0,7,1,0,0,rectangle,0,7,1,0,0,-1,-1,"[91,158,156,16,77,68,17,144,46,83]",0,7,1,0,0,1,19,100,49,1,LightBlue,LightBlue.jpg,Red,Red.jpg,,
,,,,,,,,,,,,,,,,,,-4,,,,,,,,,,,,,,,,,,,,,,,,,,,,,,60130bd289b4b215f94d9979,001,2021-12-16_23h05.12.872,jm_natural_scene_simialrity_2-12-2021_version2,2021.2.3,Win32,60.0240096,60130bd289b4b215f94d9979,61bbc5c79a1c66460f44041e,61bbc60efc06e4a85c9dadff,,,-37,75,1,0,0,response7disk,0.701,5,9,1,0,0,rectangle,5,9,1,0,0,-1,2,"[91,158,156,16,77,68,17,144,46,83]",5,9,1,0,0,1,20,101,45,1,Yellow,Yellow.jpg,Red,Red.jpg,,
,,,,,,,,,,,,,,,,,,-4,,,,,,,,,,,,,,,,,,,,,,,,,,,,,,60130bd289b4b215f94d9979,001,2021-12-16_23h05.12.872,jm_natural_scene_simialrity_2-12-2021_version2,2021.2.3,Win32,60.0240096,60130bd289b4b215f94d9979,61bbc5c79a1c66460f44041e,61bbc60efc06e4a85c9dadff,,,-29,51,1,0,0,response7disk,0.934,-13,0,1,0,0,rectangle,-13,0,1,0,0,-1,-3,"[91,158,156,16,77,68,17,144,46,83]",-13,0,1,0,0,1,21,102,56,1,LightBlue,LightBlue.jpg,Yellow,Yellow.jpg,,
,,,,,,,,,,,,,,,,,,4,,,,,,,,,,,,,,,,,,,,,,,,,,,,,,60130bd289b4b215f94d9979,001,2021-12-16_23h05.12.872,jm_natural_scene_simialrity_2-12-2021_version2,2021.2.3,Win32,60.0240096,60130bd289b4b215f94d9979,61bbc5c79a1c66460f44041e,61bbc60efc06e4a85c9dadff,,,29,87,1,0,0,response1disk,0.717,0,-10,1,0,0,rectangle,0,-10,1,0,0,-1,3,"[91,158,156,16,77,68,17,144,46,83]",0,-10,1,0,0,1,22,103,42,1,Pink,Pink.jpg,Pink,Pink.jpg,,
,,,,,,,,,,,,,,,,,,-4,,,,,,,,,,,,,,,,,,,,,,,,,,,,,,60130bd289b4b215f94d9979,001,2021-12-16_23h05.12.872,jm_natural_scene_simialrity_2-12-2021_version2,2021.2.3,Win32,60.0240096,60130bd289b4b215f94d9979,61bbc5c79a1c66460f44041e,61bbc60efc06e4a85c9dadff,,,-42,64,1,0,0,response7disk,0.851,-13,8,1,0,0,rectangle,-13,8,1,0,0,-1,-2,"[91,158,156,16,77,68,17,144,46,83]",-13,8,1,0,0,1,23,104,13,1,Yellow,Yellow.jpg,LightBlue,LightBlue.jpg,,
,,,,,,,,,,,,,,,,,,4,,,,,,,,,,,,,,,,,,,,,,,,,,,,,,60130bd289b4b215f94d9979,001,2021-12-16_23h05.12.872,jm_natural_scene_simialrity_2-12-2021_version2,2021.2.3,Win32,60.0240096,60130bd289b4b215f94d9979,61bbc5c79a1c66460f44041e,61bbc60efc06e4a85c9dadff,,,44,101,1,0,0,response1disk,0.819,-6,5,1,0,0,rectangle,-6,5,1,0,0,-1,-1,"[91,158,156,16,77,68,17,144,46,83]",-6,5,1,0,0,1,24,105,35,1,LightBlue,LightBlue.jpg,LightBlue,LightBlue.jpg,,
,,,,,,,,,,,,,,,,,,2,,,,,,,,,,,,,,,,,,,,,,,,,,,,,,60130bd289b4b215f94d9979,001,2021-12-16_23h05.12.872,jm_natural_scene_simialrity_2-12-2021_version2,2021.2.3,Win32,60.0240096,60130bd289b4b215f94d9979,61bbc5c79a1c66460f44041e,61bbc60efc06e4a85c9dadff,,,108,-46,1,0,0,response3disk,1.25,-16,16,1,0,0,rectangle,-16,16,1,0,0,-1,-3,"[91,158,156,16,77,68,17,144,46,83]",-16,16,1,0,0,1,25,106,18,1,LightGreen,LightGreen.jpg,DarkGreen,DarkGreen.jpg,,
,,,,,,,,,,,,,,,,,,-2,,,,,,,,,,,,,,,,,,,,,,,,,,,,,,60130bd289b4b215f94d9979,001,2021-12-16_23h05.12.872,jm_natural_scene_simialrity_2-12-2021_version2,2021.2.3,Win32,60.0240096,60130bd289b4b215f94d9979,61bbc5c79a1c66460f44041e,61bbc60efc06e4a85c9dadff,,,-91,-41,1,0,0,response5disk,1.034,-11,-1,1,0,0,rectangle,-11,-1,1,0,0,-1,-1,"[91,158,156,16,77,68,17,144,46,83]",-11,-1,1,0,0,1,26,107,27,1,DarkGreen,DarkGreen.jpg,DarkBlue,DarkBlue.jpg,,
,,,,,,,,,,,,,,,,,,-3,,,,,,,,,,,,,,,,,,,,,,,,,,,,,,60130bd289b4b215f94d9979,001,2021-12-16_23h05.12.872,jm_natural_scene_simialrity_2-12-2021_version2,2021.2.3,Win32,60.0240096,60130bd289b4b215f94d9979,61bbc5c79a1c66460f44041e,61bbc60efc06e4a85c9dadff,,,-90,35,1,0,0,response7disk,0.601,9,4,1,0,0,rectangle,9,4,1,0,0,-1,-3,"[91,158,156,16,77,68,17,144,46,83]",9,4,1,0,0,1,27,108,57,1,DarkBlue,DarkBlue.jpg,Yellow,Yellow.jpg,,
,,,,,,,,,,,,,,,,,,-4,,,,,,,,,,,,,,,,,,,,,,,,,,,,,,60130bd289b4b215f94d9979,001,2021-12-16_23h05.12.872,jm_natural_scene_simialrity_2-12-2021_version2,2021.2.3,Win32,60.0240096,60130bd289b4b215f94d9979,61bbc5c79a1c66460f44041e,61bbc60efc06e4a85c9dadff,,,-28,104,1,0,0,response7disk,0.751,-3,3,1,0,0,rectangle,-3,3,1,0,0,-1,2,"[91,158,156,16,77,68,17,144,46,83]",-3,3,1,0,0,1,28,109,28,1,DarkGreen,DarkGreen.jpg,Pink,Pink.jpg,,
,,,,,,,,,,,,,,,,,,2,,,,,,,,,,,,,,,,,,,,,,,,,,,,,,60130bd289b4b215f94d9979,001,2021-12-16_23h05.12.872,jm_natural_scene_simialrity_2-12-2021_version2,2021.2.3,Win32,60.0240096,60130bd289b4b215f94d9979,61bbc5c79a1c66460f44041e,61bbc60efc06e4a85c9dadff,,,73,-41,1,0,0,response3disk,1.472,12,17,1,0,0,rectangle,12,17,1,0,0,-1,-2,"[91,158,156,16,77,68,17,144,46,83]",12,17,1,0,0,1,29,110,51,1,Pink,Pink.jpg,Red,Red.jpg,,
,,,,,,,,,,,,,,,,,,-2,,,,,,,,,,,,,,,,,,,,,,,,,,,,,,60130bd289b4b215f94d9979,001,2021-12-16_23h05.12.872,jm_natural_scene_simialrity_2-12-2021_version2,2021.2.3,Win32,60.0240096,60130bd289b4b215f94d9979,61bbc5c79a1c66460f44041e,61bbc60efc06e4a85c9dadff,,,-90,-62,1,0,0,response5disk,1.718,-16,-11,1,0,0,rectangle,-16,-11,1,0,0,-1,-2,"[91,158,156,16,77,68,17,144,46,83]",-16,-11,1,0,0,1,30,111,80,1,Purple,Purple.jpg,Pink,Pink.jpg,,
,,,,,,,,,,,,,,,,,,-2,,,,,,,,,,,,,,,,,,,,,,,,,,,,,,60130bd289b4b215f94d9979,001,2021-12-16_23h05.12.872,jm_natural_scene_simialrity_2-12-2021_version2,2021.2.3,Win32,60.0240096,60130bd289b4b215f94d9979,61bbc5c79a1c66460f44041e,61bbc60efc06e4a85c9dadff,,,-53,-49,1,0,0,response5disk,0.65,-18,-6,1,0,0,rectangle,-18,-6,1,0,0,-1,-2,"[91,158,156,16,77,68,17,144,46,83]",-18,-6,1,0,0,1,31,112,34,1,Turquiose,Turquiose.jpg,Purple,Purple.jpg,,
,,,,,,,,,,,,,,,,,,-2,,,,,,,,,,,,,,,,,,,,,,,,,,,,,,60130bd289b4b215f94d9979,001,2021-12-16_23h05.12.872,jm_natural_scene_simialrity_2-12-2021_version2,2021.2.3,Win32,60.0240096,60130bd289b4b215f94d9979,61bbc5c79a1c66460f44041e,61bbc60efc06e4a85c9dadff,,,-59,-36,1,0,0,response5disk,0.417,9,-2,1,0,0,rectangle,9,-2,1,0,0,-1,3,"[91,158,156,16,77,68,17,144,46,83]",9,-2,1,0,0,1,32,113,36,1,LightBlue,LightBlue.jpg,DarkBlue,DarkBlue.jpg,,
,,,,,,,,,,,,,,,,,,-2,,,,,,,,,,,,,,,,,,,,,,,,,,,,,,60130bd289b4b215f94d9979,001,2021-12-16_23h05.12.872,jm_natural_scene_simialrity_2-12-2021_version2,2021.2.3,Win32,60.0240096,60130bd289b4b215f94d9979,61bbc5c79a1c66460f44041e,61bbc60efc06e4a85c9dadff,,,-38,-26,1,0,0,response5disk,0.834,-10,8,1,0,0,rectangle,-10,8,1,0,0,-1,1,"[91,158,156,16,77,68,17,144,46,83]",-10,8,1,0,0,1,33,114,32,1,Turquiose,Turquiose.jpg,DarkBlue,DarkBlue.jpg,,
,,,,,,,,,,,,,,,,,,4,,,,,,,,,,,,,,,,,,,,,,,,,,,,,,60130bd289b4b215f94d9979,001,2021-12-16_23h05.12.872,jm_natural_scene_simialrity_2-12-2021_version2,2021.2.3,Win32,60.0240096,60130bd289b4b215f94d9979,61bbc5c79a1c66460f44041e,61bbc60efc06e4a85c9dadff,,,35,77,1,0,0,response1disk,0.682,4,3,1,0,0,rectangle,4,3,1,0,0,-1,1,"[91,158,156,16,77,68,17,144,46,83]",4,3,1,0,0,1,34,115,9,1,Yellow,Yellow.jpg,Yellow,Yellow.jpg,,
,,,,,,,,,,,,,,,,,,-3,,,,,,,,,,,,,,,,,,,,,,,,,,,,,,60130bd289b4b215f94d9979,001,2021-12-16_23h05.12.872,jm_natural_scene_simialrity_2-12-2021_version2,2021.2.3,Win32,60.0240096,60130bd289b4b215f94d9979,61bbc5c79a1c66460f44041e,61bbc60efc06e4a85c9dadff,,,-42,40,1,0,0,response7disk,0.551,1,8,1,0,0,rectangle,1,8,1,0,0,-1,-2,"[91,158,156,16,77,68,17,144,46,83]",1,8,1,0,0,1,35,116,2,1,Red,Red.jpg,LightGreen,LightGreen.jpg,,
,,,,,,,,,,,,,,,,,,-4,,,,,,,,,,,,,,,,,,,,,,,,,,,,,,60130bd289b4b215f94d9979,001,2021-12-16_23h05.12.872,jm_natural_scene_simialrity_2-12-2021_version2,2021.2.3,Win32,60.0240096,60130bd289b4b215f94d9979,61bbc5c79a1c66460f44041e,61bbc60efc06e4a85c9dadff,,,-53,58,1,0,0,response7disk,0.7,-6,18,1,0,0,rectangle,-6,18,1,0,0,-1,-1,"[91,158,156,16,77,68,17,144,46,83]",-6,18,1,0,0,1,36,117,14,1,Yellow,Yellow.jpg,DarkBlue,DarkBlue.jpg,,
,,,,,,,,,,,,,,,,,,-4,,,,,,,,,,,,,,,,,,,,,,,,,,,,,,60130bd289b4b215f94d9979,001,2021-12-16_23h05.12.872,jm_natural_scene_simialrity_2-12-2021_version2,2021.2.3,Win32,60.0240096,60130bd289b4b215f94d9979,61bbc5c79a1c66460f44041e,61bbc60efc06e4a85c9dadff,,,-43,67,1,0,0,response7disk,0.534,13,5,1,0,0,rectangle,13,5,1,0,0,-1,2,"[91,158,156,16,77,68,17,144,46,83]",13,5,1,0,0,1,37,118,78,1,Pink,Pink.jpg,DarkBlue,DarkBlue.jpg,,
,,,,,,,,,,,,,,,,,,-4,,,,,,,,,,,,,,,,,,,,,,,,,,,,,,60130bd289b4b215f94d9979,001,2021-12-16_23h05.12.872,jm_natural_scene_simialrity_2-12-2021_version2,2021.2.3,Win32,60.0240096,60130bd289b4b215f94d9979,61bbc5c79a1c66460f44041e,61bbc60efc06e4a85c9dadff,,,-18,75,1,0,0,response7disk,0.584,-9,19,1,0,0,rectangle,-9,19,1,0,0,-1,1,"[91,158,156,16,77,68,17,144,46,83]",-9,19,1,0,0,1,38,119,68,1,DarkBlue,DarkBlue.jpg,DarkGreen,DarkGreen.jpg,,
,,,,,,,,,,,,,,,,,,-4,,,,,,,,,,,,,,,,,,,,,,,,,,,,,,60130bd289b4b215f94d9979,001,2021-12-16_23h05.12.872,jm_natural_scene_simialrity_2-12-2021_version2,2021.2.3,Win32,60.0240096,60130bd289b4b215f94d9979,61bbc5c79a1c66460f44041e,61bbc60efc06e4a85c9dadff,,,-42,60,1,0,0,response7disk,0.6,-3,11,1,0,0,rectangle,-3,11,1,0,0,-1,2,"[91,158,156,16,77,68,17,144,46,83]",-3,11,1,0,0,1,39,120,22,1,LightGreen,LightGreen.jpg,Pink,Pink.jpg,,
,,,,,,,,,,,,,,,,,,-4,,,,,,,,,,,,,,,,,,,,,,,,,,,,,,60130bd289b4b215f94d9979,001,2021-12-16_23h05.12.872,jm_natural_scene_simialrity_2-12-2021_version2,2021.2.3,Win32,60.0240096,60130bd289b4b215f94d9979,61bbc5c79a1c66460f44041e,61bbc60efc06e4a85c9dadff,,,-21,54,1,0,0,response7disk,0.517,2,3,1,0,0,rectangle,2,3,1,0,0,-1,-2,"[91,158,156,16,77,68,17,144,46,83]",2,3,1,0,0,1,40,121,58,1,Pink,Pink.jpg,Yellow,Yellow.jpg,,
,,,,,,,,,,,,,,,,,,-4,,,,,,,,,,,,,,,,,,,,,,,,,,,,,,60130bd289b4b215f94d9979,001,2021-12-16_23h05.12.872,jm_natural_scene_simialrity_2-12-2021_version2,2021.2.3,Win32,60.0240096,60130bd289b4b215f94d9979,61bbc5c79a1c66460f44041e,61bbc60efc06e4a85c9dadff,,,-50,52,1,0,0,response7disk,0.484,7,3,1,0,0,rectangle,7,3,1,0,0,-1,-2,"[91,158,156,16,77,68,17,144,46,83]",7,3,1,0,0,1,41,122,10,1,Yellow,Yellow.jpg,LightGreen,LightGreen.jpg,,
,,,,,,,,,,,,,,,,,,-4,,,,,,,,,,,,,,,,,,,,,,,,,,,,,,60130bd289b4b215f94d9979,001,2021-12-16_23h05.12.872,jm_natural_scene_simialrity_2-12-2021_version2,2021.2.3,Win32,60.0240096,60130bd289b4b215f94d9979,61bbc5c79a1c66460f44041e,61bbc60efc06e4a85c9dadff,,,-41,61,1,0,0,response7disk,0.65,-16,9,1,0,0,rectangle,-16,9,1,0,0,-1,-2,"[91,158,156,16,77,68,17,144,46,83]",-16,9,1,0,0,1,42,123,67,1,LightBlue,LightBlue.jpg,DarkGreen,DarkGreen.jpg,,
,,,,,,,,,,,,,,,,,,-4,,,,,,,,,,,,,,,,,,,,,,,,,,,,,,60130bd289b4b215f94d9979,001,2021-12-16_23h05.12.872,jm_natural_scene_simialrity_2-12-2021_version2,2021.2.3,Win32,60.0240096,60130bd289b4b215f94d9979,61bbc5c79a1c66460f44041e,61bbc60efc06e4a85c9dadff,,,-32,50,1,0,0,response7disk,0.534,4,-2,1,0,0,rectangle,4,-2,1,0,0,-1,3,"[91,158,156,16,77,68,17,144,46,83]",4,-2,1,0,0,1,43,124,15,1,Yellow,Yellow.jpg,Pink,Pink.jpg,,
,,,,,,,,,,,,,,,,,,-4,,,,,,,,,,,,,,,,,,,,,,,,,,,,,,60130bd289b4b215f94d9979,001,2021-12-16_23h05.12.872,jm_natural_scene_simialrity_2-12-2021_version2,2021.2.3,Win32,60.0240096,60130bd289b4b215f94d9979,61bbc5c79a1c66460f44041e,61bbc60efc06e4a85c9dadff,,,-44,69,1,0,0,response7disk,0.584,-1,2,1,0,0,rectangle,-1,2,1,0,0,-1,-2,"[91,158,156,16,77,68,17,144,46,83]",-1,2,1,0,0,1,44,125,25,1,DarkGreen,DarkGreen.jpg,Turquiose,Turquiose.jpg,,
,,,,,,,,,,,,,,,,,,-4,,,,,,,,,,,,,,,,,,,,,,,,,,,,,,60130bd289b4b215f94d9979,001,2021-12-16_23h05.12.872,jm_natural_scene_simialrity_2-12-2021_version2,2021.2.3,Win32,60.0240096,60130bd289b4b215f94d9979,61bbc5c79a1c66460f44041e,61bbc60efc06e4a85c9dadff,,,-29,47,1,0,0,response7disk,0.667,6,-2,1,0,0,rectangle,6,-2,1,0,0,-1,-4,"[91,158,156,16,77,68,17,144,46,83]",6,-2,1,0,0,1,45,126,66,1,Turquiose,Turquiose.jpg,DarkGreen,DarkGreen.jpg,,
,,,,,,,,,,,,,,,,,,-4,,,,,,,,,,,,,,,,,,,,,,,,,,,,,,60130bd289b4b215f94d9979,001,2021-12-16_23h05.12.872,jm_natural_scene_simialrity_2-12-2021_version2,2021.2.3,Win32,60.0240096,60130bd289b4b215f94d9979,61bbc5c79a1c66460f44041e,61bbc60efc06e4a85c9dadff,,,-28,53,1,0,0,response7disk,0.601,-7,4,1,0,0,rectangle,-7,4,1,0,0,-1,-1,"[91,158,156,16,77,68,17,144,46,83]",-7,4,1,0,0,1,46,127,31,1,Turquiose,Turquiose.jpg,LightBlue,LightBlue.jpg,,
,,,,,,,,,,,,,,,,,,-2,,,,,,,,,,,,,,,,,,,,,,,,,,,,,,60130bd289b4b215f94d9979,001,2021-12-16_23h05.12.872,jm_natural_scene_simialrity_2-12-2021_version2,2021.2.3,Win32,60.0240096,60130bd289b4b215f94d9979,61bbc5c79a1c66460f44041e,61bbc60efc06e4a85c9dadff,,,-70,-29,1,0,0,response5disk,0.988,-18,5,1,0,0,rectangle,-18,5,1,0,0,-1,-1,"[91,158,156,16,77,68,17,144,46,83]",-18,5,1,0,0,1,47,128,37,1,LightBlue,LightBlue.jpg,Pink,Pink.jpg,,
,,,,,,,,,,,,,,,,,,-3,,,,,,,,,,,,,,,,,,,,,,,,,,,,,,60130bd289b4b215f94d9979,001,2021-12-16_23h05.12.872,jm_natural_scene_simialrity_2-12-2021_version2,2021.2.3,Win32,60.0240096,60130bd289b4b215f94d9979,61bbc5c79a1c66460f44041e,61bbc60efc06e4a85c9dadff,,,-52,41,1,0,0,response7disk,0.535,-1,11,1,0,0,rectangle,-1,11,1,0,0,-1,3,"[91,158,156,16,77,68,17,144,46,83]",-1,11,1,0,0,1,48,129,64,1,Pink,Pink.jpg,LightGreen,LightGreen.jpg,,
,,,,,,,,,,,,,,,,,,-3,,,,,,,,,,,,,,,,,,,,,,,,,,,,,,60130bd289b4b215f94d9979,001,2021-12-16_23h05.12.872,jm_natural_scene_simialrity_2-12-2021_version2,2021.2.3,Win32,60.0240096,60130bd289b4b215f94d9979,61bbc5c79a1c66460f44041e,61bbc60efc06e4a85c9dadff,,,-61,34,1,0,0,response7disk,0.466,-3,1,1,0,0,rectangle,-3,1,1,0,0,-1,-2,"[91,158,156,16,77,68,17,144,46,83]",-3,1,1,0,0,1,49,130,46,1,LightGreen,LightGreen.jpg,Red,Red.jpg,,
,,,,,,,,,,,,,,,,,,4,,,,,,,,,,,,,,,,,,,,,,,,,,,,,,60130bd289b4b215f94d9979,001,2021-12-16_23h05.12.872,jm_natural_scene_simialrity_2-12-2021_version2,2021.2.3,Win32,60.0240096,60130bd289b4b215f94d9979,61bbc5c79a1c66460f44041e,61bbc60efc06e4a85c9dadff,,,63,96,1,0,0,response1disk,0.717,13,5,1,0,0,rectangle,13,5,1,0,0,-1,-3,"[91,158,156,16,77,68,17,144,46,83]",13,5,1,0,0,1,50,131,30,1,Turquiose,Turquiose.jpg,Turquiose,Turquiose.jpg,,
,,,,,,,,,,,,,,,,,,4,,,,,,,,,,,,,,,,,,,,,,,,,,,,,,60130bd289b4b215f94d9979,001,2021-12-16_23h05.12.872,jm_natural_scene_simialrity_2-12-2021_version2,2021.2.3,Win32,60.0240096,60130bd289b4b215f94d9979,61bbc5c79a1c66460f44041e,61bbc60efc06e4a85c9dadff,,,55,98,1,0,0,response1disk,0.848,13,9,1,0,0,rectangle,13,9,1,0,0,-1,-3,"[91,158,156,16,77,68,17,144,46,83]",13,9,1,0,0,1,51,132,24,1,DarkGreen,DarkGreen.jpg,DarkGreen,DarkGreen.jpg,,
,,,,,,,,,,,,,,,,,,-3,,,,,,,,,,,,,,,,,,,,,,,,,,,,,,60130bd289b4b215f94d9979,001,2021-12-16_23h05.12.872,jm_natural_scene_simialrity_2-12-2021_version2,2021.2.3,Win32,60.0240096,60130bd289b4b215f94d9979,61bbc5c79a1c66460f44041e,61bbc60efc06e4a85c9dadff,,,-110,30,1,0,0,response7disk,0.784,-6,3,1,0,0,rectangle,-6,3,1,0,0,-1,-3,"[91,158,156,16,77,68,17,144,46,83]",-6,3,1,0,0,1,52,133,79,1,Purple,Purple.jpg,DarkBlue,DarkBlue.jpg,,
,,,,,,,,,,,,,,,,,,-3,,,,,,,,,,,,,,,,,,,,,,,,,,,,,,60130bd289b4b215f94d9979,001,2021-12-16_23h05.12.872,jm_natural_scene_simialrity_2-12-2021_version2,2021.2.3,Win32,60.0240096,60130bd289b4b215f94d9979,61bbc5c79a1c66460f44041e,61bbc60efc06e4a85c9dadff,,,-49,37,1,0,0,response7disk,0.484,-1,1,1,0,0,rectangle,-1,1,1,0,0,-1,-4,"[91,158,156,16,77,68,17,144,46,83]",-1,1,1,0,0,1,53,134,54,1,DarkGreen,DarkGreen.jpg,Yellow,Yellow.jpg,,
,,,,,,,,,,,,,,,,,,-3,,,,,,,,,,,,,,,,,,,,,,,,,,,,,,60130bd289b4b215f94d9979,001,2021-12-16_23h05.12.872,jm_natural_scene_simialrity_2-12-2021_version2,2021.2.3,Win32,60.0240096,60130bd289b4b215f94d9979,61bbc5c79a1c66460f44041e,61bbc60efc06e4a85c9dadff,,,-79,30,1,0,0,response7disk,0.533,12,-3,1,0,0,rectangle,12,-3,1,0,0,-1,3,"[91,158,156,16,77,68,17,144,46,83]",12,-3,1,0,0,1,54,135,3,1,Red,Red.jpg,DarkGreen,DarkGreen.jpg,,
,,,,,,,,,,,,,,,,,,-3,,,,,,,,,,,,,,,,,,,,,,,,,,,,,,60130bd289b4b215f94d9979,001,2021-12-16_23h05.12.872,jm_natural_scene_simialrity_2-12-2021_version2,2021.2.3,Win32,60.0240096,60130bd289b4b215f94d9979,61bbc5c79a1c66460f44041e,61bbc60efc06e4a85c9dadff,,,-74,30,1,0,0,response7disk,0.434,-2,-5,1,0,0,rectangle,-2,-5,1,0,0,-1,-4,"[91,158,156,16,77,68,17,144,46,83]",-2,-5,1,0,0,1,55,136,73,1,Pink,Pink.jpg,Turquiose,Turquiose.jpg,,
,,,,,,,,,,,,,,,,,,-3,,,,,,,,,,,,,,,,,,,,,,,,,,,,,,60130bd289b4b215f94d9979,001,2021-12-16_23h05.12.872,jm_natural_scene_simialrity_2-12-2021_version2,2021.2.3,Win32,60.0240096,60130bd289b4b215f94d9979,61bbc5c79a1c66460f44041e,61bbc60efc06e4a85c9dadff,,,-104,36,1,0,0,response7disk,0.452,-21,2,1,0,0,rectangle,-21,2,1,0,0,-1,1,"[91,158,156,16,77,68,17,144,46,83]",-21,2,1,0,0,1,56,137,29,1,DarkGreen,DarkGreen.jpg,Purple,Purple.jpg,,
,,,,,,,,,,,,,,,,,,-3,,,,,,,,,,,,,,,,,,,,,,,,,,,,,,60130bd289b4b215f94d9979,001,2021-12-16_23h05.12.872,jm_natural_scene_simialrity_2-12-2021_version2,2021.2.3,Win32,60.0240096,60130bd289b4b215f94d9979,61bbc5c79a1c66460f44041e,61bbc60efc06e4a85c9dadff,,,-84,26,1,0,0,response7disk,0.433,-8,5,1,0,0,rectangle,-8,5,1,0,0,-1,1,"[91,158,156,16,77,68,17,144,46,83]",-8,5,1,0,0,1,57,138,69,1,Pink,Pink.jpg,DarkGreen,DarkGreen.jpg,,
,,,,,,,,,,,,,,,,,,4,,,,,,,,,,,,,,,,,,,,,,,,,,,,,,60130bd289b4b215f94d9979,001,2021-12-16_23h05.12.872,jm_natural_scene_simialrity_2-12-2021_version2,2021.2.3,Win32,60.0240096,60130bd289b4b215f94d9979,61bbc5c79a1c66460f44041e,61bbc60efc06e4a85c9dadff,,,53,100,1,0,0,response1disk,0.867,1,11,1,0,0,rectangle,1,11,1,0,0,-1,-1,"[91,158,156,16,77,68,17,144,46,83]",1,11,1,0,0,1,58,139,17,1,LightGreen,LightGreen.jpg,LightGreen,LightGreen.jpg,,
,,,,,,,,,,,,,,,,,,-3,,,,,,,,,,,,,,,,,,,,,,,,,,,,,,60130bd289b4b215f94d9979,001,2021-12-16_23h05.12.872,jm_natural_scene_simialrity_2-12-2021_version2,2021.2.3,Win32,60.0240096,60130bd289b4b215f94d9979,61bbc5c79a1c66460f44041e,61bbc60efc06e4a85c9dadff,,,-72,31,1,0,0,response7disk,0.567,-21,0,1,0,0,rectangle,-21,0,1,0,0,-1,-3,"[91,158,156,16,77,68,17,144,46,83]",-21,0,1,0,0,1,59,140,59,1,Purple,Purple.jpg,Yellow,Yellow.jpg,,
,,,,,,,,,,,,,,,,,,-3,,,,,,,,,,,,,,,,,,,,,,,,,,,,,,60130bd289b4b215f94d9979,001,2021-12-16_23h05.12.872,jm_natural_scene_simialrity_2-12-2021_version2,2021.2.3,Win32,60.0240096,60130bd289b4b215f94d9979,61bbc5c79a1c66460f44041e,61bbc60efc06e4a85c9dadff,,,-80,48,1,0,0,response7disk,0.7,-9,9,1,0,0,rectangle,-9,9,1,0,0,-1,1,"[91,158,156,16,77,68,17,144,46,83]",-9,9,1,0,0,1,60,141,65,1,Purple,Purple.jpg,LightGreen,LightGreen.jpg,,
,,,,,,,,,,,,,,,,,,-4,,,,,,,,,,,,,,,,,,,,,,,,,,,,,,60130bd289b4b215f94d9979,001,2021-12-16_23h05.12.872,jm_natural_scene_simialrity_2-12-2021_version2,2021.2.3,Win32,60.0240096,60130bd289b4b215f94d9979,61bbc5c79a1c66460f44041e,61bbc60efc06e4a85c9dadff,,,-34,77,1,0,0,response7disk,1.267,9,-17,1,0,0,rectangle,9,-17,1,0,0,-1,-3,"[91,158,156,16,77,68,17,144,46,83]",9,-17,1,0,0,1,61,142,48,1,Turquiose,Turquiose.jpg,Red,Red.jpg,,
,,,,,,,,,,,,,,,,,,-3,,,,,,,,,,,,,,,,,,,,,,,,,,,,,,60130bd289b4b215f94d9979,001,2021-12-16_23h05.12.872,jm_natural_scene_simialrity_2-12-2021_version2,2021.2.3,Win32,60.0240096,60130bd289b4b215f94d9979,61bbc5c79a1c66460f44041e,61bbc60efc06e4a85c9dadff,,,-85,42,1,0,0,response7disk,1.002,-9,-7,1,0,0,rectangle,49,-95,1,0,0,1,1,"[91,158,156,16,77,68,17,144,46,83]",-2,13,1,0,0,1,62,143,71,1,LightBlue,LightBlue.jpg,Turquiose,Turquiose.jpg,response3disk_3,rectangle
,,,,,,,,,,,,,,,,,,-3,,,,,,,,,,,,,,,,,,,,,,,,,,,,,,60130bd289b4b215f94d9979,001,2021-12-16_23h05.12.872,jm_natural_scene_simialrity_2-12-2021_version2,2021.2.3,Win32,60.0240096,60130bd289b4b215f94d9979,61bbc5c79a1c66460f44041e,61bbc60efc06e4a85c9dadff,,,-59,41,1,0,0,response7disk,0.966,1,-13,1,0,0,rectangle,1,-13,1,0,0,1,2,"[91,158,156,16,77,68,17,144,46,83]",1,-13,1,0,0,1,63,144,72,1,DarkBlue,DarkBlue.jpg,Turquiose,Turquiose.jpg,,
,,,,,,,,,,,,,,,,,,-3,,,,,,,,,,,,,,,,,,,,,,,,,,,,,,60130bd289b4b215f94d9979,001,2021-12-16_23h05.12.872,jm_natural_scene_simialrity_2-12-2021_version2,2021.2.3,Win32,60.0240096,60130bd289b4b215f94d9979,61bbc5c79a1c66460f44041e,61bbc60efc06e4a85c9dadff,,,-57,36,1,0,0,response7disk,0.7,-2,-10,1,0,0,rectangle,-2,-10,1,0,0,1,-1,"[91,158,156,16,77,68,17,144,46,83]",-2,-10,1,0,0,1,64,145,11,1,Yellow,Yellow.jpg,DarkGreen,DarkGreen.jpg,,
,,,,,,,,,,,,,,,,,,-3,,,,,,,,,,,,,,,,,,,,,,,,,,,,,,60130bd289b4b215f94d9979,001,2021-12-16_23h05.12.872,jm_natural_scene_simialrity_2-12-2021_version2,2021.2.3,Win32,60.0240096,60130bd289b4b215f94d9979,61bbc5c79a1c66460f44041e,61bbc60efc06e4a85c9dadff,,,-67,35,1,0,0,response7disk,0.701,1,-12,1,0,0,rectangle,1,-12,1,0,0,1,-4,"[91,158,156,16,77,68,17,144,46,83]",1,-12,1,0,0,1,65,146,6,1,Red,Red.jpg,DarkBlue,DarkBlue.jpg,,
,,,,,,,,,,,,,,,,,,-3,,,,,,,,,,,,,,,,,,,,,,,,,,,,,,60130bd289b4b215f94d9979,001,2021-12-16_23h05.12.872,jm_natural_scene_simialrity_2-12-2021_version2,2021.2.3,Win32,60.0240096,60130bd289b4b215f94d9979,61bbc5c79a1c66460f44041e,61bbc60efc06e4a85c9dadff,,,-55,38,1,0,0,response7disk,0.817,3,-3,1,0,0,rectangle,3,-3,1,0,0,1,-2,"[91,158,156,16,77,68,17,144,46,83]",3,-3,1,0,0,1,66,147,33,1,Turquiose,Turquiose.jpg,Pink,Pink.jpg,,
,,,,,,,,,,,,,,,,,,-3,,,,,,,,,,,,,,,,,,,,,,,,,,,,,,60130bd289b4b215f94d9979,001,2021-12-16_23h05.12.872,jm_natural_scene_simialrity_2-12-2021_version2,2021.2.3,Win32,60.0240096,60130bd289b4b215f94d9979,61bbc5c79a1c66460f44041e,61bbc60efc06e4a85c9dadff,,,-67,43,1,0,0,response7disk,0.601,-4,-1,1,0,0,rectangle,-4,-1,1,0,0,1,-3,"[91,158,156,16,77,68,17,144,46,83]",-4,-1,1,0,0,1,67,148,77,1,Purple,Purple.jpg,LightBlue,LightBlue.jpg,,
,,,,,,,,,,,,,,,,,,4,,,,,,,,,,,,,,,,,,,,,,,,,,,,,,60130bd289b4b215f94d9979,001,2021-12-16_23h05.12.872,jm_natural_scene_simialrity_2-12-2021_version2,2021.2.3,Win32,60.0240096,60130bd289b4b215f94d9979,61bbc5c79a1c66460f44041e,61bbc60efc06e4a85c9dadff,,,44,101,1,0,0,response1disk,0.733,-4,6,1,0,0,rectangle,-4,6,1,0,0,1,2,"[91,158,156,16,77,68,17,144,46,83]",-4,6,1,0,0,1,68,149,0,1,Red,Red.jpg,Red,Red.jpg,,
,,,,,,,,,,,,,,,,,,-3,,,,,,,,,,,,,,,,,,,,,,,,,,,,,,60130bd289b4b215f94d9979,001,2021-12-16_23h05.12.872,jm_natural_scene_simialrity_2-12-2021_version2,2021.2.3,Win32,60.0240096,60130bd289b4b215f94d9979,61bbc5c79a1c66460f44041e,61bbc60efc06e4a85c9dadff,,,-77,37,1,0,0,response7disk,0.567,3,7,1,0,0,rectangle,3,7,1,0,0,1,1,"[91,158,156,16,77,68,17,144,46,83]",3,7,1,0,0,1,69,150,50,1,DarkBlue,DarkBlue.jpg,Red,Red.jpg,,
,,,,,,,,,,,,,,,,,,-3,,,,,,,,,,,,,,,,,,,,,,,,,,,,,,60130bd289b4b215f94d9979,001,2021-12-16_23h05.12.872,jm_natural_scene_simialrity_2-12-2021_version2,2021.2.3,Win32,60.0240096,60130bd289b4b215f94d9979,61bbc5c79a1c66460f44041e,61bbc60efc06e4a85c9dadff,,,-78,48,1,0,0,response7disk,0.484,-20,7,1,0,0,rectangle,-20,7,1,0,0,1,3,"[91,158,156,16,77,68,17,144,46,83]",-20,7,1,0,0,1,70,151,52,1,Purple,Purple.jpg,Red,Red.jpg,,
,,,,,,,,,,,,,,,,,,-1,,,,,,,,,,,,,,,,,,,,,,,,,,,,,,60130bd289b4b215f94d9979,001,2021-12-16_23h05.12.872,jm_natural_scene_simialrity_2-12-2021_version2,2021.2.3,Win32,60.0240096,60130bd289b4b215f94d9979,61bbc5c79a1c66460f44041e,61bbc60efc06e4a85c9dadff,,,-28,-115,1,0,0,response5disk,8.828,-14,2,1,0,0,rectangle,-14,2,1,0,0,1,2,"[91,158,156,16,77,68,17,144,46,83]",-14,2,1,0,0,1,71,152,40,1,DarkBlue,DarkBlue.jpg,Pink,Pink.jpg,,
,,,,,,,,,,,,,,,,,,-3,,,,,,,,,,,,,,,,,,,,,,,,,,,,,,60130bd289b4b215f94d9979,001,2021-12-16_23h05.12.872,jm_natural_scene_simialrity_2-12-2021_version2,2021.2.3,Win32,60.0240096,60130bd289b4b215f94d9979,61bbc5c79a1c66460f44041e,61bbc60efc06e4a85c9dadff,,,-55,34,1,0,0,response7disk,0.751,-5,-11,1,0,0,rectangle,-5,-11,1,0,0,1,-1,"[91,158,156,16,77,68,17,144,46,83]",-5,-11,1,0,0,1,72,153,61,1,Turquiose,Turquiose.jpg,LightGreen,LightGreen.jpg,,
,,,,,,,,,,,,,,,,,,-3,,,,,,,,,,,,,,,,,,,,,,,,,,,,,,60130bd289b4b215f94d9979,001,2021-12-16_23h05.12.872,jm_natural_scene_simialrity_2-12-2021_version2,2021.2.3,Win32,60.0240096,60130bd289b4b215f94d9979,61bbc5c79a1c66460f44041e,61bbc60efc06e4a85c9dadff,,,-37,22,1,0,0,response7disk,1.051,-2,-9,1,0,0,rectangle,-2,-9,1,0,0,1,-1,"[91,158,156,16,77,68,17,144,46,83]",-2,-9,1,0,0,1,73,154,62,1,LightBlue,LightBlue.jpg,LightGreen,LightGreen.jpg,,
,,,,,,,,,,,,,,,,,,-3,,,,,,,,,,,,,,,,,,,,,,,,,,,,,,60130bd289b4b215f94d9979,001,2021-12-16_23h05.12.872,jm_natural_scene_simialrity_2-12-2021_version2,2021.2.3,Win32,60.0240096,60130bd289b4b215f94d9979,61bbc5c79a1c66460f44041e,61bbc60efc06e4a85c9dadff,,,-80,37,1,0,0,response7disk,0.683,-22,-15,1,0,0,rectangle,-39,-100,1,0,0,-1,-1,"[91,158,156,16,77,68,17,144,46,83]",-2,-4,1,0,0,1,74,155,63,1,DarkBlue,DarkBlue.jpg,LightGreen,LightGreen.jpg,response5disk_3,rectangle
,,,,,,,,,,,,,,,,,,-3,,,,,,,,,,,,,,,,,,,,,,,,,,,,,,60130bd289b4b215f94d9979,001,2021-12-16_23h05.12.872,jm_natural_scene_simialrity_2-12-2021_version2,2021.2.3,Win32,60.0240096,60130bd289b4b215f94d9979,61bbc5c79a1c66460f44041e,61bbc60efc06e4a85c9dadff,,,-58,38,1,0,0,response7disk,0.785,-2,-15,1,0,0,rectangle,-2,-15,1,0,0,-1,-1,"[91,158,156,16,77,68,17,144,46,83]",-2,-15,1,0,0,1,75,156,8,1,Red,Red.jpg,Purple,Purple.jpg,,
,,,,,,,,,,,,,,,,,,-3,,,,,,,,,,,,,,,,,,,,,,,,,,,,,,60130bd289b4b215f94d9979,001,2021-12-16_23h05.12.872,jm_natural_scene_simialrity_2-12-2021_version2,2021.2.3,Win32,60.0240096,60130bd289b4b215f94d9979,61bbc5c79a1c66460f44041e,61bbc60efc06e4a85c9dadff,,,-59,23,1,0,0,response7disk,0.617,-20,-12,1,0,0,rectangle,-48,76,1,0,0,-4,-4,"[91,158,156,16,77,68,17,144,46,83]",-6,-23,1,0,0,1,76,157,23,1,LightGreen,LightGreen.jpg,Purple,Purple.jpg,response7disk_3,rectangle
,,,,,,,,,,,,,,,,,,-3,,,,,,,,,,,,,,,,,,,,,,,,,,,,,,60130bd289b4b215f94d9979,001,2021-12-16_23h05.12.872,jm_natural_scene_simialrity_2-12-2021_version2,2021.2.3,Win32,60.0240096,60130bd289b4b215f94d9979,61bbc5c79a1c66460f44041e,61bbc60efc06e4a85c9dadff,,,-77,42,1,0,0,response7disk,0.816,14,2,1,0,0,rectangle,14,2,1,0,0,-4,2,"[91,158,156,16,77,68,17,144,46,83]",14,2,1,0,0,1,77,158,75,1,DarkBlue,DarkBlue.jpg,LightBlue,LightBlue.jpg,,
,,,,,,,,,,,,,,,,,,2,,,,,,,,,,,,,,,,,,,,,,,,,,,,,,60130bd289b4b215f94d9979,001,2021-12-16_23h05.12.872,jm_natural_scene_simialrity_2-12-2021_version2,2021.2.3,Win32,60.0240096,60130bd289b4b215f94d9979,61bbc5c79a1c66460f44041e,61bbc60efc06e4a85c9dadff,,,89,-23,1,0,0,response3disk,1.484,-25,8,1,0,0,rectangle,-25,8,1,0,0,-4,-4,"[91,158,156,16,77,68,17,144,46,83]",-25,8,1,0,0,1,78,159,60,1,DarkGreen,DarkGreen.jpg,LightGreen,LightGreen.jpg,,
,,,,,,,,,,,,,,,,,,2,,,,,,,,,,,,,,,,,,,,,,,,,,,,,,60130bd289b4b215f94d9979,001,2021-12-16_23h05.12.872,jm_natural_scene_simialrity_2-12-2021_version2,2021.2.3,Win32,60.0240096,60130bd289b4b215f94d9979,61bbc5c79a1c66460f44041e,61bbc60efc06e4a85c9dadff,,,68,-30,1,0,0,response3disk,0.918,1,0,1,0,0,rectangle,1,0,1,0,0,-4,-2,"[91,158,156,16,77,68,17,144,46,83]",1,0,1,0,0,1,79,160,7,1,Red,Red.jpg,Pink,Pink.jpg,,
,,,,,,,,,,,,,,,,,,-2,,,,,,,,,,,,,,,,,,,,,,,,,,,,,,60130bd289b4b215f94d9979,001,2021-12-16_23h05.12.872,jm_natural_scene_simialrity_2-12-2021_version2,2021.2.3,Win32,60.0240096,60130bd289b4b215f94d9979,61bbc5c79a1c66460f44041e,61bbc60efc06e4a85c9dadff,,,-67,-30,1,0,0,response5disk,0.735,-10,19,1,0,0,rectangle,-10,19,1,0,0,-4,-1,"[91,158,156,16,77,68,17,144,46,83]",-10,19,1,0,0,1,80,161,16,1,Yellow,Yellow.jpg,Purple,Purple.jpg,,
