key_resp.keys,key_resp.rt,key_resp_16.keys,key_resp_16.rt,key_resp_2.keys,key_resp_2.rt,key_resp_3.keys,key_resp_3.rt,key_resp_19.keys,key_resp_19.rt,key_resp_10.keys,key_resp_10.rt,mouse_prac.x,mouse_prac.y,mouse_prac.leftButton,mouse_prac.midButton,mouse_prac.rightButton,mouse_prac.clicked_name,similarity,mouse_10.x,mouse_10.y,mouse_10.leftButton,mouse_10.midButton,mouse_10.rightButton,mouse_10.clicked_name,mouse_catch_prac.x,mouse_catch_prac.y,mouse_catch_prac.leftButton,mouse_catch_prac.midButton,mouse_catch_prac.rightButton,catchnumberprac,mouse_6.x,mouse_6.y,mouse_6.leftButton,mouse_6.midButton,mouse_6.rightButton,during_prac.thisRepN,during_prac.thisTrialN,during_prac.thisN,during_prac.thisIndex,during_prac.ran,trailimage1,trial1adress,trailimage2,trial2adress,participant,session,date,expName,psychopyVersion,OS,frameRate,PROLIFIC_PID,STUDY_ID,SESSION_ID,mouse_catch_prac.clicked_name,catchprac,mouse_6.clicked_name,key_resp_22.keys,key_resp_22.rt,mouse.x,mouse.y,mouse.leftButton,mouse.midButton,mouse.rightButton,mouse.clicked_name,response_time,mouse_2.x,mouse_2.y,mouse_2.leftButton,mouse_2.midButton,mouse_2.rightButton,mouse_2.clicked_name,mouse_3.x,mouse_3.y,mouse_3.leftButton,mouse_3.midButton,mouse_3.rightButton,catchresponse,catchnumber,catchtrialorder,mouse_11.x,mouse_11.y,mouse_11.leftButton,mouse_11.midButton,mouse_11.rightButton,trials_2.thisRepN,trials_2.thisTrialN,trials_2.thisN,trials_2.thisIndex,trials_2.ran,image1,image1adress,image2,image2adress,mouse_3.clicked_name,mouse_11.clicked_name
space,3.4565,space,23.1782,space,5.0038,space,11.2938,space,30.136,space,8.0585,68.80001247,118.3999953,1,0,0,response1disk_5,4,0.800011456,-5.600006521,1,0,0,rectangle_8,0.800011456,-5.600006521,1,0,0,-3,0.800011456,-5.600006521,1,0,0,0,0,0,3,1,trail2,trail2.jpg,trail2,trail2.jpg,610177c9106fb8fd8badf8b7,001,2021-12-16_17h07.29.257,jm_natural_scene_simialrity_2-12-2021_version2,2021.2.3,Win32,58.84083554,610177c9106fb8fd8badf8b7,61bbc5c79a1c66460f44041e,61bbc6504ac63c67db7b070c,,,,,,,,,,,,,,,,,,,,,,,,,,,,,,,,,,,,,,,,,,
,,,,,,,,,,,,-39.99998915,35.9999941,1,0,0,response7disk_5,-3,-6.399939823,-0.800006449,1,0,0,rectangle_8,-6.399939823,-0.800006449,1,0,0,-3,-6.399939823,-0.800006449,1,0,0,0,1,1,4,1,trail2,trail2.jpg,trail3,trail3.jpg,610177c9106fb8fd8badf8b7,001,2021-12-16_17h07.29.257,jm_natural_scene_simialrity_2-12-2021_version2,2021.2.3,Win32,58.84083554,610177c9106fb8fd8badf8b7,61bbc5c79a1c66460f44041e,61bbc6504ac63c67db7b070c,,,,,,,,,,,,,,,,,,,,,,,,,,,,,,,,,,,,,,,,,,
,,,,,,,,,,,,46.40001214,71.99999464,1,0,0,response1disk_5,4,4.800011516,1.599993587,1,0,0,rectangle_8,4.800011516,1.599993587,1,0,0,-3,4.800011516,1.599993587,1,0,0,0,2,2,5,1,trail3,trail3.jpg,trail3,trail3.jpg,610177c9106fb8fd8badf8b7,001,2021-12-16_17h07.29.257,jm_natural_scene_simialrity_2-12-2021_version2,2021.2.3,Win32,58.84083554,610177c9106fb8fd8badf8b7,61bbc5c79a1c66460f44041e,61bbc6504ac63c67db7b070c,,,,,,,,,,,,,,,,,,,,,,,,,,,,,,,,,,,,,,,,,,
,,,,,,,,,,,,-73.59998965,40.79999417,1,0,0,response7disk_5,-3,-10.39993988,-1.600006461,1,0,0,rectangle_8,-10.39993988,-1.600006461,1,0,0,-3,-10.39993988,-1.600006461,1,0,0,0,3,3,2,1,trail1,trail1.jpg,trail3,trail3.jpg,610177c9106fb8fd8badf8b7,001,2021-12-16_17h07.29.257,jm_natural_scene_simialrity_2-12-2021_version2,2021.2.3,Win32,58.84083554,610177c9106fb8fd8badf8b7,61bbc5c79a1c66460f44041e,61bbc6504ac63c67db7b070c,,,,,,,,,,,,,,,,,,,,,,,,,,,,,,,,,,,,,,,,,,
,,,,,,,,,,,,36.00001198,75.19997027,1,0,0,response1disk_5,4,-4.799988627,-8.800006568,1,0,0,rectangle_8,-114.3999414,54.39999437,1,0,0,-3,4.000011504,-1.600006461,1,0,0,0,4,4,0,1,trail1,trail1.jpg,trail1,trail1.jpg,610177c9106fb8fd8badf8b7,001,2021-12-16_17h07.29.257,jm_natural_scene_simialrity_2-12-2021_version2,2021.2.3,Win32,58.84083554,610177c9106fb8fd8badf8b7,61bbc5c79a1c66460f44041e,61bbc6504ac63c67db7b070c,response7disk_7,-3,rectangle_4,,,,,,,,,,,,,,,,,,,,,,,,,,,,,,,,,,,,,,,
,,,,,,,,,,,,-48.79998928,99.99999505,1,0,0,response7disk_5,-4,-7.199988663,-4.800006509,1,0,0,rectangle_8,-7.199988663,-4.800006509,1,0,0,-3,-7.199988663,-4.800006509,1,0,0,0,5,5,1,1,trail1,trail1.jpg,trail2,trail2.jpg,610177c9106fb8fd8badf8b7,001,2021-12-16_17h07.29.257,jm_natural_scene_simialrity_2-12-2021_version2,2021.2.3,Win32,58.84083554,610177c9106fb8fd8badf8b7,61bbc5c79a1c66460f44041e,61bbc6504ac63c67db7b070c,,,,,,,,,,,,,,,,,,,,,,,,,,,,,,,,,,,,,,,,,,
,,,,,,,,,,,,,,,,,,2,,,,,,,,,,,,,,,,,,,,,,,,,,,610177c9106fb8fd8badf8b7,001,2021-12-16_17h07.29.257,jm_natural_scene_simialrity_2-12-2021_version2,2021.2.3,Win32,58.84083554,610177c9106fb8fd8badf8b7,61bbc5c79a1c66460f44041e,61bbc6504ac63c67db7b070c,,,,space,2.3159,62.40001237,-27.20000684,1,0,0,response3disk,8.2838,8.000011563,-3.200006485,1,0,0,rectangle,8.000011563,-3.200006485,1,0,0,,-1,"[159,51,148,138,40,84,130,128,12,74]",8.000011563,-3.200006485,1,0,0,0,0,0,61,1,Turquiose,Turquiose.jpg,LightGreen,LightGreen.jpg,,
,,,,,,,,,,,,,,,,,,-4,,,,,,,,,,,,,,,,,,,,,,,,,,,610177c9106fb8fd8badf8b7,001,2021-12-16_17h07.29.257,jm_natural_scene_simialrity_2-12-2021_version2,2021.2.3,Win32,58.84083554,610177c9106fb8fd8badf8b7,61bbc5c79a1c66460f44041e,61bbc6504ac63c67db7b070c,,,,,,-85.59998983,108.7999952,1,0,0,response7disk,1.6831,8.800011575,-12.80000663,1,0,0,rectangle,8.800011575,-12.80000663,1,0,0,,-2,"[159,51,148,138,40,84,130,128,12,74]",8.800011575,-12.80000663,1,0,0,0,1,1,54,1,DarkGreen,DarkGreen.jpg,Yellow,Yellow.jpg,,
,,,,,,,,,,,,,,,,,,-4,,,,,,,,,,,,,,,,,,,,,,,,,,,610177c9106fb8fd8badf8b7,001,2021-12-16_17h07.29.257,jm_natural_scene_simialrity_2-12-2021_version2,2021.2.3,Win32,58.84083554,610177c9106fb8fd8badf8b7,61bbc5c79a1c66460f44041e,61bbc6504ac63c67db7b070c,,,,,,-31.19998902,79.99999475,1,0,0,response7disk,1.0791,1.14441E-05,3.19999361,1,0,0,rectangle,1.14441E-05,3.19999361,1,0,0,,-2,"[159,51,148,138,40,84,130,128,12,74]",1.14441E-05,3.19999361,1,0,0,0,2,2,16,1,Yellow,Yellow.jpg,Purple,Purple.jpg,,
,,,,,,,,,,,,,,,,,,2,,,,,,,,,,,,,,,,,,,,,,,,,,,610177c9106fb8fd8badf8b7,001,2021-12-16_17h07.29.257,jm_natural_scene_simialrity_2-12-2021_version2,2021.2.3,Win32,58.84083554,610177c9106fb8fd8badf8b7,61bbc5c79a1c66460f44041e,61bbc6504ac63c67db7b070c,,,,,,77.6000126,-52.00000721,1,0,0,response3disk,2.329,-5.599988639,3.19999361,1,0,0,rectangle,-5.599988639,3.19999361,1,0,0,,-3,"[159,51,148,138,40,84,130,128,12,74]",-5.599988639,3.19999361,1,0,0,0,3,3,77,1,Purple,Purple.jpg,LightBlue,LightBlue.jpg,,
,,,,,,,,,,,,,,,,,,-4,,,,,,,,,,,,,,,,,,,,,,,,,,,610177c9106fb8fd8badf8b7,001,2021-12-16_17h07.29.257,jm_natural_scene_simialrity_2-12-2021_version2,2021.2.3,Win32,58.84083554,610177c9106fb8fd8badf8b7,61bbc5c79a1c66460f44041e,61bbc6504ac63c67db7b070c,,,,,,-55.99998939,103.1999707,1,0,0,response7disk,1.2049,0.800011456,-1.600006461,1,0,0,rectangle,0.800011456,-1.600006461,1,0,0,,2,"[159,51,148,138,40,84,130,128,12,74]",0.800011456,-1.600006461,1,0,0,0,4,4,26,1,DarkGreen,DarkGreen.jpg,LightBlue,LightBlue.jpg,,
,,,,,,,,,,,,,,,,,,-4,,,,,,,,,,,,,,,,,,,,,,,,,,,610177c9106fb8fd8badf8b7,001,2021-12-16_17h07.29.257,jm_natural_scene_simialrity_2-12-2021_version2,2021.2.3,Win32,58.84083554,610177c9106fb8fd8badf8b7,61bbc5c79a1c66460f44041e,61bbc6504ac63c67db7b070c,,,,,,-55.99998939,131.9999955,1,0,0,response7disk,1.3538,1.600060296,3.999993622,1,0,0,rectangle,1.600060296,3.999993622,1,0,0,,-3,"[159,51,148,138,40,84,130,128,12,74]",1.600060296,3.999993622,1,0,0,0,5,5,69,1,Pink,Pink.jpg,DarkGreen,DarkGreen.jpg,,
,,,,,,,,,,,,,,,,,,-4,,,,,,,,,,,,,,,,,,,,,,,,,,,610177c9106fb8fd8badf8b7,001,2021-12-16_17h07.29.257,jm_natural_scene_simialrity_2-12-2021_version2,2021.2.3,Win32,58.84083554,610177c9106fb8fd8badf8b7,61bbc5c79a1c66460f44041e,61bbc6504ac63c67db7b070c,,,,,,-35.19998908,83.99999481,1,0,0,response7disk,1.1042,-8.799988687,0.799993575,1,0,0,rectangle,-8.799988687,0.799993575,1,0,0,,-2,"[159,51,148,138,40,84,130,128,12,74]",-8.799988687,0.799993575,1,0,0,0,6,6,5,1,Red,Red.jpg,LightBlue,LightBlue.jpg,,
,,,,,,,,,,,,,,,,,,-3,,,,,,,,,,,,,,,,,,,,,,,,,,,610177c9106fb8fd8badf8b7,001,2021-12-16_17h07.29.257,jm_natural_scene_simialrity_2-12-2021_version2,2021.2.3,Win32,58.84083554,610177c9106fb8fd8badf8b7,61bbc5c79a1c66460f44041e,61bbc6504ac63c67db7b070c,,,,,,-63.1999895,35.9999941,1,0,0,response7disk,1.4388,-21.59998888,3.999993622,1,0,0,rectangle,-21.59998888,3.999993622,1,0,0,,-1,"[159,51,148,138,40,84,130,128,12,74]",-21.59998888,3.999993622,1,0,0,0,7,7,43,1,Pink,Pink.jpg,Purple,Purple.jpg,,
,,,,,,,,,,,,,,,,,,4,,,,,,,,,,,,,,,,,,,,,,,,,,,610177c9106fb8fd8badf8b7,001,2021-12-16_17h07.29.257,jm_natural_scene_simialrity_2-12-2021_version2,2021.2.3,Win32,58.84083554,610177c9106fb8fd8badf8b7,61bbc5c79a1c66460f44041e,61bbc6504ac63c67db7b070c,,,,,,40.80001205,90.39999491,1,0,0,response1disk,1.0145,0.800011456,-1.600006461,1,0,0,rectangle,0.800011456,-1.600006461,1,0,0,,-2,"[159,51,148,138,40,84,130,128,12,74]",0.800011456,-1.600006461,1,0,0,0,8,8,0,1,Red,Red.jpg,Red,Red.jpg,,
,,,,,,,,,,,,,,,,,,-4,,,,,,,,,,,,,,,,,,,,,,,,,,,610177c9106fb8fd8badf8b7,001,2021-12-16_17h07.29.257,jm_natural_scene_simialrity_2-12-2021_version2,2021.2.3,Win32,58.84083554,610177c9106fb8fd8badf8b7,61bbc5c79a1c66460f44041e,61bbc6504ac63c67db7b070c,,,,,,-43.99998921,107.1999707,1,0,0,response7disk,0.9051,-3.199988604,-11.2000066,1,0,0,rectangle,-3.199988604,-11.2000066,1,0,0,,2,"[159,51,148,138,40,84,130,128,12,74]",-3.199988604,-11.2000066,1,0,0,0,9,9,28,1,DarkGreen,DarkGreen.jpg,Pink,Pink.jpg,,
,,,,,,,,,,,,,,,,,,1,,,,,,,,,,,,,,,,,,,,,,,,,,,610177c9106fb8fd8badf8b7,001,2021-12-16_17h07.29.257,jm_natural_scene_simialrity_2-12-2021_version2,2021.2.3,Win32,58.84083554,610177c9106fb8fd8badf8b7,61bbc5c79a1c66460f44041e,61bbc6504ac63c67db7b070c,,,,,,48.00001216,-69.60000747,1,0,0,response3disk,1.9041,-2.399939764,-0.800006449,1,0,0,rectangle,-2.399939764,-0.800006449,1,0,0,,1,"[159,51,148,138,40,84,130,128,12,74]",-2.399939764,-0.800006449,1,0,0,0,10,10,32,1,Turquiose,Turquiose.jpg,DarkBlue,DarkBlue.jpg,,
,,,,,,,,,,,,,,,,,,-4,,,,,,,,,,,,,,,,,,,,,,,,,,,610177c9106fb8fd8badf8b7,001,2021-12-16_17h07.29.257,jm_natural_scene_simialrity_2-12-2021_version2,2021.2.3,Win32,58.84083554,610177c9106fb8fd8badf8b7,61bbc5c79a1c66460f44041e,61bbc6504ac63c67db7b070c,,,,,,-39.99998915,93.59999496,1,0,0,response7disk,1.3998,-0.799988568,-10.40000659,1,0,0,rectangle,-82.39994096,35.9999941,1,0,0,-3,-3,"[159,51,148,138,40,84,130,128,12,74]",8.000011563,7.19999367,1,0,0,0,11,11,33,1,Turquiose,Turquiose.jpg,Pink,Pink.jpg,response7disk_3,rectangle
,,,,,,,,,,,,,,,,,,1,,,,,,,,,,,,,,,,,,,,,,,,,,,610177c9106fb8fd8badf8b7,001,2021-12-16_17h07.29.257,jm_natural_scene_simialrity_2-12-2021_version2,2021.2.3,Win32,58.84083554,610177c9106fb8fd8badf8b7,61bbc5c79a1c66460f44041e,61bbc6504ac63c67db7b070c,,,,,,41.60006089,-58.40000731,1,0,0,response3disk,3.7208,5.600060356,-8.000006557,1,0,0,rectangle,5.600060356,-8.000006557,1,0,0,-3,1,"[159,51,148,138,40,84,130,128,12,74]",5.600060356,-8.000006557,1,0,0,0,12,12,52,1,Purple,Purple.jpg,Red,Red.jpg,,
,,,,,,,,,,,,,,,,,,-4,,,,,,,,,,,,,,,,,,,,,,,,,,,610177c9106fb8fd8badf8b7,001,2021-12-16_17h07.29.257,jm_natural_scene_simialrity_2-12-2021_version2,2021.2.3,Win32,58.84083554,610177c9106fb8fd8badf8b7,61bbc5c79a1c66460f44041e,61bbc6504ac63c67db7b070c,,,,,,-39.19998914,77.59999472,1,0,0,response7disk,0.9207,-4.799988627,-6.4373E-06,1,0,0,rectangle,-4.799988627,-6.4373E-06,1,0,0,-3,1,"[159,51,148,138,40,84,130,128,12,74]",-4.799988627,-6.4373E-06,1,0,0,0,13,13,76,1,Pink,Pink.jpg,LightBlue,LightBlue.jpg,,
,,,,,,,,,,,,,,,,,,2,,,,,,,,,,,,,,,,,,,,,,,,,,,610177c9106fb8fd8badf8b7,001,2021-12-16_17h07.29.257,jm_natural_scene_simialrity_2-12-2021_version2,2021.2.3,Win32,58.84083554,610177c9106fb8fd8badf8b7,61bbc5c79a1c66460f44041e,61bbc6504ac63c67db7b070c,,,,,,78.40001261,-59.20000732,1,0,0,response3disk,1.7548,5.600060356,-0.800006449,1,0,0,rectangle,5.600060356,-0.800006449,1,0,0,-3,1,"[159,51,148,138,40,84,130,128,12,74]",5.600060356,-0.800006449,1,0,0,0,14,14,71,1,LightBlue,LightBlue.jpg,Turquiose,Turquiose.jpg,,
,,,,,,,,,,,,,,,,,,-4,,,,,,,,,,,,,,,,,,,,,,,,,,,610177c9106fb8fd8badf8b7,001,2021-12-16_17h07.29.257,jm_natural_scene_simialrity_2-12-2021_version2,2021.2.3,Win32,58.84083554,610177c9106fb8fd8badf8b7,61bbc5c79a1c66460f44041e,61bbc6504ac63c67db7b070c,,,,,,-71.19998962,91.99999493,1,0,0,response7disk,1.3378,-0.799988568,-9.60000658,1,0,0,rectangle,-0.799988568,-9.60000658,1,0,0,-3,3,"[159,51,148,138,40,84,130,128,12,74]",-0.799988568,-9.60000658,1,0,0,0,15,15,59,1,Purple,Purple.jpg,Yellow,Yellow.jpg,,
,,,,,,,,,,,,,,,,,,4,,,,,,,,,,,,,,,,,,,,,,,,,,,610177c9106fb8fd8badf8b7,001,2021-12-16_17h07.29.257,jm_natural_scene_simialrity_2-12-2021_version2,2021.2.3,Win32,58.84083554,610177c9106fb8fd8badf8b7,61bbc5c79a1c66460f44041e,61bbc6504ac63c67db7b070c,,,,,,45.60006095,77.59999472,1,0,0,response1disk,0.9548,2.40001148,-4.800006509,1,0,0,rectangle,2.40001148,-4.800006509,1,0,0,-3,1,"[159,51,148,138,40,84,130,128,12,74]",2.40001148,-4.800006509,1,0,0,0,16,16,24,1,DarkGreen,DarkGreen.jpg,DarkGreen,DarkGreen.jpg,,
,,,,,,,,,,,,,,,,,,2,,,,,,,,,,,,,,,,,,,,,,,,,,,610177c9106fb8fd8badf8b7,001,2021-12-16_17h07.29.257,jm_natural_scene_simialrity_2-12-2021_version2,2021.2.3,Win32,58.84083554,610177c9106fb8fd8badf8b7,61bbc5c79a1c66460f44041e,61bbc6504ac63c67db7b070c,,,,,,40.00001204,-29.60000688,1,0,0,response3disk,0.9877,5.600060356,-5.600006521,1,0,0,rectangle,5.600060356,-5.600006521,1,0,0,-3,-4,"[159,51,148,138,40,84,130,128,12,74]",5.600060356,-5.600006521,1,0,0,0,17,17,38,1,LightBlue,LightBlue.jpg,Purple,Purple.jpg,,
,,,,,,,,,,,,,,,,,,-4,,,,,,,,,,,,,,,,,,,,,,,,,,,610177c9106fb8fd8badf8b7,001,2021-12-16_17h07.29.257,jm_natural_scene_simialrity_2-12-2021_version2,2021.2.3,Win32,58.84083554,610177c9106fb8fd8badf8b7,61bbc5c79a1c66460f44041e,61bbc6504ac63c67db7b070c,,,,,,-51.19998932,118.3999953,1,0,0,response7disk,1.1543,8.800011575,-10.40000659,1,0,0,rectangle,8.800011575,-10.40000659,1,0,0,-3,-1,"[159,51,148,138,40,84,130,128,12,74]",8.800011575,-10.40000659,1,0,0,0,18,18,55,1,Turquiose,Turquiose.jpg,Yellow,Yellow.jpg,,
,,,,,,,,,,,,,,,,,,-4,,,,,,,,,,,,,,,,,,,,,,,,,,,610177c9106fb8fd8badf8b7,001,2021-12-16_17h07.29.257,jm_natural_scene_simialrity_2-12-2021_version2,2021.2.3,Win32,58.84083554,610177c9106fb8fd8badf8b7,61bbc5c79a1c66460f44041e,61bbc6504ac63c67db7b070c,,,,,,-27.19998896,67.19997015,1,0,0,response7disk,0.9034,-10.39993988,3.19999361,1,0,0,rectangle,-10.39993988,3.19999361,1,0,0,-3,-4,"[159,51,148,138,40,84,130,128,12,74]",-10.39993988,3.19999361,1,0,0,0,19,19,64,1,Pink,Pink.jpg,LightGreen,LightGreen.jpg,,
,,,,,,,,,,,,,,,,,,-4,,,,,,,,,,,,,,,,,,,,,,,,,,,610177c9106fb8fd8badf8b7,001,2021-12-16_17h07.29.257,jm_natural_scene_simialrity_2-12-2021_version2,2021.2.3,Win32,58.84083554,610177c9106fb8fd8badf8b7,61bbc5c79a1c66460f44041e,61bbc6504ac63c67db7b070c,,,,,,-35.19998908,77.59999472,1,0,0,response7disk,1.3661,-8.799988687,0.799993575,1,0,0,rectangle,-8.799988687,0.799993575,1,0,0,-3,-3,"[159,51,148,138,40,84,130,128,12,74]",-8.799988687,0.799993575,1,0,0,0,20,20,8,1,Red,Red.jpg,Purple,Purple.jpg,,
,,,,,,,,,,,,,,,,,,2,,,,,,,,,,,,,,,,,,,,,,,,,,,610177c9106fb8fd8badf8b7,001,2021-12-16_17h07.29.257,jm_natural_scene_simialrity_2-12-2021_version2,2021.2.3,Win32,58.84083554,610177c9106fb8fd8badf8b7,61bbc5c79a1c66460f44041e,61bbc6504ac63c67db7b070c,,,,,,97.6000129,-50.40000719,1,0,0,response3disk,1.1035,9.600060415,-8.800006568,1,0,0,rectangle,9.600060415,-8.800006568,1,0,0,-3,-4,"[159,51,148,138,40,84,130,128,12,74]",9.600060415,-8.800006568,1,0,0,0,21,21,36,1,LightBlue,LightBlue.jpg,DarkBlue,DarkBlue.jpg,,
,,,,,,,,,,,,,,,,,,3,,,,,,,,,,,,,,,,,,,,,,,,,,,610177c9106fb8fd8badf8b7,001,2021-12-16_17h07.29.257,jm_natural_scene_simialrity_2-12-2021_version2,2021.2.3,Win32,58.84083554,610177c9106fb8fd8badf8b7,61bbc5c79a1c66460f44041e,61bbc6504ac63c67db7b070c,,,,,,98.40001291,31.19996961,1,0,0,response1disk,2.2879,-0.799988568,8.799993694,1,0,0,rectangle,-0.799988568,8.799993694,1,0,0,-3,-3,"[159,51,148,138,40,84,130,128,12,74]",-0.799988568,8.799993694,1,0,0,0,22,22,60,1,DarkGreen,DarkGreen.jpg,LightGreen,LightGreen.jpg,,
,,,,,,,,,,,,,,,,,,-4,,,,,,,,,,,,,,,,,,,,,,,,,,,610177c9106fb8fd8badf8b7,001,2021-12-16_17h07.29.257,jm_natural_scene_simialrity_2-12-2021_version2,2021.2.3,Win32,58.84083554,610177c9106fb8fd8badf8b7,61bbc5c79a1c66460f44041e,61bbc6504ac63c67db7b070c,,,,,,-40.79998916,76.79999471,1,0,0,response7disk,0.9042,-10.39993988,-1.600006461,1,0,0,rectangle,-10.39993988,-1.600006461,1,0,0,-3,1,"[159,51,148,138,40,84,130,128,12,74]",-10.39993988,-1.600006461,1,0,0,0,23,23,29,1,DarkGreen,DarkGreen.jpg,Purple,Purple.jpg,,
,,,,,,,,,,,,,,,,,,2,,,,,,,,,,,,,,,,,,,,,,,,,,,610177c9106fb8fd8badf8b7,001,2021-12-16_17h07.29.257,jm_natural_scene_simialrity_2-12-2021_version2,2021.2.3,Win32,58.84083554,610177c9106fb8fd8badf8b7,61bbc5c79a1c66460f44041e,61bbc6504ac63c67db7b070c,,,,,,45.60006095,-30.40000689,1,0,0,response3disk,2.8166,16.00001168,-4.800006509,1,0,0,rectangle,16.00001168,-4.800006509,1,0,0,-3,2,"[159,51,148,138,40,84,130,128,12,74]",16.00001168,-4.800006509,1,0,0,0,24,24,15,1,Yellow,Yellow.jpg,Pink,Pink.jpg,,
,,,,,,,,,,,,,,,,,,1,,,,,,,,,,,,,,,,,,,,,,,,,,,610177c9106fb8fd8badf8b7,001,2021-12-16_17h07.29.257,jm_natural_scene_simialrity_2-12-2021_version2,2021.2.3,Win32,58.84083554,610177c9106fb8fd8badf8b7,61bbc5c79a1c66460f44041e,61bbc6504ac63c67db7b070c,,,,,,38.40001202,-59.20000732,1,0,0,response3disk,1.7207,-3.999988616,0.799993575,1,0,0,rectangle,-3.999988616,0.799993575,1,0,0,-3,-2,"[159,51,148,138,40,84,130,128,12,74]",-3.999988616,0.799993575,1,0,0,0,25,25,74,1,Purple,Purple.jpg,Turquiose,Turquiose.jpg,,
,,,,,,,,,,,,,,,,,,4,,,,,,,,,,,,,,,,,,,,,,,,,,,610177c9106fb8fd8badf8b7,001,2021-12-16_17h07.29.257,jm_natural_scene_simialrity_2-12-2021_version2,2021.2.3,Win32,58.84083554,610177c9106fb8fd8badf8b7,61bbc5c79a1c66460f44041e,61bbc6504ac63c67db7b070c,,,,,,43.20001209,103.9999951,1,0,0,response1disk,1.7501,9.600060415,-4.000006497,1,0,0,rectangle,9.600060415,-4.000006497,1,0,0,-3,2,"[159,51,148,138,40,84,130,128,12,74]",9.600060415,-4.000006497,1,0,0,0,26,26,44,1,Purple,Purple.jpg,Purple,Purple.jpg,,
,,,,,,,,,,,,,,,,,,-4,,,,,,,,,,,,,,,,,,,,,,,,,,,610177c9106fb8fd8badf8b7,001,2021-12-16_17h07.29.257,jm_natural_scene_simialrity_2-12-2021_version2,2021.2.3,Win32,58.84083554,610177c9106fb8fd8badf8b7,61bbc5c79a1c66460f44041e,61bbc6504ac63c67db7b070c,,,,,,-35.99998909,96.79999501,1,0,0,response7disk,1.3502,1.14441E-05,0.799993575,1,0,0,rectangle,1.14441E-05,0.799993575,1,0,0,-3,-3,"[159,51,148,138,40,84,130,128,12,74]",1.14441E-05,0.799993575,1,0,0,0,27,27,37,1,LightBlue,LightBlue.jpg,Pink,Pink.jpg,,
,,,,,,,,,,,,,,,,,,2,,,,,,,,,,,,,,,,,,,,,,,,,,,610177c9106fb8fd8badf8b7,001,2021-12-16_17h07.29.257,jm_natural_scene_simialrity_2-12-2021_version2,2021.2.3,Win32,58.84083554,610177c9106fb8fd8badf8b7,61bbc5c79a1c66460f44041e,61bbc6504ac63c67db7b070c,,,,,,52.80001223,-24.80000681,1,0,0,response3disk,0.9997,6.400011539,-0.800006449,1,0,0,rectangle,6.400011539,-0.800006449,1,0,0,-3,-3,"[159,51,148,138,40,84,130,128,12,74]",6.400011539,-0.800006449,1,0,0,0,28,28,31,1,Turquiose,Turquiose.jpg,LightBlue,LightBlue.jpg,,
,,,,,,,,,,,,,,,,,,3,,,,,,,,,,,,,,,,,,,,,,,,,,,610177c9106fb8fd8badf8b7,001,2021-12-16_17h07.29.257,jm_natural_scene_simialrity_2-12-2021_version2,2021.2.3,Win32,58.84083554,610177c9106fb8fd8badf8b7,61bbc5c79a1c66460f44041e,61bbc6504ac63c67db7b070c,,,,,,84.0000127,35.9999941,1,0,0,response1disk,1.5214,8.800011575,-8.800006568,1,0,0,rectangle,8.800011575,-8.800006568,1,0,0,-3,-1,"[159,51,148,138,40,84,130,128,12,74]",8.800011575,-8.800006568,1,0,0,0,29,29,75,1,DarkBlue,DarkBlue.jpg,LightBlue,LightBlue.jpg,,
,,,,,,,,,,,,,,,,,,-4,,,,,,,,,,,,,,,,,,,,,,,,,,,610177c9106fb8fd8badf8b7,001,2021-12-16_17h07.29.257,jm_natural_scene_simialrity_2-12-2021_version2,2021.2.3,Win32,58.84083554,610177c9106fb8fd8badf8b7,61bbc5c79a1c66460f44041e,61bbc6504ac63c67db7b070c,,,,,,-33.59998906,74.39999467,1,0,0,response7disk,0.8542,-11.19998872,6.399993658,1,0,0,rectangle,-11.19998872,6.399993658,1,0,0,-3,-4,"[159,51,148,138,40,84,130,128,12,74]",-11.19998872,6.399993658,1,0,0,0,30,30,58,1,Pink,Pink.jpg,Yellow,Yellow.jpg,,
,,,,,,,,,,,,,,,,,,-4,,,,,,,,,,,,,,,,,,,,,,,,,,,610177c9106fb8fd8badf8b7,001,2021-12-16_17h07.29.257,jm_natural_scene_simialrity_2-12-2021_version2,2021.2.3,Win32,58.84083554,610177c9106fb8fd8badf8b7,61bbc5c79a1c66460f44041e,61bbc6504ac63c67db7b070c,,,,,,-33.59998906,95.99999499,1,0,0,response7disk,1.2,-7.999988675,15.19999379,1,0,0,rectangle,-7.999988675,15.19999379,1,0,0,-3,-3,"[159,51,148,138,40,84,130,128,12,74]",-7.999988675,15.19999379,1,0,0,0,31,31,57,1,DarkBlue,DarkBlue.jpg,Yellow,Yellow.jpg,,
,,,,,,,,,,,,,,,,,,2,,,,,,,,,,,,,,,,,,,,,,,,,,,610177c9106fb8fd8badf8b7,001,2021-12-16_17h07.29.257,jm_natural_scene_simialrity_2-12-2021_version2,2021.2.3,Win32,58.84083554,610177c9106fb8fd8badf8b7,61bbc5c79a1c66460f44041e,61bbc6504ac63c67db7b070c,,,,,,64.80001241,-32.00000691,1,0,0,response3disk,1.3214,-2.399939764,-1.600006461,1,0,0,rectangle,-2.399939764,-1.600006461,1,0,0,-3,-4,"[159,51,148,138,40,84,130,128,12,74]",-2.399939764,-1.600006461,1,0,0,0,32,32,34,1,Turquiose,Turquiose.jpg,Purple,Purple.jpg,,
,,,,,,,,,,,,,,,,,,-4,,,,,,,,,,,,,,,,,,,,,,,,,,,610177c9106fb8fd8badf8b7,001,2021-12-16_17h07.29.257,jm_natural_scene_simialrity_2-12-2021_version2,2021.2.3,Win32,58.84083554,610177c9106fb8fd8badf8b7,61bbc5c79a1c66460f44041e,61bbc6504ac63c67db7b070c,,,,,,-35.19998908,70.39999461,1,0,0,response7disk,0.9209,-14.39993994,15.19999379,1,0,0,rectangle,-14.39993994,15.19999379,1,0,0,-3,1,"[159,51,148,138,40,84,130,128,12,74]",-14.39993994,15.19999379,1,0,0,0,33,33,63,1,DarkBlue,DarkBlue.jpg,LightGreen,LightGreen.jpg,,
,,,,,,,,,,,,,,,,,,-4,,,,,,,,,,,,,,,,,,,,,,,,,,,610177c9106fb8fd8badf8b7,001,2021-12-16_17h07.29.257,jm_natural_scene_simialrity_2-12-2021_version2,2021.2.3,Win32,58.84083554,610177c9106fb8fd8badf8b7,61bbc5c79a1c66460f44041e,61bbc6504ac63c67db7b070c,,,,,,-39.19998914,89.5999949,1,0,0,response7disk,3.0376,19.20001173,-14.40000665,1,0,0,rectangle,19.20001173,-14.40000665,1,0,0,-3,3,"[159,51,148,138,40,84,130,128,12,74]",19.20001173,-14.40000665,1,0,0,0,34,34,73,1,Pink,Pink.jpg,Turquiose,Turquiose.jpg,,
,,,,,,,,,,,,,,,,,,-4,,,,,,,,,,,,,,,,,,,,,,,,,,,610177c9106fb8fd8badf8b7,001,2021-12-16_17h07.29.257,jm_natural_scene_simialrity_2-12-2021_version2,2021.2.3,Win32,58.84083554,610177c9106fb8fd8badf8b7,61bbc5c79a1c66460f44041e,61bbc6504ac63c67db7b070c,,,,,,-36.7999891,79.19997033,1,0,0,response7disk,1.2831,-6.399939823,7.19999367,1,0,0,rectangle,-6.399939823,7.19999367,1,0,0,-3,-2,"[159,51,148,138,40,84,130,128,12,74]",-6.399939823,7.19999367,1,0,0,0,35,35,70,1,Purple,Purple.jpg,DarkGreen,DarkGreen.jpg,,
,,,,,,,,,,,,,,,,,,-4,,,,,,,,,,,,,,,,,,,,,,,,,,,610177c9106fb8fd8badf8b7,001,2021-12-16_17h07.29.257,jm_natural_scene_simialrity_2-12-2021_version2,2021.2.3,Win32,58.84083554,610177c9106fb8fd8badf8b7,61bbc5c79a1c66460f44041e,61bbc6504ac63c67db7b070c,,,,,,-41.59998918,59.99999446,1,0,0,response7disk,0.8204,-12.79998875,4.799993634,1,0,0,rectangle,-12.79998875,4.799993634,1,0,0,-3,1,"[159,51,148,138,40,84,130,128,12,74]",-12.79998875,4.799993634,1,0,0,0,36,36,21,1,LightGreen,LightGreen.jpg,DarkBlue,DarkBlue.jpg,,
,,,,,,,,,,,,,,,,,,2,,,,,,,,,,,,,,,,,,,,,,,,,,,610177c9106fb8fd8badf8b7,001,2021-12-16_17h07.29.257,jm_natural_scene_simialrity_2-12-2021_version2,2021.2.3,Win32,58.84083554,610177c9106fb8fd8badf8b7,61bbc5c79a1c66460f44041e,61bbc6504ac63c67db7b070c,,,,,,73.60001254,-43.20000708,1,0,0,response3disk,1.5171,-7.999988675,-0.800006449,1,0,0,rectangle,-7.999988675,-0.800006449,1,0,0,-3,-4,"[159,51,148,138,40,84,130,128,12,74]",-7.999988675,-0.800006449,1,0,0,0,37,37,51,1,Pink,Pink.jpg,Red,Red.jpg,,
,,,,,,,,,,,,,,,,,,-4,,,,,,,,,,,,,,,,,,,,,,,,,,,610177c9106fb8fd8badf8b7,001,2021-12-16_17h07.29.257,jm_natural_scene_simialrity_2-12-2021_version2,2021.2.3,Win32,58.84083554,610177c9106fb8fd8badf8b7,61bbc5c79a1c66460f44041e,61bbc6504ac63c67db7b070c,,,,,,-28.79998899,69.5999946,1,0,0,response7disk,1.7333,-1.59998858,14.39999378,1,0,0,rectangle,-1.59998858,14.39999378,1,0,0,-3,-2,"[159,51,148,138,40,84,130,128,12,74]",-1.59998858,14.39999378,1,0,0,0,38,38,2,1,Red,Red.jpg,LightGreen,LightGreen.jpg,,
,,,,,,,,,,,,,,,,,,4,,,,,,,,,,,,,,,,,,,,,,,,,,,610177c9106fb8fd8badf8b7,001,2021-12-16_17h07.29.257,jm_natural_scene_simialrity_2-12-2021_version2,2021.2.3,Win32,58.84083554,610177c9106fb8fd8badf8b7,61bbc5c79a1c66460f44041e,61bbc6504ac63c67db7b070c,,,,,,52.00001222,102.3999951,1,0,0,response1disk,1.1882,-4.799988627,14.39999378,1,0,0,rectangle,56.80001229,37.59999412,1,0,0,3,3,"[159,51,148,138,40,84,130,128,12,74]",-7.999988675,3.999993622,1,0,0,0,39,39,35,1,LightBlue,LightBlue.jpg,LightBlue,LightBlue.jpg,response1disk_3,rectangle
,,,,,,,,,,,,,,,,,,-4,,,,,,,,,,,,,,,,,,,,,,,,,,,610177c9106fb8fd8badf8b7,001,2021-12-16_17h07.29.257,jm_natural_scene_simialrity_2-12-2021_version2,2021.2.3,Win32,58.84083554,610177c9106fb8fd8badf8b7,61bbc5c79a1c66460f44041e,61bbc6504ac63c67db7b070c,,,,,,-37.59998912,82.39999479,1,0,0,response7disk,1.5008,-7.999988675,0.799993575,1,0,0,rectangle,-7.999988675,0.799993575,1,0,0,3,-2,"[159,51,148,138,40,84,130,128,12,74]",-7.999988675,0.799993575,1,0,0,0,40,40,10,1,Yellow,Yellow.jpg,LightGreen,LightGreen.jpg,,
,,,,,,,,,,,,,,,,,,-4,,,,,,,,,,,,,,,,,,,,,,,,,,,610177c9106fb8fd8badf8b7,001,2021-12-16_17h07.29.257,jm_natural_scene_simialrity_2-12-2021_version2,2021.2.3,Win32,58.84083554,610177c9106fb8fd8badf8b7,61bbc5c79a1c66460f44041e,61bbc6504ac63c67db7b070c,,,,,,-46.39994042,87.19997045,1,0,0,response7disk,1.338,-5.599988639,-9.60000658,1,0,0,rectangle,-5.599988639,-9.60000658,1,0,0,3,-3,"[159,51,148,138,40,84,130,128,12,74]",-5.599988639,-9.60000658,1,0,0,0,41,41,40,1,DarkBlue,DarkBlue.jpg,Pink,Pink.jpg,,
,,,,,,,,,,,,,,,,,,-4,,,,,,,,,,,,,,,,,,,,,,,,,,,610177c9106fb8fd8badf8b7,001,2021-12-16_17h07.29.257,jm_natural_scene_simialrity_2-12-2021_version2,2021.2.3,Win32,58.84083554,610177c9106fb8fd8badf8b7,61bbc5c79a1c66460f44041e,61bbc6504ac63c67db7b070c,,,,,,-31.19998902,67.19997015,1,0,0,response7disk,0.7837,-10.39993988,15.19999379,1,0,0,rectangle,-10.39993988,15.19999379,1,0,0,3,-3,"[159,51,148,138,40,84,130,128,12,74]",-10.39993988,15.19999379,1,0,0,0,42,42,4,1,Red,Red.jpg,Turquiose,Turquiose.jpg,,
,,,,,,,,,,,,,,,,,,-4,,,,,,,,,,,,,,,,,,,,,,,,,,,610177c9106fb8fd8badf8b7,001,2021-12-16_17h07.29.257,jm_natural_scene_simialrity_2-12-2021_version2,2021.2.3,Win32,58.84083554,610177c9106fb8fd8badf8b7,61bbc5c79a1c66460f44041e,61bbc6504ac63c67db7b070c,,,,,,-37.59998912,76.79999471,1,0,0,response7disk,0.6873,-8.799988687,3.999993622,1,0,0,rectangle,-8.799988687,3.999993622,1,0,0,3,2,"[159,51,148,138,40,84,130,128,12,74]",-8.799988687,3.999993622,1,0,0,0,43,43,11,1,Yellow,Yellow.jpg,DarkGreen,DarkGreen.jpg,,
,,,,,,,,,,,,,,,,,,2,,,,,,,,,,,,,,,,,,,,,,,,,,,610177c9106fb8fd8badf8b7,001,2021-12-16_17h07.29.257,jm_natural_scene_simialrity_2-12-2021_version2,2021.2.3,Win32,58.84083554,610177c9106fb8fd8badf8b7,61bbc5c79a1c66460f44041e,61bbc6504ac63c67db7b070c,,,,,,66.40001243,-41.60000706,1,0,0,response3disk,1.8217,-13.59998876,7.999993682,1,0,0,rectangle,-13.59998876,7.999993682,1,0,0,3,-3,"[159,51,148,138,40,84,130,128,12,74]",-13.59998876,7.999993682,1,0,0,0,44,44,1,1,Red,Red.jpg,Yellow,Yellow.jpg,,
,,,,,,,,,,,,,,,,,,-4,,,,,,,,,,,,,,,,,,,,,,,,,,,610177c9106fb8fd8badf8b7,001,2021-12-16_17h07.29.257,jm_natural_scene_simialrity_2-12-2021_version2,2021.2.3,Win32,58.84083554,610177c9106fb8fd8badf8b7,61bbc5c79a1c66460f44041e,61bbc6504ac63c67db7b070c,,,,,,-51.99998933,115.1999709,1,0,0,response7disk,1.1374,1.600060296,-6.4373E-06,1,0,0,rectangle,1.600060296,-6.4373E-06,1,0,0,3,2,"[159,51,148,138,40,84,130,128,12,74]",1.600060296,-6.4373E-06,1,0,0,0,45,45,19,1,LightGreen,LightGreen.jpg,Turquiose,Turquiose.jpg,,
,,,,,,,,,,,,,,,,,,-4,,,,,,,,,,,,,,,,,,,,,,,,,,,610177c9106fb8fd8badf8b7,001,2021-12-16_17h07.29.257,jm_natural_scene_simialrity_2-12-2021_version2,2021.2.3,Win32,58.84083554,610177c9106fb8fd8badf8b7,61bbc5c79a1c66460f44041e,61bbc6504ac63c67db7b070c,,,,,,-35.19998908,66.39999455,1,0,0,response7disk,0.8961,-8.799988687,7.19999367,1,0,0,rectangle,-8.799988687,7.19999367,1,0,0,3,2,"[159,51,148,138,40,84,130,128,12,74]",-8.799988687,7.19999367,1,0,0,0,46,46,56,1,LightBlue,LightBlue.jpg,Yellow,Yellow.jpg,,
,,,,,,,,,,,,,,,,,,-4,,,,,,,,,,,,,,,,,,,,,,,,,,,610177c9106fb8fd8badf8b7,001,2021-12-16_17h07.29.257,jm_natural_scene_simialrity_2-12-2021_version2,2021.2.3,Win32,58.84083554,610177c9106fb8fd8badf8b7,61bbc5c79a1c66460f44041e,61bbc6504ac63c67db7b070c,,,,,,-28.79998899,59.19997003,1,0,0,response7disk,1.0621,-7.199988663,1.599993587,1,0,0,rectangle,-7.199988663,1.599993587,1,0,0,3,3,"[159,51,148,138,40,84,130,128,12,74]",-7.199988663,1.599993587,1,0,0,0,47,47,80,1,Purple,Purple.jpg,Pink,Pink.jpg,,
,,,,,,,,,,,,,,,,,,4,,,,,,,,,,,,,,,,,,,,,,,,,,,610177c9106fb8fd8badf8b7,001,2021-12-16_17h07.29.257,jm_natural_scene_simialrity_2-12-2021_version2,2021.2.3,Win32,58.84083554,610177c9106fb8fd8badf8b7,61bbc5c79a1c66460f44041e,61bbc6504ac63c67db7b070c,,,,,,44.80001211,134.3999956,1,0,0,response1disk,1.3374,8.000011563,7.19999367,1,0,0,rectangle,8.000011563,7.19999367,1,0,0,3,-1,"[159,51,148,138,40,84,130,128,12,74]",8.000011563,7.19999367,1,0,0,0,48,48,42,1,Pink,Pink.jpg,Pink,Pink.jpg,,
,,,,,,,,,,,,,,,,,,-4,,,,,,,,,,,,,,,,,,,,,,,,,,,610177c9106fb8fd8badf8b7,001,2021-12-16_17h07.29.257,jm_natural_scene_simialrity_2-12-2021_version2,2021.2.3,Win32,58.84083554,610177c9106fb8fd8badf8b7,61bbc5c79a1c66460f44041e,61bbc6504ac63c67db7b070c,,,,,,-39.99998915,70.39999461,1,0,0,response7disk,3.3165,-15.19998878,8.799993694,1,0,0,rectangle,-15.19998878,8.799993694,1,0,0,3,-2,"[159,51,148,138,40,84,130,128,12,74]",-15.19998878,8.799993694,1,0,0,0,49,49,12,1,Yellow,Yellow.jpg,Turquiose,Turquiose.jpg,,
,,,,,,,,,,,,,,,,,,-4,,,,,,,,,,,,,,,,,,,,,,,,,,,610177c9106fb8fd8badf8b7,001,2021-12-16_17h07.29.257,jm_natural_scene_simialrity_2-12-2021_version2,2021.2.3,Win32,58.84083554,610177c9106fb8fd8badf8b7,61bbc5c79a1c66460f44041e,61bbc6504ac63c67db7b070c,,,,,,-39.99998915,71.99999464,1,0,0,response7disk,0.9887,-5.599988639,-8.000006557,1,0,0,rectangle,-88.79998988,-48.80000716,1,0,0,3,-2,"[159,51,148,138,40,84,130,128,12,74]",-1.59998858,-4.000006497,1,0,0,0,50,50,66,1,Turquiose,Turquiose.jpg,DarkGreen,DarkGreen.jpg,response5disk_3,rectangle
,,,,,,,,,,,,,,,,,,-4,,,,,,,,,,,,,,,,,,,,,,,,,,,610177c9106fb8fd8badf8b7,001,2021-12-16_17h07.29.257,jm_natural_scene_simialrity_2-12-2021_version2,2021.2.3,Win32,58.84083554,610177c9106fb8fd8badf8b7,61bbc5c79a1c66460f44041e,61bbc6504ac63c67db7b070c,,,,,,-32.79998904,59.99999446,1,0,0,response7disk,0.9177,-16.79998881,15.19999379,1,0,0,rectangle,-16.79998881,15.19999379,1,0,0,3,-3,"[159,51,148,138,40,84,130,128,12,74]",-16.79998881,15.19999379,1,0,0,0,51,51,23,1,LightGreen,LightGreen.jpg,Purple,Purple.jpg,,
,,,,,,,,,,,,,,,,,,-4,,,,,,,,,,,,,,,,,,,,,,,,,,,610177c9106fb8fd8badf8b7,001,2021-12-16_17h07.29.257,jm_natural_scene_simialrity_2-12-2021_version2,2021.2.3,Win32,58.84083554,610177c9106fb8fd8badf8b7,61bbc5c79a1c66460f44041e,61bbc6504ac63c67db7b070c,,,,,,-35.19998908,63.99999452,1,0,0,response7disk,0.7162,-10.39993988,7.19999367,1,0,0,rectangle,-10.39993988,7.19999367,1,0,0,3,2,"[159,51,148,138,40,84,130,128,12,74]",-10.39993988,7.19999367,1,0,0,0,52,52,27,1,DarkGreen,DarkGreen.jpg,DarkBlue,DarkBlue.jpg,,
,,,,,,,,,,,,,,,,,,-4,,,,,,,,,,,,,,,,,,,,,,,,,,,610177c9106fb8fd8badf8b7,001,2021-12-16_17h07.29.257,jm_natural_scene_simialrity_2-12-2021_version2,2021.2.3,Win32,58.84083554,610177c9106fb8fd8badf8b7,61bbc5c79a1c66460f44041e,61bbc6504ac63c67db7b070c,,,,,,-35.99998909,51.19996991,1,0,0,response7disk,0.6673,-8.799988687,-6.400006533,1,0,0,rectangle,-8.799988687,-6.400006533,1,0,0,3,2,"[159,51,148,138,40,84,130,128,12,74]",-8.799988687,-6.400006533,1,0,0,0,53,53,22,1,LightGreen,LightGreen.jpg,Pink,Pink.jpg,,
,,,,,,,,,,,,,,,,,,3,,,,,,,,,,,,,,,,,,,,,,,,,,,610177c9106fb8fd8badf8b7,001,2021-12-16_17h07.29.257,jm_natural_scene_simialrity_2-12-2021_version2,2021.2.3,Win32,58.84083554,610177c9106fb8fd8badf8b7,61bbc5c79a1c66460f44041e,61bbc6504ac63c67db7b070c,,,,,,72.80001253,49.5999943,1,0,0,response1disk,1.2663,17.60006053,7.19999367,1,0,0,rectangle,17.60006053,7.19999367,1,0,0,3,3,"[159,51,148,138,40,84,130,128,12,74]",17.60006053,7.19999367,1,0,0,0,54,54,18,1,LightGreen,LightGreen.jpg,DarkGreen,DarkGreen.jpg,,
,,,,,,,,,,,,,,,,,,-4,,,,,,,,,,,,,,,,,,,,,,,,,,,610177c9106fb8fd8badf8b7,001,2021-12-16_17h07.29.257,jm_natural_scene_simialrity_2-12-2021_version2,2021.2.3,Win32,58.84083554,610177c9106fb8fd8badf8b7,61bbc5c79a1c66460f44041e,61bbc6504ac63c67db7b070c,,,,,,-22.39994006,49.5999943,1,0,0,response7disk,0.7475,-7.199988663,-2.400006473,1,0,0,rectangle,-7.199988663,-2.400006473,1,0,0,3,1,"[159,51,148,138,40,84,130,128,12,74]",-7.199988663,-2.400006473,1,0,0,0,55,55,3,1,Red,Red.jpg,DarkGreen,DarkGreen.jpg,,
,,,,,,,,,,,,,,,,,,-4,,,,,,,,,,,,,,,,,,,,,,,,,,,610177c9106fb8fd8badf8b7,001,2021-12-16_17h07.29.257,jm_natural_scene_simialrity_2-12-2021_version2,2021.2.3,Win32,58.84083554,610177c9106fb8fd8badf8b7,61bbc5c79a1c66460f44041e,61bbc6504ac63c67db7b070c,,,,,,-34.39994024,68.79999459,1,0,0,response7disk,0.9499,-7.999988675,8.799993694,1,0,0,rectangle,-7.999988675,8.799993694,1,0,0,3,3,"[159,51,148,138,40,84,130,128,12,74]",-7.999988675,8.799993694,1,0,0,0,56,56,25,1,DarkGreen,DarkGreen.jpg,Turquiose,Turquiose.jpg,,
,,,,,,,,,,,,,,,,,,4,,,,,,,,,,,,,,,,,,,,,,,,,,,610177c9106fb8fd8badf8b7,001,2021-12-16_17h07.29.257,jm_natural_scene_simialrity_2-12-2021_version2,2021.2.3,Win32,58.84083554,610177c9106fb8fd8badf8b7,61bbc5c79a1c66460f44041e,61bbc6504ac63c67db7b070c,,,,,,25.60006065,63.19997009,1,0,0,response1disk,1.0044,8.800011575,-21.60000676,1,0,0,rectangle,8.800011575,-21.60000676,1,0,0,3,3,"[159,51,148,138,40,84,130,128,12,74]",8.800011575,-21.60000676,1,0,0,0,57,57,39,1,DarkBlue,DarkBlue.jpg,DarkBlue,DarkBlue.jpg,,
,,,,,,,,,,,,,,,,,,3,,,,,,,,,,,,,,,,,,,,,,,,,,,610177c9106fb8fd8badf8b7,001,2021-12-16_17h07.29.257,jm_natural_scene_simialrity_2-12-2021_version2,2021.2.3,Win32,58.84083554,610177c9106fb8fd8badf8b7,61bbc5c79a1c66460f44041e,61bbc6504ac63c67db7b070c,,,,,,79.20001262,42.39999419,1,0,0,response1disk,1.1048,7.200011551,-7.200006545,1,0,0,rectangle,7.200011551,-7.200006545,1,0,0,3,2,"[159,51,148,138,40,84,130,128,12,74]",7.200011551,-7.200006545,1,0,0,0,58,58,7,1,Red,Red.jpg,Pink,Pink.jpg,,
,,,,,,,,,,,,,,,,,,-4,,,,,,,,,,,,,,,,,,,,,,,,,,,610177c9106fb8fd8badf8b7,001,2021-12-16_17h07.29.257,jm_natural_scene_simialrity_2-12-2021_version2,2021.2.3,Win32,58.84083554,610177c9106fb8fd8badf8b7,61bbc5c79a1c66460f44041e,61bbc6504ac63c67db7b070c,,,,,,-31.19998902,61.59999448,1,0,0,response7disk,0.7833,-13.59998876,3.999993622,1,0,0,rectangle,-13.59998876,3.999993622,1,0,0,3,2,"[159,51,148,138,40,84,130,128,12,74]",-13.59998876,3.999993622,1,0,0,0,59,59,49,1,LightBlue,LightBlue.jpg,Red,Red.jpg,,
,,,,,,,,,,,,,,,,,,-4,,,,,,,,,,,,,,,,,,,,,,,,,,,610177c9106fb8fd8badf8b7,001,2021-12-16_17h07.29.257,jm_natural_scene_simialrity_2-12-2021_version2,2021.2.3,Win32,58.84083554,610177c9106fb8fd8badf8b7,61bbc5c79a1c66460f44041e,61bbc6504ac63c67db7b070c,,,,,,-33.59998906,51.99999434,1,0,0,response7disk,0.8031,-11.99998873,1.599993587,1,0,0,rectangle,-11.99998873,1.599993587,1,0,0,3,1,"[159,51,148,138,40,84,130,128,12,74]",-11.99998873,1.599993587,1,0,0,0,60,60,6,1,Red,Red.jpg,DarkBlue,DarkBlue.jpg,,
,,,,,,,,,,,,,,,,,,-4,,,,,,,,,,,,,,,,,,,,,,,,,,,610177c9106fb8fd8badf8b7,001,2021-12-16_17h07.29.257,jm_natural_scene_simialrity_2-12-2021_version2,2021.2.3,Win32,58.84083554,610177c9106fb8fd8badf8b7,61bbc5c79a1c66460f44041e,61bbc6504ac63c67db7b070c,,,,,,-34.39994024,52.79999435,1,0,0,response7disk,0.8658,-11.19998872,12.79999375,1,0,0,rectangle,-11.19998872,12.79999375,1,0,0,3,-3,"[159,51,148,138,40,84,130,128,12,74]",-11.19998872,12.79999375,1,0,0,0,61,61,53,1,LightGreen,LightGreen.jpg,Yellow,Yellow.jpg,,
,,,,,,,,,,,,,,,,,,-3,,,,,,,,,,,,,,,,,,,,,,,,,,,610177c9106fb8fd8badf8b7,001,2021-12-16_17h07.29.257,jm_natural_scene_simialrity_2-12-2021_version2,2021.2.3,Win32,58.84083554,610177c9106fb8fd8badf8b7,61bbc5c79a1c66460f44041e,61bbc6504ac63c67db7b070c,,,,,,-60.79998946,53.59999436,1,0,0,response7disk,4.7209,-19.99998885,19.99999386,1,0,0,rectangle,-19.99998885,19.99999386,1,0,0,-4,-1,"[159,51,148,138,40,84,130,128,12,74]",-19.99998885,19.99999386,1,0,0,0,62,62,62,1,LightBlue,LightBlue.jpg,LightGreen,LightGreen.jpg,,
,,,,,,,,,,,,,,,,,,2,,,,,,,,,,,,,,,,,,,,,,,,,,,610177c9106fb8fd8badf8b7,001,2021-12-16_17h07.29.257,jm_natural_scene_simialrity_2-12-2021_version2,2021.2.3,Win32,58.84083554,610177c9106fb8fd8badf8b7,61bbc5c79a1c66460f44041e,61bbc6504ac63c67db7b070c,,,,,,80.80001265,-38.40000701,1,0,0,response3disk,1.5538,0.800011456,-3.200006485,1,0,0,rectangle,0.800011456,-3.200006485,1,0,0,-4,-2,"[159,51,148,138,40,84,130,128,12,74]",0.800011456,-3.200006485,1,0,0,0,63,63,72,1,DarkBlue,DarkBlue.jpg,Turquiose,Turquiose.jpg,,
,,,,,,,,,,,,,,,,,,-4,,,,,,,,,,,,,,,,,,,,,,,,,,,610177c9106fb8fd8badf8b7,001,2021-12-16_17h07.29.257,jm_natural_scene_simialrity_2-12-2021_version2,2021.2.3,Win32,58.84083554,610177c9106fb8fd8badf8b7,61bbc5c79a1c66460f44041e,61bbc6504ac63c67db7b070c,,,,,,-33.59998906,58.39999443,1,0,0,response7disk,1.967,-7.199988663,1.599993587,1,0,0,rectangle,-7.199988663,1.599993587,1,0,0,-4,3,"[159,51,148,138,40,84,130,128,12,74]",-7.199988663,1.599993587,1,0,0,0,64,64,67,1,LightBlue,LightBlue.jpg,DarkGreen,DarkGreen.jpg,,
,,,,,,,,,,,,,,,,,,4,,,,,,,,,,,,,,,,,,,,,,,,,,,610177c9106fb8fd8badf8b7,001,2021-12-16_17h07.29.257,jm_natural_scene_simialrity_2-12-2021_version2,2021.2.3,Win32,58.84083554,610177c9106fb8fd8badf8b7,61bbc5c79a1c66460f44041e,61bbc6504ac63c67db7b070c,,,,,,36.80001199,71.99999464,1,0,0,response1disk,0.8658,4.800011516,16.79999381,1,0,0,rectangle,4.800011516,16.79999381,1,0,0,-4,-1,"[159,51,148,138,40,84,130,128,12,74]",4.800011516,16.79999381,1,0,0,0,65,65,9,1,Yellow,Yellow.jpg,Yellow,Yellow.jpg,,
,,,,,,,,,,,,,,,,,,4,,,,,,,,,,,,,,,,,,,,,,,,,,,610177c9106fb8fd8badf8b7,001,2021-12-16_17h07.29.257,jm_natural_scene_simialrity_2-12-2021_version2,2021.2.3,Win32,58.84083554,610177c9106fb8fd8badf8b7,61bbc5c79a1c66460f44041e,61bbc6504ac63c67db7b070c,,,,,,31.20001191,59.99999446,1,0,0,response1disk,1.0301,4.800011516,-3.200006485,1,0,0,rectangle,4.800011516,-3.200006485,1,0,0,-4,3,"[159,51,148,138,40,84,130,128,12,74]",4.800011516,-3.200006485,1,0,0,0,66,66,68,1,DarkBlue,DarkBlue.jpg,DarkGreen,DarkGreen.jpg,,
,,,,,,,,,,,,,,,,,,-4,,,,,,,,,,,,,,,,,,,,,,,,,,,610177c9106fb8fd8badf8b7,001,2021-12-16_17h07.29.257,jm_natural_scene_simialrity_2-12-2021_version2,2021.2.3,Win32,58.84083554,610177c9106fb8fd8badf8b7,61bbc5c79a1c66460f44041e,61bbc6504ac63c67db7b070c,,,,,,-35.99998909,68.79999459,1,0,0,response7disk,0.822,-16.79998881,11.99999374,1,0,0,rectangle,-16.79998881,11.99999374,1,0,0,-4,-1,"[159,51,148,138,40,84,130,128,12,74]",-16.79998881,11.99999374,1,0,0,0,67,67,65,1,Purple,Purple.jpg,LightGreen,LightGreen.jpg,,
,,,,,,,,,,,,,,,,,,3,,,,,,,,,,,,,,,,,,,,,,,,,,,610177c9106fb8fd8badf8b7,001,2021-12-16_17h07.29.257,jm_natural_scene_simialrity_2-12-2021_version2,2021.2.3,Win32,58.84083554,610177c9106fb8fd8badf8b7,61bbc5c79a1c66460f44041e,61bbc6504ac63c67db7b070c,,,,,,80.80001265,21.59999388,1,0,0,response1disk,1.8034,8.800011575,-1.600006461,1,0,0,rectangle,8.800011575,-1.600006461,1,0,0,-4,2,"[159,51,148,138,40,84,130,128,12,74]",8.800011575,-1.600006461,1,0,0,0,68,68,79,1,Purple,Purple.jpg,DarkBlue,DarkBlue.jpg,,
,,,,,,,,,,,,,,,,,,-4,,,,,,,,,,,,,,,,,,,,,,,,,,,610177c9106fb8fd8badf8b7,001,2021-12-16_17h07.29.257,jm_natural_scene_simialrity_2-12-2021_version2,2021.2.3,Win32,58.84083554,610177c9106fb8fd8badf8b7,61bbc5c79a1c66460f44041e,61bbc6504ac63c67db7b070c,,,,,,-44.79998922,64.79999453,1,0,0,response7disk,1.4998,-2.399939764,-4.800006509,1,0,0,rectangle,-2.399939764,-4.800006509,1,0,0,-4,-4,"[159,51,148,138,40,84,130,128,12,74]",-2.399939764,-4.800006509,1,0,0,0,69,69,46,1,LightGreen,LightGreen.jpg,Red,Red.jpg,,
,,,,,,,,,,,,,,,,,,4,,,,,,,,,,,,,,,,,,,,,,,,,,,610177c9106fb8fd8badf8b7,001,2021-12-16_17h07.29.257,jm_natural_scene_simialrity_2-12-2021_version2,2021.2.3,Win32,58.84083554,610177c9106fb8fd8badf8b7,61bbc5c79a1c66460f44041e,61bbc6504ac63c67db7b070c,,,,,,32.80001193,58.39999443,1,0,0,response1disk,0.9537,8.800011575,9.599993706,1,0,0,rectangle,8.800011575,9.599993706,1,0,0,-4,-3,"[159,51,148,138,40,84,130,128,12,74]",8.800011575,9.599993706,1,0,0,0,70,70,30,1,Turquiose,Turquiose.jpg,Turquiose,Turquiose.jpg,,
,,,,,,,,,,,,,,,,,,-4,,,,,,,,,,,,,,,,,,,,,,,,,,,610177c9106fb8fd8badf8b7,001,2021-12-16_17h07.29.257,jm_natural_scene_simialrity_2-12-2021_version2,2021.2.3,Win32,58.84083554,610177c9106fb8fd8badf8b7,61bbc5c79a1c66460f44041e,61bbc6504ac63c67db7b070c,,,,,,-30.39994018,63.19997009,1,0,0,response7disk,0.8164,-11.99998873,3.19999361,1,0,0,rectangle,-11.99998873,3.19999361,1,0,0,-4,1,"[159,51,148,138,40,84,130,128,12,74]",-11.99998873,3.19999361,1,0,0,0,71,71,20,1,LightGreen,LightGreen.jpg,LightBlue,LightBlue.jpg,,
,,,,,,,,,,,,,,,,,,-4,,,,,,,,,,,,,,,,,,,,,,,,,,,610177c9106fb8fd8badf8b7,001,2021-12-16_17h07.29.257,jm_natural_scene_simialrity_2-12-2021_version2,2021.2.3,Win32,58.84083554,610177c9106fb8fd8badf8b7,61bbc5c79a1c66460f44041e,61bbc6504ac63c67db7b070c,,,,,,-35.19998908,55.19996997,1,0,0,response7disk,0.7204,-12.79998875,3.999993622,1,0,0,rectangle,-12.79998875,3.999993622,1,0,0,-4,3,"[159,51,148,138,40,84,130,128,12,74]",-12.79998875,3.999993622,1,0,0,0,72,72,50,1,DarkBlue,DarkBlue.jpg,Red,Red.jpg,,
,,,,,,,,,,,,,,,,,,-2,,,,,,,,,,,,,,,,,,,,,,,,,,,610177c9106fb8fd8badf8b7,001,2021-12-16_17h07.29.257,jm_natural_scene_simialrity_2-12-2021_version2,2021.2.3,Win32,58.84083554,610177c9106fb8fd8badf8b7,61bbc5c79a1c66460f44041e,61bbc6504ac63c67db7b070c,,,,,,-64.79998952,-32.80000693,1,0,0,response5disk,2.0049,-11.19998872,15.19999379,1,0,0,rectangle,-75.19998968,40.79999417,1,0,0,-3,-3,"[159,51,148,138,40,84,130,128,12,74]",-14.39993994,12.79999375,1,0,0,0,73,73,45,1,Yellow,Yellow.jpg,Red,Red.jpg,response7disk_3,rectangle
,,,,,,,,,,,,,,,,,,-4,,,,,,,,,,,,,,,,,,,,,,,,,,,610177c9106fb8fd8badf8b7,001,2021-12-16_17h07.29.257,jm_natural_scene_simialrity_2-12-2021_version2,2021.2.3,Win32,58.84083554,610177c9106fb8fd8badf8b7,61bbc5c79a1c66460f44041e,61bbc6504ac63c67db7b070c,,,,,,-32.79998904,64.79999453,1,0,0,response7disk,0.7708,1.600060296,-0.800006449,1,0,0,rectangle,1.600060296,-0.800006449,1,0,0,-3,-2,"[159,51,148,138,40,84,130,128,12,74]",1.600060296,-0.800006449,1,0,0,0,74,74,48,1,Turquiose,Turquiose.jpg,Red,Red.jpg,,
,,,,,,,,,,,,,,,,,,-4,,,,,,,,,,,,,,,,,,,,,,,,,,,610177c9106fb8fd8badf8b7,001,2021-12-16_17h07.29.257,jm_natural_scene_simialrity_2-12-2021_version2,2021.2.3,Win32,58.84083554,610177c9106fb8fd8badf8b7,61bbc5c79a1c66460f44041e,61bbc6504ac63c67db7b070c,,,,,,-37.59998912,77.59999472,1,0,0,response7disk,1.6168,1.14441E-05,3.999993622,1,0,0,rectangle,1.14441E-05,3.999993622,1,0,0,-3,-3,"[159,51,148,138,40,84,130,128,12,74]",1.14441E-05,3.999993622,1,0,0,0,75,75,78,1,Pink,Pink.jpg,DarkBlue,DarkBlue.jpg,,
,,,,,,,,,,,,,,,,,,-4,,,,,,,,,,,,,,,,,,,,,,,,,,,610177c9106fb8fd8badf8b7,001,2021-12-16_17h07.29.257,jm_natural_scene_simialrity_2-12-2021_version2,2021.2.3,Win32,58.84083554,610177c9106fb8fd8badf8b7,61bbc5c79a1c66460f44041e,61bbc6504ac63c67db7b070c,,,,,,-34.39994024,77.59999472,1,0,0,response7disk,1.1965,19.20001173,-24.80000681,1,0,0,rectangle,19.20001173,-24.80000681,1,0,0,1,-3,"[159,51,148,138,40,84,130,128,12,74]",19.20001173,-24.80000681,1,0,0,0,76,76,13,1,Yellow,Yellow.jpg,LightBlue,LightBlue.jpg,,
,,,,,,,,,,,,,,,,,,-4,,,,,,,,,,,,,,,,,,,,,,,,,,,610177c9106fb8fd8badf8b7,001,2021-12-16_17h07.29.257,jm_natural_scene_simialrity_2-12-2021_version2,2021.2.3,Win32,58.84083554,610177c9106fb8fd8badf8b7,61bbc5c79a1c66460f44041e,61bbc6504ac63c67db7b070c,,,,,,-35.99998909,69.5999946,1,0,0,response7disk,1.0953,-1.59998858,9.599993706,1,0,0,rectangle,-1.59998858,9.599993706,1,0,0,1,-4,"[159,51,148,138,40,84,130,128,12,74]",-1.59998858,9.599993706,1,0,0,0,77,77,47,1,DarkGreen,DarkGreen.jpg,Red,Red.jpg,,
,,,,,,,,,,,,,,,,,,3,,,,,,,,,,,,,,,,,,,,,,,,,,,610177c9106fb8fd8badf8b7,001,2021-12-16_17h07.29.257,jm_natural_scene_simialrity_2-12-2021_version2,2021.2.3,Win32,58.84083554,610177c9106fb8fd8badf8b7,61bbc5c79a1c66460f44041e,61bbc6504ac63c67db7b070c,,,,,,53.60001224,35.9999941,1,0,0,response1disk,1.1496,1.14441E-05,0.799993575,1,0,0,rectangle,1.14441E-05,0.799993575,1,0,0,1,1,"[159,51,148,138,40,84,130,128,12,74]",1.14441E-05,0.799993575,1,0,0,0,78,78,41,1,DarkBlue,DarkBlue.jpg,Purple,Purple.jpg,,
,,,,,,,,,,,,,,,,,,4,,,,,,,,,,,,,,,,,,,,,,,,,,,610177c9106fb8fd8badf8b7,001,2021-12-16_17h07.29.257,jm_natural_scene_simialrity_2-12-2021_version2,2021.2.3,Win32,58.84083554,610177c9106fb8fd8badf8b7,61bbc5c79a1c66460f44041e,61bbc6504ac63c67db7b070c,,,,,,24.0000118,69.5999946,1,0,0,response1disk,0.7174,11.20001161,9.599993706,1,0,0,rectangle,11.20001161,9.599993706,1,0,0,1,3,"[159,51,148,138,40,84,130,128,12,74]",11.20001161,9.599993706,1,0,0,0,79,79,17,1,LightGreen,LightGreen.jpg,LightGreen,LightGreen.jpg,,
,,,,,,,,,,,,,,,,,,-4,,,,,,,,,,,,,,,,,,,,,,,,,,,610177c9106fb8fd8badf8b7,001,2021-12-16_17h07.29.257,jm_natural_scene_simialrity_2-12-2021_version2,2021.2.3,Win32,58.84083554,610177c9106fb8fd8badf8b7,61bbc5c79a1c66460f44041e,61bbc6504ac63c67db7b070c,,,,,,-39.19998914,51.19996991,1,0,0,response7disk,1.3371,-3.999988616,4.799993634,1,0,0,rectangle,-3.999988616,4.799993634,1,0,0,1,-3,"[159,51,148,138,40,84,130,128,12,74]",-3.999988616,4.799993634,1,0,0,0,80,80,14,1,Yellow,Yellow.jpg,DarkBlue,DarkBlue.jpg,,
,,,,,,,,,,,,,,,,,,4,,,,,,,,,,,,,,,,,,,,,,,,,,,610177c9106fb8fd8badf8b7,001,2021-12-16_17h07.29.257,jm_natural_scene_simialrity_2-12-2021_version2,2021.2.3,Win32,58.84083554,610177c9106fb8fd8badf8b7,61bbc5c79a1c66460f44041e,61bbc6504ac63c67db7b070c,,,,,,28.00001186,83.19997039,1,0,0,response1disk,0.7836,-2.399939764,7.19999367,1,0,0,rectangle,-2.399939764,7.19999367,1,0,0,1,-4,"[159,51,148,138,40,84,130,128,12,74]",-2.399939764,7.19999367,1,0,0,1,0,81,44,1,Purple,Purple.jpg,Purple,Purple.jpg,,
,,,,,,,,,,,,,,,,,,-4,,,,,,,,,,,,,,,,,,,,,,,,,,,610177c9106fb8fd8badf8b7,001,2021-12-16_17h07.29.257,jm_natural_scene_simialrity_2-12-2021_version2,2021.2.3,Win32,58.84083554,610177c9106fb8fd8badf8b7,61bbc5c79a1c66460f44041e,61bbc6504ac63c67db7b070c,,,,,,-31.99998903,49.5999943,1,0,0,response7disk,0.7212,-7.999988675,4.799993634,1,0,0,rectangle,-7.999988675,4.799993634,1,0,0,1,2,"[159,51,148,138,40,84,130,128,12,74]",-7.999988675,4.799993634,1,0,0,1,1,82,55,1,Turquiose,Turquiose.jpg,Yellow,Yellow.jpg,,
,,,,,,,,,,,,,,,,,,-4,,,,,,,,,,,,,,,,,,,,,,,,,,,610177c9106fb8fd8badf8b7,001,2021-12-16_17h07.29.257,jm_natural_scene_simialrity_2-12-2021_version2,2021.2.3,Win32,58.84083554,610177c9106fb8fd8badf8b7,61bbc5c79a1c66460f44041e,61bbc6504ac63c67db7b070c,,,,,,-27.99998897,59.19997003,1,0,0,response7disk,0.6378,0.800011456,-5.600006521,1,0,0,rectangle,75.20001256,39.99999416,1,0,0,3,3,"[159,51,148,138,40,84,130,128,12,74]",-3.999988616,0.799993575,1,0,0,1,2,83,12,1,Yellow,Yellow.jpg,Turquiose,Turquiose.jpg,response1disk_3,rectangle
,,,,,,,,,,,,,,,,,,-4,,,,,,,,,,,,,,,,,,,,,,,,,,,610177c9106fb8fd8badf8b7,001,2021-12-16_17h07.29.257,jm_natural_scene_simialrity_2-12-2021_version2,2021.2.3,Win32,58.84083554,610177c9106fb8fd8badf8b7,61bbc5c79a1c66460f44041e,61bbc6504ac63c67db7b070c,,,,,,-39.99998915,84.79999483,1,0,0,response7disk,0.9995,-7.199988663,7.19999367,1,0,0,rectangle,-7.199988663,7.19999367,1,0,0,3,-1,"[159,51,148,138,40,84,130,128,12,74]",-7.199988663,7.19999367,1,0,0,1,3,84,20,1,LightGreen,LightGreen.jpg,LightBlue,LightBlue.jpg,,
,,,,,,,,,,,,,,,,,,-4,,,,,,,,,,,,,,,,,,,,,,,,,,,610177c9106fb8fd8badf8b7,001,2021-12-16_17h07.29.257,jm_natural_scene_simialrity_2-12-2021_version2,2021.2.3,Win32,58.84083554,610177c9106fb8fd8badf8b7,61bbc5c79a1c66460f44041e,61bbc6504ac63c67db7b070c,,,,,,-35.19998908,63.99999452,1,0,0,response7disk,0.7874,-12.79998875,14.39999378,1,0,0,rectangle,-12.79998875,14.39999378,1,0,0,3,-3,"[159,51,148,138,40,84,130,128,12,74]",-12.79998875,14.39999378,1,0,0,1,4,85,21,1,LightGreen,LightGreen.jpg,DarkBlue,DarkBlue.jpg,,
,,,,,,,,,,,,,,,,,,-4,,,,,,,,,,,,,,,,,,,,,,,,,,,610177c9106fb8fd8badf8b7,001,2021-12-16_17h07.29.257,jm_natural_scene_simialrity_2-12-2021_version2,2021.2.3,Win32,58.84083554,610177c9106fb8fd8badf8b7,61bbc5c79a1c66460f44041e,61bbc6504ac63c67db7b070c,,,,,,-35.99998909,69.5999946,1,0,0,response7disk,0.6549,-11.99998873,9.599993706,1,0,0,rectangle,-11.99998873,9.599993706,1,0,0,3,-2,"[159,51,148,138,40,84,130,128,12,74]",-11.99998873,9.599993706,1,0,0,1,5,86,5,1,Red,Red.jpg,LightBlue,LightBlue.jpg,,
,,,,,,,,,,,,,,,,,,-4,,,,,,,,,,,,,,,,,,,,,,,,,,,610177c9106fb8fd8badf8b7,001,2021-12-16_17h07.29.257,jm_natural_scene_simialrity_2-12-2021_version2,2021.2.3,Win32,58.84083554,610177c9106fb8fd8badf8b7,61bbc5c79a1c66460f44041e,61bbc6504ac63c67db7b070c,,,,,,-28.79998899,55.9999944,1,0,0,response7disk,0.7502,-3.999988616,5.599993646,1,0,0,rectangle,-3.999988616,5.599993646,1,0,0,3,-1,"[159,51,148,138,40,84,130,128,12,74]",-3.999988616,5.599993646,1,0,0,1,6,87,19,1,LightGreen,LightGreen.jpg,Turquiose,Turquiose.jpg,,
,,,,,,,,,,,,,,,,,,-4,,,,,,,,,,,,,,,,,,,,,,,,,,,610177c9106fb8fd8badf8b7,001,2021-12-16_17h07.29.257,jm_natural_scene_simialrity_2-12-2021_version2,2021.2.3,Win32,58.84083554,610177c9106fb8fd8badf8b7,61bbc5c79a1c66460f44041e,61bbc6504ac63c67db7b070c,,,,,,-29.599989,55.19996997,1,0,0,response7disk,0.779,-10.39993988,3.999993622,1,0,0,rectangle,-10.39993988,3.999993622,1,0,0,3,1,"[159,51,148,138,40,84,130,128,12,74]",-10.39993988,3.999993622,1,0,0,1,7,88,43,1,Pink,Pink.jpg,Purple,Purple.jpg,,
,,,,,,,,,,,,,,,,,,-4,,,,,,,,,,,,,,,,,,,,,,,,,,,610177c9106fb8fd8badf8b7,001,2021-12-16_17h07.29.257,jm_natural_scene_simialrity_2-12-2021_version2,2021.2.3,Win32,58.84083554,610177c9106fb8fd8badf8b7,61bbc5c79a1c66460f44041e,61bbc6504ac63c67db7b070c,,,,,,-32.79998904,58.39999443,1,0,0,response7disk,0.7,-4.799988627,-4.000006497,1,0,0,rectangle,-4.799988627,-4.000006497,1,0,0,3,-1,"[159,51,148,138,40,84,130,128,12,74]",-4.799988627,-4.000006497,1,0,0,1,8,89,47,1,DarkGreen,DarkGreen.jpg,Red,Red.jpg,,
,,,,,,,,,,,,,,,,,,-4,,,,,,,,,,,,,,,,,,,,,,,,,,,610177c9106fb8fd8badf8b7,001,2021-12-16_17h07.29.257,jm_natural_scene_simialrity_2-12-2021_version2,2021.2.3,Win32,58.84083554,610177c9106fb8fd8badf8b7,61bbc5c79a1c66460f44041e,61bbc6504ac63c67db7b070c,,,,,,-33.59998906,63.99999452,1,0,0,response7disk,0.6838,-7.199988663,5.599993646,1,0,0,rectangle,-7.199988663,5.599993646,1,0,0,3,2,"[159,51,148,138,40,84,130,128,12,74]",-7.199988663,5.599993646,1,0,0,1,9,90,26,1,DarkGreen,DarkGreen.jpg,LightBlue,LightBlue.jpg,,
,,,,,,,,,,,,,,,,,,2,,,,,,,,,,,,,,,,,,,,,,,,,,,610177c9106fb8fd8badf8b7,001,2021-12-16_17h07.29.257,jm_natural_scene_simialrity_2-12-2021_version2,2021.2.3,Win32,58.84083554,610177c9106fb8fd8badf8b7,61bbc5c79a1c66460f44041e,61bbc6504ac63c67db7b070c,,,,,,70.40001249,-40.00000703,1,0,0,response3disk,1.7872,12.80001163,-6.4373E-06,1,0,0,rectangle,12.80001163,-6.4373E-06,1,0,0,3,-4,"[159,51,148,138,40,84,130,128,12,74]",12.80001163,-6.4373E-06,1,0,0,1,10,91,38,1,LightBlue,LightBlue.jpg,Purple,Purple.jpg,,
,,,,,,,,,,,,,,,,,,-4,,,,,,,,,,,,,,,,,,,,,,,,,,,610177c9106fb8fd8badf8b7,001,2021-12-16_17h07.29.257,jm_natural_scene_simialrity_2-12-2021_version2,2021.2.3,Win32,58.84083554,610177c9106fb8fd8badf8b7,61bbc5c79a1c66460f44041e,61bbc6504ac63c67db7b070c,,,,,,-58.3999406,99.99999505,1,0,0,response7disk,0.887,-0.799988568,0.799993575,1,0,0,rectangle,-0.799988568,0.799993575,1,0,0,3,2,"[159,51,148,138,40,84,130,128,12,74]",-0.799988568,0.799993575,1,0,0,1,11,92,76,1,Pink,Pink.jpg,LightBlue,LightBlue.jpg,,
,,,,,,,,,,,,,,,,,,-4,,,,,,,,,,,,,,,,,,,,,,,,,,,610177c9106fb8fd8badf8b7,001,2021-12-16_17h07.29.257,jm_natural_scene_simialrity_2-12-2021_version2,2021.2.3,Win32,58.84083554,610177c9106fb8fd8badf8b7,61bbc5c79a1c66460f44041e,61bbc6504ac63c67db7b070c,,,,,,-34.39994024,68.79999459,1,0,0,response7disk,0.6658,-6.399939823,11.19999373,1,0,0,rectangle,-6.399939823,11.19999373,1,0,0,3,2,"[159,51,148,138,40,84,130,128,12,74]",-6.399939823,11.19999373,1,0,0,1,12,93,70,1,Purple,Purple.jpg,DarkGreen,DarkGreen.jpg,,
,,,,,,,,,,,,,,,,,,-4,,,,,,,,,,,,,,,,,,,,,,,,,,,610177c9106fb8fd8badf8b7,001,2021-12-16_17h07.29.257,jm_natural_scene_simialrity_2-12-2021_version2,2021.2.3,Win32,58.84083554,610177c9106fb8fd8badf8b7,61bbc5c79a1c66460f44041e,61bbc6504ac63c67db7b070c,,,,,,-36.7999891,83.19997039,1,0,0,response7disk,1.2715,-7.999988675,3.19999361,1,0,0,rectangle,-7.999988675,3.19999361,1,0,0,3,-1,"[159,51,148,138,40,84,130,128,12,74]",-7.999988675,3.19999361,1,0,0,1,13,94,4,1,Red,Red.jpg,Turquiose,Turquiose.jpg,,
,,,,,,,,,,,,,,,,,,-3,,,,,,,,,,,,,,,,,,,,,,,,,,,610177c9106fb8fd8badf8b7,001,2021-12-16_17h07.29.257,jm_natural_scene_simialrity_2-12-2021_version2,2021.2.3,Win32,58.84083554,610177c9106fb8fd8badf8b7,61bbc5c79a1c66460f44041e,61bbc6504ac63c67db7b070c,,,,,,-77.59998971,35.9999941,1,0,0,response7disk,1.1372,-3.199988604,2.399993598,1,0,0,rectangle,-3.199988604,2.399993598,1,0,0,3,-1,"[159,51,148,138,40,84,130,128,12,74]",-3.199988604,2.399993598,1,0,0,1,14,95,1,1,Red,Red.jpg,Yellow,Yellow.jpg,,
,,,,,,,,,,,,,,,,,,2,,,,,,,,,,,,,,,,,,,,,,,,,,,610177c9106fb8fd8badf8b7,001,2021-12-16_17h07.29.257,jm_natural_scene_simialrity_2-12-2021_version2,2021.2.3,Win32,58.84083554,610177c9106fb8fd8badf8b7,61bbc5c79a1c66460f44041e,61bbc6504ac63c67db7b070c,,,,,,81.60001266,-20.80000675,1,0,0,response3disk,1.6516,9.600060415,3.19999361,1,0,0,rectangle,9.600060415,3.19999361,1,0,0,3,2,"[159,51,148,138,40,84,130,128,12,74]",9.600060415,3.19999361,1,0,0,1,15,96,41,1,DarkBlue,DarkBlue.jpg,Purple,Purple.jpg,,
,,,,,,,,,,,,,,,,,,4,,,,,,,,,,,,,,,,,,,,,,,,,,,610177c9106fb8fd8badf8b7,001,2021-12-16_17h07.29.257,jm_natural_scene_simialrity_2-12-2021_version2,2021.2.3,Win32,58.84083554,610177c9106fb8fd8badf8b7,61bbc5c79a1c66460f44041e,61bbc6504ac63c67db7b070c,,,,,,31.20001191,72.79999465,1,0,0,response1disk,0.8708,0.800011456,4.799993634,1,0,0,rectangle,0.800011456,4.799993634,1,0,0,3,-2,"[159,51,148,138,40,84,130,128,12,74]",0.800011456,4.799993634,1,0,0,1,16,97,39,1,DarkBlue,DarkBlue.jpg,DarkBlue,DarkBlue.jpg,,
,,,,,,,,,,,,,,,,,,-4,,,,,,,,,,,,,,,,,,,,,,,,,,,610177c9106fb8fd8badf8b7,001,2021-12-16_17h07.29.257,jm_natural_scene_simialrity_2-12-2021_version2,2021.2.3,Win32,58.84083554,610177c9106fb8fd8badf8b7,61bbc5c79a1c66460f44041e,61bbc6504ac63c67db7b070c,,,,,,-31.99998903,71.99999464,1,0,0,response7disk,1.2545,-7.199988663,-0.800006449,1,0,0,rectangle,-7.199988663,-0.800006449,1,0,0,3,2,"[159,51,148,138,40,84,130,128,12,74]",-7.199988663,-0.800006449,1,0,0,1,17,98,53,1,LightGreen,LightGreen.jpg,Yellow,Yellow.jpg,,
,,,,,,,,,,,,,,,,,,1,,,,,,,,,,,,,,,,,,,,,,,,,,,610177c9106fb8fd8badf8b7,001,2021-12-16_17h07.29.257,jm_natural_scene_simialrity_2-12-2021_version2,2021.2.3,Win32,58.84083554,610177c9106fb8fd8badf8b7,61bbc5c79a1c66460f44041e,61bbc6504ac63c67db7b070c,,,,,,44.80001211,-78.40000761,1,0,0,response3disk,2.0827,-12.79998875,18.39999384,1,0,0,rectangle,-12.79998875,18.39999384,1,0,0,3,-4,"[159,51,148,138,40,84,130,128,12,74]",-12.79998875,18.39999384,1,0,0,1,18,99,74,1,Purple,Purple.jpg,Turquiose,Turquiose.jpg,,
,,,,,,,,,,,,,,,,,,-4,,,,,,,,,,,,,,,,,,,,,,,,,,,610177c9106fb8fd8badf8b7,001,2021-12-16_17h07.29.257,jm_natural_scene_simialrity_2-12-2021_version2,2021.2.3,Win32,58.84083554,610177c9106fb8fd8badf8b7,61bbc5c79a1c66460f44041e,61bbc6504ac63c67db7b070c,,,,,,-30.39994018,46.39999425,1,0,0,response7disk,0.6872,-10.39993988,-1.600006461,1,0,0,rectangle,-10.39993988,-1.600006461,1,0,0,3,-1,"[159,51,148,138,40,84,130,128,12,74]",-10.39993988,-1.600006461,1,0,0,1,19,100,49,1,LightBlue,LightBlue.jpg,Red,Red.jpg,,
,,,,,,,,,,,,,,,,,,-3,,,,,,,,,,,,,,,,,,,,,,,,,,,610177c9106fb8fd8badf8b7,001,2021-12-16_17h07.29.257,jm_natural_scene_simialrity_2-12-2021_version2,2021.2.3,Win32,58.84083554,610177c9106fb8fd8badf8b7,61bbc5c79a1c66460f44041e,61bbc6504ac63c67db7b070c,,,,,,-53.59998935,23.19996949,1,0,0,response7disk,1.3539,-14.39993994,-7.200006545,1,0,0,rectangle,-14.39993994,-7.200006545,1,0,0,3,-2,"[159,51,148,138,40,84,130,128,12,74]",-14.39993994,-7.200006545,1,0,0,1,20,101,45,1,Yellow,Yellow.jpg,Red,Red.jpg,,
,,,,,,,,,,,,,,,,,,-4,,,,,,,,,,,,,,,,,,,,,,,,,,,610177c9106fb8fd8badf8b7,001,2021-12-16_17h07.29.257,jm_natural_scene_simialrity_2-12-2021_version2,2021.2.3,Win32,58.84083554,610177c9106fb8fd8badf8b7,61bbc5c79a1c66460f44041e,61bbc6504ac63c67db7b070c,,,,,,-28.79998899,52.79999435,1,0,0,response7disk,0.7509,-3.999988616,13.59999377,1,0,0,rectangle,-3.999988616,13.59999377,1,0,0,3,2,"[159,51,148,138,40,84,130,128,12,74]",-3.999988616,13.59999377,1,0,0,1,21,102,56,1,LightBlue,LightBlue.jpg,Yellow,Yellow.jpg,,
,,,,,,,,,,,,,,,,,,4,,,,,,,,,,,,,,,,,,,,,,,,,,,610177c9106fb8fd8badf8b7,001,2021-12-16_17h07.29.257,jm_natural_scene_simialrity_2-12-2021_version2,2021.2.3,Win32,58.84083554,610177c9106fb8fd8badf8b7,61bbc5c79a1c66460f44041e,61bbc6504ac63c67db7b070c,,,,,,25.60006065,68.79999459,1,0,0,response1disk,0.7541,12.00001162,15.19999379,1,0,0,rectangle,12.00001162,15.19999379,1,0,0,3,-1,"[159,51,148,138,40,84,130,128,12,74]",12.00001162,15.19999379,1,0,0,1,22,103,42,1,Pink,Pink.jpg,Pink,Pink.jpg,,
,,,,,,,,,,,,,,,,,,-4,,,,,,,,,,,,,,,,,,,,,,,,,,,610177c9106fb8fd8badf8b7,001,2021-12-16_17h07.29.257,jm_natural_scene_simialrity_2-12-2021_version2,2021.2.3,Win32,58.84083554,610177c9106fb8fd8badf8b7,61bbc5c79a1c66460f44041e,61bbc6504ac63c67db7b070c,,,,,,-23.1999889,50.39999431,1,0,0,response7disk,0.717,-2.399939764,1.599993587,1,0,0,rectangle,-2.399939764,1.599993587,1,0,0,3,1,"[159,51,148,138,40,84,130,128,12,74]",-2.399939764,1.599993587,1,0,0,1,23,104,13,1,Yellow,Yellow.jpg,LightBlue,LightBlue.jpg,,
,,,,,,,,,,,,,,,,,,4,,,,,,,,,,,,,,,,,,,,,,,,,,,610177c9106fb8fd8badf8b7,001,2021-12-16_17h07.29.257,jm_natural_scene_simialrity_2-12-2021_version2,2021.2.3,Win32,58.84083554,610177c9106fb8fd8badf8b7,61bbc5c79a1c66460f44041e,61bbc6504ac63c67db7b070c,,,,,,26.40001184,67.19997015,1,0,0,response1disk,0.7871,6.400011539,13.59999377,1,0,0,rectangle,6.400011539,13.59999377,1,0,0,3,-1,"[159,51,148,138,40,84,130,128,12,74]",6.400011539,13.59999377,1,0,0,1,24,105,35,1,LightBlue,LightBlue.jpg,LightBlue,LightBlue.jpg,,
,,,,,,,,,,,,,,,,,,2,,,,,,,,,,,,,,,,,,,,,,,,,,,610177c9106fb8fd8badf8b7,001,2021-12-16_17h07.29.257,jm_natural_scene_simialrity_2-12-2021_version2,2021.2.3,Win32,58.84083554,610177c9106fb8fd8badf8b7,61bbc5c79a1c66460f44041e,61bbc6504ac63c67db7b070c,,,,,,84.0000127,-44.00000709,1,0,0,response3disk,1.3379,12.80001163,-15.20000666,1,0,0,rectangle,12.80001163,-15.20000666,1,0,0,3,3,"[159,51,148,138,40,84,130,128,12,74]",12.80001163,-15.20000666,1,0,0,1,25,106,18,1,LightGreen,LightGreen.jpg,DarkGreen,DarkGreen.jpg,,
,,,,,,,,,,,,,,,,,,-4,,,,,,,,,,,,,,,,,,,,,,,,,,,610177c9106fb8fd8badf8b7,001,2021-12-16_17h07.29.257,jm_natural_scene_simialrity_2-12-2021_version2,2021.2.3,Win32,58.84083554,610177c9106fb8fd8badf8b7,61bbc5c79a1c66460f44041e,61bbc6504ac63c67db7b070c,,,,,,-35.19998908,95.19997057,1,0,0,response7disk,0.9549,-6.399939823,4.799993634,1,0,0,rectangle,-6.399939823,4.799993634,1,0,0,3,-4,"[159,51,148,138,40,84,130,128,12,74]",-6.399939823,4.799993634,1,0,0,1,26,107,27,1,DarkGreen,DarkGreen.jpg,DarkBlue,DarkBlue.jpg,,
,,,,,,,,,,,,,,,,,,-4,,,,,,,,,,,,,,,,,,,,,,,,,,,610177c9106fb8fd8badf8b7,001,2021-12-16_17h07.29.257,jm_natural_scene_simialrity_2-12-2021_version2,2021.2.3,Win32,58.84083554,610177c9106fb8fd8badf8b7,61bbc5c79a1c66460f44041e,61bbc6504ac63c67db7b070c,,,,,,-32.79998904,49.5999943,1,0,0,response7disk,0.7041,-13.59998876,-6.4373E-06,1,0,0,rectangle,-13.59998876,-6.4373E-06,1,0,0,3,-1,"[159,51,148,138,40,84,130,128,12,74]",-13.59998876,-6.4373E-06,1,0,0,1,27,108,57,1,DarkBlue,DarkBlue.jpg,Yellow,Yellow.jpg,,
,,,,,,,,,,,,,,,,,,-4,,,,,,,,,,,,,,,,,,,,,,,,,,,610177c9106fb8fd8badf8b7,001,2021-12-16_17h07.29.257,jm_natural_scene_simialrity_2-12-2021_version2,2021.2.3,Win32,58.84083554,610177c9106fb8fd8badf8b7,61bbc5c79a1c66460f44041e,61bbc6504ac63c67db7b070c,,,,,,-33.59998906,71.19997021,1,0,0,response7disk,0.621,-2.399939764,-3.200006485,1,0,0,rectangle,-2.399939764,-3.200006485,1,0,0,3,2,"[159,51,148,138,40,84,130,128,12,74]",-2.399939764,-3.200006485,1,0,0,1,28,109,28,1,DarkGreen,DarkGreen.jpg,Pink,Pink.jpg,,
,,,,,,,,,,,,,,,,,,2,,,,,,,,,,,,,,,,,,,,,,,,,,,610177c9106fb8fd8badf8b7,001,2021-12-16_17h07.29.257,jm_natural_scene_simialrity_2-12-2021_version2,2021.2.3,Win32,58.84083554,610177c9106fb8fd8badf8b7,61bbc5c79a1c66460f44041e,61bbc6504ac63c67db7b070c,,,,,,65.60001242,-37.600007,1,0,0,response3disk,2.0331,16.80001169,-16.80000669,1,0,0,rectangle,16.80001169,-16.80000669,1,0,0,2,1,"[159,51,148,138,40,84,130,128,12,74]",16.80001169,-16.80000669,1,0,0,1,29,110,51,1,Pink,Pink.jpg,Red,Red.jpg,,
,,,,,,,,,,,,,,,,,,-3,,,,,,,,,,,,,,,,,,,,,,,,,,,610177c9106fb8fd8badf8b7,001,2021-12-16_17h07.29.257,jm_natural_scene_simialrity_2-12-2021_version2,2021.2.3,Win32,58.84083554,610177c9106fb8fd8badf8b7,61bbc5c79a1c66460f44041e,61bbc6504ac63c67db7b070c,,,,,,-58.3999406,37.59999412,1,0,0,response7disk,1.7187,1.600060296,-21.60000676,1,0,0,rectangle,1.600060296,-21.60000676,1,0,0,2,2,"[159,51,148,138,40,84,130,128,12,74]",1.600060296,-21.60000676,1,0,0,1,30,111,80,1,Purple,Purple.jpg,Pink,Pink.jpg,,
,,,,,,,,,,,,,,,,,,2,,,,,,,,,,,,,,,,,,,,,,,,,,,610177c9106fb8fd8badf8b7,001,2021-12-16_17h07.29.257,jm_natural_scene_simialrity_2-12-2021_version2,2021.2.3,Win32,58.84083554,610177c9106fb8fd8badf8b7,61bbc5c79a1c66460f44041e,61bbc6504ac63c67db7b070c,,,,,,88.80001277,-52.00000721,1,0,0,response3disk,2.1331,2.40001148,7.999993682,1,0,0,rectangle,2.40001148,7.999993682,1,0,0,2,2,"[159,51,148,138,40,84,130,128,12,74]",2.40001148,7.999993682,1,0,0,1,31,112,34,1,Turquiose,Turquiose.jpg,Purple,Purple.jpg,,
,,,,,,,,,,,,,,,,,,-2,,,,,,,,,,,,,,,,,,,,,,,,,,,610177c9106fb8fd8badf8b7,001,2021-12-16_17h07.29.257,jm_natural_scene_simialrity_2-12-2021_version2,2021.2.3,Win32,58.84083554,610177c9106fb8fd8badf8b7,61bbc5c79a1c66460f44041e,61bbc6504ac63c67db7b070c,,,,,,-73.59998965,-44.8000071,1,0,0,response5disk,8.5539,-4.799988627,-18.40000671,1,0,0,rectangle,-4.799988627,-18.40000671,1,0,0,2,1,"[159,51,148,138,40,84,130,128,12,74]",-4.799988627,-18.40000671,1,0,0,1,32,113,36,1,LightBlue,LightBlue.jpg,DarkBlue,DarkBlue.jpg,,
,,,,,,,,,,,,,,,,,,2,,,,,,,,,,,,,,,,,,,,,,,,,,,610177c9106fb8fd8badf8b7,001,2021-12-16_17h07.29.257,jm_natural_scene_simialrity_2-12-2021_version2,2021.2.3,Win32,58.84083554,610177c9106fb8fd8badf8b7,61bbc5c79a1c66460f44041e,61bbc6504ac63c67db7b070c,,,,,,64.0000124,-36.00000697,1,0,0,response3disk,1.2165,17.60006053,-9.60000658,1,0,0,rectangle,17.60006053,-9.60000658,1,0,0,2,-2,"[159,51,148,138,40,84,130,128,12,74]",17.60006053,-9.60000658,1,0,0,1,33,114,32,1,Turquiose,Turquiose.jpg,DarkBlue,DarkBlue.jpg,,
,,,,,,,,,,,,,,,,,,4,,,,,,,,,,,,,,,,,,,,,,,,,,,610177c9106fb8fd8badf8b7,001,2021-12-16_17h07.29.257,jm_natural_scene_simialrity_2-12-2021_version2,2021.2.3,Win32,58.84083554,610177c9106fb8fd8badf8b7,61bbc5c79a1c66460f44041e,61bbc6504ac63c67db7b070c,,,,,,33.60006077,71.99999464,1,0,0,response1disk,0.7377,1.14441E-05,7.19999367,1,0,0,rectangle,1.14441E-05,7.19999367,1,0,0,2,-4,"[159,51,148,138,40,84,130,128,12,74]",1.14441E-05,7.19999367,1,0,0,1,34,115,9,1,Yellow,Yellow.jpg,Yellow,Yellow.jpg,,
,,,,,,,,,,,,,,,,,,-4,,,,,,,,,,,,,,,,,,,,,,,,,,,610177c9106fb8fd8badf8b7,001,2021-12-16_17h07.29.257,jm_natural_scene_simialrity_2-12-2021_version2,2021.2.3,Win32,58.84083554,610177c9106fb8fd8badf8b7,61bbc5c79a1c66460f44041e,61bbc6504ac63c67db7b070c,,,,,,-29.599989,43.99999422,1,0,0,response7disk,0.8543,-8.799988687,-5.600006521,1,0,0,rectangle,-8.799988687,-5.600006521,1,0,0,2,-1,"[159,51,148,138,40,84,130,128,12,74]",-8.799988687,-5.600006521,1,0,0,1,35,116,2,1,Red,Red.jpg,LightGreen,LightGreen.jpg,,
,,,,,,,,,,,,,,,,,,-4,,,,,,,,,,,,,,,,,,,,,,,,,,,610177c9106fb8fd8badf8b7,001,2021-12-16_17h07.29.257,jm_natural_scene_simialrity_2-12-2021_version2,2021.2.3,Win32,58.84083554,610177c9106fb8fd8badf8b7,61bbc5c79a1c66460f44041e,61bbc6504ac63c67db7b070c,,,,,,-27.19998896,44.79999423,1,0,0,response7disk,0.6535,-8.799988687,-2.400006473,1,0,0,rectangle,-8.799988687,-2.400006473,1,0,0,2,3,"[159,51,148,138,40,84,130,128,12,74]",-8.799988687,-2.400006473,1,0,0,1,36,117,14,1,Yellow,Yellow.jpg,DarkBlue,DarkBlue.jpg,,
,,,,,,,,,,,,,,,,,,-4,,,,,,,,,,,,,,,,,,,,,,,,,,,610177c9106fb8fd8badf8b7,001,2021-12-16_17h07.29.257,jm_natural_scene_simialrity_2-12-2021_version2,2021.2.3,Win32,58.84083554,610177c9106fb8fd8badf8b7,61bbc5c79a1c66460f44041e,61bbc6504ac63c67db7b070c,,,,,,-29.599989,64.79999453,1,0,0,response7disk,0.7388,-6.399939823,11.19999373,1,0,0,rectangle,-6.399939823,11.19999373,1,0,0,2,3,"[159,51,148,138,40,84,130,128,12,74]",-6.399939823,11.19999373,1,0,0,1,37,118,78,1,Pink,Pink.jpg,DarkBlue,DarkBlue.jpg,,
,,,,,,,,,,,,,,,,,,-4,,,,,,,,,,,,,,,,,,,,,,,,,,,610177c9106fb8fd8badf8b7,001,2021-12-16_17h07.29.257,jm_natural_scene_simialrity_2-12-2021_version2,2021.2.3,Win32,58.84083554,610177c9106fb8fd8badf8b7,61bbc5c79a1c66460f44041e,61bbc6504ac63c67db7b070c,,,,,,-28.79998899,57.59999442,1,0,0,response7disk,0.7207,-9.599988699,9.599993706,1,0,0,rectangle,-9.599988699,9.599993706,1,0,0,2,1,"[159,51,148,138,40,84,130,128,12,74]",-9.599988699,9.599993706,1,0,0,1,38,119,68,1,DarkBlue,DarkBlue.jpg,DarkGreen,DarkGreen.jpg,,
,,,,,,,,,,,,,,,,,,-4,,,,,,,,,,,,,,,,,,,,,,,,,,,610177c9106fb8fd8badf8b7,001,2021-12-16_17h07.29.257,jm_natural_scene_simialrity_2-12-2021_version2,2021.2.3,Win32,58.84083554,610177c9106fb8fd8badf8b7,61bbc5c79a1c66460f44041e,61bbc6504ac63c67db7b070c,,,,,,-30.39994018,54.39999437,1,0,0,response7disk,0.6044,-11.19998872,10.39999372,1,0,0,rectangle,-11.19998872,10.39999372,1,0,0,2,2,"[159,51,148,138,40,84,130,128,12,74]",-11.19998872,10.39999372,1,0,0,1,39,120,22,1,LightGreen,LightGreen.jpg,Pink,Pink.jpg,,
,,,,,,,,,,,,,,,,,,-4,,,,,,,,,,,,,,,,,,,,,,,,,,,610177c9106fb8fd8badf8b7,001,2021-12-16_17h07.29.257,jm_natural_scene_simialrity_2-12-2021_version2,2021.2.3,Win32,58.84083554,610177c9106fb8fd8badf8b7,61bbc5c79a1c66460f44041e,61bbc6504ac63c67db7b070c,,,,,,-27.19998896,61.59999448,1,0,0,response7disk,0.5845,-3.999988616,16.79999381,1,0,0,rectangle,-3.999988616,16.79999381,1,0,0,2,-3,"[159,51,148,138,40,84,130,128,12,74]",-3.999988616,16.79999381,1,0,0,1,40,121,58,1,Pink,Pink.jpg,Yellow,Yellow.jpg,,
,,,,,,,,,,,,,,,,,,-4,,,,,,,,,,,,,,,,,,,,,,,,,,,610177c9106fb8fd8badf8b7,001,2021-12-16_17h07.29.257,jm_natural_scene_simialrity_2-12-2021_version2,2021.2.3,Win32,58.84083554,610177c9106fb8fd8badf8b7,61bbc5c79a1c66460f44041e,61bbc6504ac63c67db7b070c,,,,,,-27.19998896,67.99999458,1,0,0,response7disk,0.6051,-8.799988687,10.39999372,1,0,0,rectangle,-8.799988687,10.39999372,1,0,0,2,-4,"[159,51,148,138,40,84,130,128,12,74]",-8.799988687,10.39999372,1,0,0,1,41,122,10,1,Yellow,Yellow.jpg,LightGreen,LightGreen.jpg,,
,,,,,,,,,,,,,,,,,,-4,,,,,,,,,,,,,,,,,,,,,,,,,,,610177c9106fb8fd8badf8b7,001,2021-12-16_17h07.29.257,jm_natural_scene_simialrity_2-12-2021_version2,2021.2.3,Win32,58.84083554,610177c9106fb8fd8badf8b7,61bbc5c79a1c66460f44041e,61bbc6504ac63c67db7b070c,,,,,,-29.599989,70.39999461,1,0,0,response7disk,0.6707,-1.59998858,-5.600006521,1,0,0,rectangle,-1.59998858,-5.600006521,1,0,0,2,-4,"[159,51,148,138,40,84,130,128,12,74]",-1.59998858,-5.600006521,1,0,0,1,42,123,67,1,LightBlue,LightBlue.jpg,DarkGreen,DarkGreen.jpg,,
,,,,,,,,,,,,,,,,,,-4,,,,,,,,,,,,,,,,,,,,,,,,,,,610177c9106fb8fd8badf8b7,001,2021-12-16_17h07.29.257,jm_natural_scene_simialrity_2-12-2021_version2,2021.2.3,Win32,58.84083554,610177c9106fb8fd8badf8b7,61bbc5c79a1c66460f44041e,61bbc6504ac63c67db7b070c,,,,,,-26.39994012,48.79999429,1,0,0,response7disk,0.6874,-9.599988699,-8.000006557,1,0,0,rectangle,-9.599988699,-8.000006557,1,0,0,2,3,"[159,51,148,138,40,84,130,128,12,74]",-9.599988699,-8.000006557,1,0,0,1,43,124,15,1,Yellow,Yellow.jpg,Pink,Pink.jpg,,
,,,,,,,,,,,,,,,,,,-4,,,,,,,,,,,,,,,,,,,,,,,,,,,610177c9106fb8fd8badf8b7,001,2021-12-16_17h07.29.257,jm_natural_scene_simialrity_2-12-2021_version2,2021.2.3,Win32,58.84083554,610177c9106fb8fd8badf8b7,61bbc5c79a1c66460f44041e,61bbc6504ac63c67db7b070c,,,,,,-31.19998902,59.99999446,1,0,0,response7disk,1.3165,-7.999988675,-2.400006473,1,0,0,rectangle,-7.999988675,-2.400006473,1,0,0,2,-4,"[159,51,148,138,40,84,130,128,12,74]",-7.999988675,-2.400006473,1,0,0,1,44,125,25,1,DarkGreen,DarkGreen.jpg,Turquiose,Turquiose.jpg,,
,,,,,,,,,,,,,,,,,,-4,,,,,,,,,,,,,,,,,,,,,,,,,,,610177c9106fb8fd8badf8b7,001,2021-12-16_17h07.29.257,jm_natural_scene_simialrity_2-12-2021_version2,2021.2.3,Win32,58.84083554,610177c9106fb8fd8badf8b7,61bbc5c79a1c66460f44041e,61bbc6504ac63c67db7b070c,,,,,,-28.79998899,51.19996991,1,0,0,response7disk,0.6012,-13.59998876,0.799993575,1,0,0,rectangle,-13.59998876,0.799993575,1,0,0,2,-3,"[159,51,148,138,40,84,130,128,12,74]",-13.59998876,0.799993575,1,0,0,1,45,126,66,1,Turquiose,Turquiose.jpg,DarkGreen,DarkGreen.jpg,,
,,,,,,,,,,,,,,,,,,2,,,,,,,,,,,,,,,,,,,,,,,,,,,610177c9106fb8fd8badf8b7,001,2021-12-16_17h07.29.257,jm_natural_scene_simialrity_2-12-2021_version2,2021.2.3,Win32,58.84083554,610177c9106fb8fd8badf8b7,61bbc5c79a1c66460f44041e,61bbc6504ac63c67db7b070c,,,,,,107.200013,-48.00000715,1,0,0,response3disk,1.4874,4.800011516,-4.800006509,1,0,0,rectangle,-115.9999903,-56.80000728,1,0,0,2,-2,"[159,51,148,138,40,84,130,128,12,74]",4.000011504,-12.80000663,1,0,0,1,46,127,31,1,Turquiose,Turquiose.jpg,LightBlue,LightBlue.jpg,response5disk_3,rectangle
,,,,,,,,,,,,,,,,,,-4,,,,,,,,,,,,,,,,,,,,,,,,,,,610177c9106fb8fd8badf8b7,001,2021-12-16_17h07.29.257,jm_natural_scene_simialrity_2-12-2021_version2,2021.2.3,Win32,58.84083554,610177c9106fb8fd8badf8b7,61bbc5c79a1c66460f44041e,61bbc6504ac63c67db7b070c,,,,,,-23.1999889,71.19997021,1,0,0,response7disk,0.9706,-9.599988699,-12.80000663,1,0,0,rectangle,-9.599988699,-12.80000663,1,0,0,2,-2,"[159,51,148,138,40,84,130,128,12,74]",-9.599988699,-12.80000663,1,0,0,1,47,128,37,1,LightBlue,LightBlue.jpg,Pink,Pink.jpg,,
,,,,,,,,,,,,,,,,,,-4,,,,,,,,,,,,,,,,,,,,,,,,,,,610177c9106fb8fd8badf8b7,001,2021-12-16_17h07.29.257,jm_natural_scene_simialrity_2-12-2021_version2,2021.2.3,Win32,58.84083554,610177c9106fb8fd8badf8b7,61bbc5c79a1c66460f44041e,61bbc6504ac63c67db7b070c,,,,,,-33.59998906,52.79999435,1,0,0,response7disk,0.6305,-14.39993994,-2.400006473,1,0,0,rectangle,32.80001193,-102.400008,1,0,0,1,1,"[159,51,148,138,40,84,130,128,12,74]",-4.799988627,7.999993682,1,0,0,1,48,129,64,1,Pink,Pink.jpg,LightGreen,LightGreen.jpg,response3disk_3,rectangle
,,,,,,,,,,,,,,,,,,-3,,,,,,,,,,,,,,,,,,,,,,,,,,,610177c9106fb8fd8badf8b7,001,2021-12-16_17h07.29.257,jm_natural_scene_simialrity_2-12-2021_version2,2021.2.3,Win32,58.84083554,610177c9106fb8fd8badf8b7,61bbc5c79a1c66460f44041e,61bbc6504ac63c67db7b070c,,,,,,-63.99998951,35.9999941,1,0,0,response7disk,0.9624,-3.999988616,14.39999378,1,0,0,rectangle,-3.999988616,14.39999378,1,0,0,1,-1,"[159,51,148,138,40,84,130,128,12,74]",-3.999988616,14.39999378,1,0,0,1,49,130,46,1,LightGreen,LightGreen.jpg,Red,Red.jpg,,
,,,,,,,,,,,,,,,,,,4,,,,,,,,,,,,,,,,,,,,,,,,,,,610177c9106fb8fd8badf8b7,001,2021-12-16_17h07.29.257,jm_natural_scene_simialrity_2-12-2021_version2,2021.2.3,Win32,58.84083554,610177c9106fb8fd8badf8b7,61bbc5c79a1c66460f44041e,61bbc6504ac63c67db7b070c,,,,,,28.80001187,63.19997009,1,0,0,response1disk,0.9048,-1.59998858,9.599993706,1,0,0,rectangle,-1.59998858,9.599993706,1,0,0,1,-1,"[159,51,148,138,40,84,130,128,12,74]",-1.59998858,9.599993706,1,0,0,1,50,131,30,1,Turquiose,Turquiose.jpg,Turquiose,Turquiose.jpg,,
,,,,,,,,,,,,,,,,,,4,,,,,,,,,,,,,,,,,,,,,,,,,,,610177c9106fb8fd8badf8b7,001,2021-12-16_17h07.29.257,jm_natural_scene_simialrity_2-12-2021_version2,2021.2.3,Win32,58.84083554,610177c9106fb8fd8badf8b7,61bbc5c79a1c66460f44041e,61bbc6504ac63c67db7b070c,,,,,,28.80001187,67.19997015,1,0,0,response1disk,0.7211,5.600060356,9.599993706,1,0,0,rectangle,5.600060356,9.599993706,1,0,0,1,1,"[159,51,148,138,40,84,130,128,12,74]",5.600060356,9.599993706,1,0,0,1,51,132,24,1,DarkGreen,DarkGreen.jpg,DarkGreen,DarkGreen.jpg,,
,,,,,,,,,,,,,,,,,,2,,,,,,,,,,,,,,,,,,,,,,,,,,,610177c9106fb8fd8badf8b7,001,2021-12-16_17h07.29.257,jm_natural_scene_simialrity_2-12-2021_version2,2021.2.3,Win32,58.84083554,610177c9106fb8fd8badf8b7,61bbc5c79a1c66460f44041e,61bbc6504ac63c67db7b070c,,,,,,74.40001255,-28.00000685,1,0,0,response3disk,1.1874,23.20001179,-8.000006557,1,0,0,rectangle,23.20001179,-8.000006557,1,0,0,1,3,"[159,51,148,138,40,84,130,128,12,74]",23.20001179,-8.000006557,1,0,0,1,52,133,79,1,Purple,Purple.jpg,DarkBlue,DarkBlue.jpg,,
,,,,,,,,,,,,,,,,,,-4,,,,,,,,,,,,,,,,,,,,,,,,,,,610177c9106fb8fd8badf8b7,001,2021-12-16_17h07.29.257,jm_natural_scene_simialrity_2-12-2021_version2,2021.2.3,Win32,58.84083554,610177c9106fb8fd8badf8b7,61bbc5c79a1c66460f44041e,61bbc6504ac63c67db7b070c,,,,,,-36.7999891,67.99999458,1,0,0,response7disk,0.7877,3.200011492,-21.60000676,1,0,0,rectangle,3.200011492,-21.60000676,1,0,0,1,1,"[159,51,148,138,40,84,130,128,12,74]",3.200011492,-21.60000676,1,0,0,1,53,134,54,1,DarkGreen,DarkGreen.jpg,Yellow,Yellow.jpg,,
,,,,,,,,,,,,,,,,,,-4,,,,,,,,,,,,,,,,,,,,,,,,,,,610177c9106fb8fd8badf8b7,001,2021-12-16_17h07.29.257,jm_natural_scene_simialrity_2-12-2021_version2,2021.2.3,Win32,58.84083554,610177c9106fb8fd8badf8b7,61bbc5c79a1c66460f44041e,61bbc6504ac63c67db7b070c,,,,,,-31.19998902,53.59999436,1,0,0,response7disk,0.9713,-9.599988699,13.59999377,1,0,0,rectangle,-9.599988699,13.59999377,1,0,0,1,-3,"[159,51,148,138,40,84,130,128,12,74]",-9.599988699,13.59999377,1,0,0,1,54,135,3,1,Red,Red.jpg,DarkGreen,DarkGreen.jpg,,
,,,,,,,,,,,,,,,,,,-4,,,,,,,,,,,,,,,,,,,,,,,,,,,610177c9106fb8fd8badf8b7,001,2021-12-16_17h07.29.257,jm_natural_scene_simialrity_2-12-2021_version2,2021.2.3,Win32,58.84083554,610177c9106fb8fd8badf8b7,61bbc5c79a1c66460f44041e,61bbc6504ac63c67db7b070c,,,,,,-28.79998899,58.39999443,1,0,0,response7disk,0.7949,-5.599988639,3.999993622,1,0,0,rectangle,-5.599988639,3.999993622,1,0,0,1,3,"[159,51,148,138,40,84,130,128,12,74]",-5.599988639,3.999993622,1,0,0,1,55,136,73,1,Pink,Pink.jpg,Turquiose,Turquiose.jpg,,
,,,,,,,,,,,,,,,,,,-4,,,,,,,,,,,,,,,,,,,,,,,,,,,610177c9106fb8fd8badf8b7,001,2021-12-16_17h07.29.257,jm_natural_scene_simialrity_2-12-2021_version2,2021.2.3,Win32,58.84083554,610177c9106fb8fd8badf8b7,61bbc5c79a1c66460f44041e,61bbc6504ac63c67db7b070c,,,,,,-29.599989,58.39999443,1,0,0,response7disk,0.6834,-7.199988663,-6.4373E-06,1,0,0,rectangle,-42.39994036,77.59999472,1,0,0,-4,-4,"[159,51,148,138,40,84,130,128,12,74]",-6.399939823,6.399993658,1,0,0,1,56,137,29,1,DarkGreen,DarkGreen.jpg,Purple,Purple.jpg,response7disk_3,rectangle
,,,,,,,,,,,,,,,,,,-4,,,,,,,,,,,,,,,,,,,,,,,,,,,610177c9106fb8fd8badf8b7,001,2021-12-16_17h07.29.257,jm_natural_scene_simialrity_2-12-2021_version2,2021.2.3,Win32,58.84083554,610177c9106fb8fd8badf8b7,61bbc5c79a1c66460f44041e,61bbc6504ac63c67db7b070c,,,,,,-31.19998902,59.19997003,1,0,0,response7disk,0.6164,-3.199988604,-6.4373E-06,1,0,0,rectangle,-3.199988604,-6.4373E-06,1,0,0,-4,-4,"[159,51,148,138,40,84,130,128,12,74]",-3.199988604,-6.4373E-06,1,0,0,1,57,138,69,1,Pink,Pink.jpg,DarkGreen,DarkGreen.jpg,,
,,,,,,,,,,,,,,,,,,4,,,,,,,,,,,,,,,,,,,,,,,,,,,610177c9106fb8fd8badf8b7,001,2021-12-16_17h07.29.257,jm_natural_scene_simialrity_2-12-2021_version2,2021.2.3,Win32,58.84083554,610177c9106fb8fd8badf8b7,61bbc5c79a1c66460f44041e,61bbc6504ac63c67db7b070c,,,,,,32.80001193,91.19997051,1,0,0,response1disk,0.8493,5.600060356,7.999993682,1,0,0,rectangle,5.600060356,7.999993682,1,0,0,-4,-4,"[159,51,148,138,40,84,130,128,12,74]",5.600060356,7.999993682,1,0,0,1,58,139,17,1,LightGreen,LightGreen.jpg,LightGreen,LightGreen.jpg,,
,,,,,,,,,,,,,,,,,,-4,,,,,,,,,,,,,,,,,,,,,,,,,,,610177c9106fb8fd8badf8b7,001,2021-12-16_17h07.29.257,jm_natural_scene_simialrity_2-12-2021_version2,2021.2.3,Win32,58.84083554,610177c9106fb8fd8badf8b7,61bbc5c79a1c66460f44041e,61bbc6504ac63c67db7b070c,,,,,,-24.79998893,49.5999943,1,0,0,response7disk,0.8046,-14.39993994,14.39999378,1,0,0,rectangle,-14.39993994,14.39999378,1,0,0,-4,3,"[159,51,148,138,40,84,130,128,12,74]",-14.39993994,14.39999378,1,0,0,1,59,140,59,1,Purple,Purple.jpg,Yellow,Yellow.jpg,,
,,,,,,,,,,,,,,,,,,-4,,,,,,,,,,,,,,,,,,,,,,,,,,,610177c9106fb8fd8badf8b7,001,2021-12-16_17h07.29.257,jm_natural_scene_simialrity_2-12-2021_version2,2021.2.3,Win32,58.84083554,610177c9106fb8fd8badf8b7,61bbc5c79a1c66460f44041e,61bbc6504ac63c67db7b070c,,,,,,-35.19998908,59.19997003,1,0,0,response7disk,1.2658,-9.599988699,3.19999361,1,0,0,rectangle,-9.599988699,3.19999361,1,0,0,-4,2,"[159,51,148,138,40,84,130,128,12,74]",-9.599988699,3.19999361,1,0,0,1,60,141,65,1,Purple,Purple.jpg,LightGreen,LightGreen.jpg,,
,,,,,,,,,,,,,,,,,,-4,,,,,,,,,,,,,,,,,,,,,,,,,,,610177c9106fb8fd8badf8b7,001,2021-12-16_17h07.29.257,jm_natural_scene_simialrity_2-12-2021_version2,2021.2.3,Win32,58.84083554,610177c9106fb8fd8badf8b7,61bbc5c79a1c66460f44041e,61bbc6504ac63c67db7b070c,,,,,,-51.19998932,131.1999711,1,0,0,response7disk,0.9503,-14.39993994,13.59999377,1,0,0,rectangle,-14.39993994,13.59999377,1,0,0,-4,3,"[159,51,148,138,40,84,130,128,12,74]",-14.39993994,13.59999377,1,0,0,1,61,142,48,1,Turquiose,Turquiose.jpg,Red,Red.jpg,,
,,,,,,,,,,,,,,,,,,3,,,,,,,,,,,,,,,,,,,,,,,,,,,610177c9106fb8fd8badf8b7,001,2021-12-16_17h07.29.257,jm_natural_scene_simialrity_2-12-2021_version2,2021.2.3,Win32,58.84083554,610177c9106fb8fd8badf8b7,61bbc5c79a1c66460f44041e,61bbc6504ac63c67db7b070c,,,,,,57.6000123,34.39999408,1,0,0,response1disk,1.2709,2.40001148,-1.600006461,1,0,0,rectangle,2.40001148,-1.600006461,1,0,0,-4,3,"[159,51,148,138,40,84,130,128,12,74]",2.40001148,-1.600006461,1,0,0,1,62,143,71,1,LightBlue,LightBlue.jpg,Turquiose,Turquiose.jpg,,
,,,,,,,,,,,,,,,,,,2,,,,,,,,,,,,,,,,,,,,,,,,,,,610177c9106fb8fd8badf8b7,001,2021-12-16_17h07.29.257,jm_natural_scene_simialrity_2-12-2021_version2,2021.2.3,Win32,58.84083554,610177c9106fb8fd8badf8b7,61bbc5c79a1c66460f44041e,61bbc6504ac63c67db7b070c,,,,,,74.40001255,-46.40000713,1,0,0,response3disk,1.6495,6.400011539,-8.800006568,1,0,0,rectangle,6.400011539,-8.800006568,1,0,0,-4,-3,"[159,51,148,138,40,84,130,128,12,74]",6.400011539,-8.800006568,1,0,0,1,63,144,72,1,DarkBlue,DarkBlue.jpg,Turquiose,Turquiose.jpg,,
,,,,,,,,,,,,,,,,,,-4,,,,,,,,,,,,,,,,,,,,,,,,,,,610177c9106fb8fd8badf8b7,001,2021-12-16_17h07.29.257,jm_natural_scene_simialrity_2-12-2021_version2,2021.2.3,Win32,58.84083554,610177c9106fb8fd8badf8b7,61bbc5c79a1c66460f44041e,61bbc6504ac63c67db7b070c,,,,,,-24.79998893,53.59999436,1,0,0,response7disk,0.7214,-7.199988663,1.599993587,1,0,0,rectangle,-7.199988663,1.599993587,1,0,0,-4,3,"[159,51,148,138,40,84,130,128,12,74]",-7.199988663,1.599993587,1,0,0,1,64,145,11,1,Yellow,Yellow.jpg,DarkGreen,DarkGreen.jpg,,
,,,,,,,,,,,,,,,,,,-4,,,,,,,,,,,,,,,,,,,,,,,,,,,610177c9106fb8fd8badf8b7,001,2021-12-16_17h07.29.257,jm_natural_scene_simialrity_2-12-2021_version2,2021.2.3,Win32,58.84083554,610177c9106fb8fd8badf8b7,61bbc5c79a1c66460f44041e,61bbc6504ac63c67db7b070c,,,,,,-26.39994012,49.5999943,1,0,0,response7disk,0.6994,-8.799988687,-1.600006461,1,0,0,rectangle,-8.799988687,-1.600006461,1,0,0,-4,3,"[159,51,148,138,40,84,130,128,12,74]",-8.799988687,-1.600006461,1,0,0,1,65,146,6,1,Red,Red.jpg,DarkBlue,DarkBlue.jpg,,
,,,,,,,,,,,,,,,,,,-4,,,,,,,,,,,,,,,,,,,,,,,,,,,610177c9106fb8fd8badf8b7,001,2021-12-16_17h07.29.257,jm_natural_scene_simialrity_2-12-2021_version2,2021.2.3,Win32,58.84083554,610177c9106fb8fd8badf8b7,61bbc5c79a1c66460f44041e,61bbc6504ac63c67db7b070c,,,,,,-22.39994006,43.99999422,1,0,0,response7disk,0.7674,-4.799988627,-0.800006449,1,0,0,rectangle,-74.39994084,33.59999406,1,0,0,-3,-3,"[159,51,148,138,40,84,130,128,12,74]",0.800011456,-4.000006497,1,0,0,1,66,147,33,1,Turquiose,Turquiose.jpg,Pink,Pink.jpg,response7disk_3,rectangle
,,,,,,,,,,,,,,,,,,3,,,,,,,,,,,,,,,,,,,,,,,,,,,610177c9106fb8fd8badf8b7,001,2021-12-16_17h07.29.257,jm_natural_scene_simialrity_2-12-2021_version2,2021.2.3,Win32,58.84083554,610177c9106fb8fd8badf8b7,61bbc5c79a1c66460f44041e,61bbc6504ac63c67db7b070c,,,,,,92.80001283,37.59999412,1,0,0,response1disk,1.1663,11.20001161,19.19999385,1,0,0,rectangle,11.20001161,19.19999385,1,0,0,-3,-3,"[159,51,148,138,40,84,130,128,12,74]",11.20001161,19.19999385,1,0,0,1,67,148,77,1,Purple,Purple.jpg,LightBlue,LightBlue.jpg,,
,,,,,,,,,,,,,,,,,,4,,,,,,,,,,,,,,,,,,,,,,,,,,,610177c9106fb8fd8badf8b7,001,2021-12-16_17h07.29.257,jm_natural_scene_simialrity_2-12-2021_version2,2021.2.3,Win32,58.84083554,610177c9106fb8fd8badf8b7,61bbc5c79a1c66460f44041e,61bbc6504ac63c67db7b070c,,,,,,33.60006077,75.9999947,1,0,0,response1disk,0.7879,7.200011551,14.39999378,1,0,0,rectangle,7.200011551,14.39999378,1,0,0,-3,1,"[159,51,148,138,40,84,130,128,12,74]",7.200011551,14.39999378,1,0,0,1,68,149,0,1,Red,Red.jpg,Red,Red.jpg,,
,,,,,,,,,,,,,,,,,,-4,,,,,,,,,,,,,,,,,,,,,,,,,,,610177c9106fb8fd8badf8b7,001,2021-12-16_17h07.29.257,jm_natural_scene_simialrity_2-12-2021_version2,2021.2.3,Win32,58.84083554,610177c9106fb8fd8badf8b7,61bbc5c79a1c66460f44041e,61bbc6504ac63c67db7b070c,,,,,,-34.39994024,74.39999467,1,0,0,response7disk,0.7034,-8.799988687,0.799993575,1,0,0,rectangle,-8.799988687,0.799993575,1,0,0,-3,3,"[159,51,148,138,40,84,130,128,12,74]",-8.799988687,0.799993575,1,0,0,1,69,150,50,1,DarkBlue,DarkBlue.jpg,Red,Red.jpg,,
,,,,,,,,,,,,,,,,,,-1,,,,,,,,,,,,,,,,,,,,,,,,,,,610177c9106fb8fd8badf8b7,001,2021-12-16_17h07.29.257,jm_natural_scene_simialrity_2-12-2021_version2,2021.2.3,Win32,58.84083554,610177c9106fb8fd8badf8b7,61bbc5c79a1c66460f44041e,61bbc6504ac63c67db7b070c,,,,,,-32.79998904,-63.20000738,1,0,0,response5disk,1.2883,-2.399939764,-4.000006497,1,0,0,rectangle,-2.399939764,-4.000006497,1,0,0,-3,2,"[159,51,148,138,40,84,130,128,12,74]",-2.399939764,-4.000006497,1,0,0,1,70,151,52,1,Purple,Purple.jpg,Red,Red.jpg,,
,,,,,,,,,,,,,,,,,,-4,,,,,,,,,,,,,,,,,,,,,,,,,,,610177c9106fb8fd8badf8b7,001,2021-12-16_17h07.29.257,jm_natural_scene_simialrity_2-12-2021_version2,2021.2.3,Win32,58.84083554,610177c9106fb8fd8badf8b7,61bbc5c79a1c66460f44041e,61bbc6504ac63c67db7b070c,,,,,,-26.39994012,59.99999446,1,0,0,response7disk,0.9167,-7.999988675,6.399993658,1,0,0,rectangle,-7.999988675,6.399993658,1,0,0,-3,-2,"[159,51,148,138,40,84,130,128,12,74]",-7.999988675,6.399993658,1,0,0,1,71,152,40,1,DarkBlue,DarkBlue.jpg,Pink,Pink.jpg,,
,,,,,,,,,,,,,,,,,,-4,,,,,,,,,,,,,,,,,,,,,,,,,,,610177c9106fb8fd8badf8b7,001,2021-12-16_17h07.29.257,jm_natural_scene_simialrity_2-12-2021_version2,2021.2.3,Win32,58.84083554,610177c9106fb8fd8badf8b7,61bbc5c79a1c66460f44041e,61bbc6504ac63c67db7b070c,,,,,,-25.59998894,51.19996991,1,0,0,response7disk,0.9879,-7.199988663,5.599993646,1,0,0,rectangle,-7.199988663,5.599993646,1,0,0,-3,-3,"[159,51,148,138,40,84,130,128,12,74]",-7.199988663,5.599993646,1,0,0,1,72,153,61,1,Turquiose,Turquiose.jpg,LightGreen,LightGreen.jpg,,
,,,,,,,,,,,,,,,,,,-4,,,,,,,,,,,,,,,,,,,,,,,,,,,610177c9106fb8fd8badf8b7,001,2021-12-16_17h07.29.257,jm_natural_scene_simialrity_2-12-2021_version2,2021.2.3,Win32,58.84083554,610177c9106fb8fd8badf8b7,61bbc5c79a1c66460f44041e,61bbc6504ac63c67db7b070c,,,,,,-35.99998909,56.79999441,1,0,0,response7disk,0.6545,-14.39993994,11.19999373,1,0,0,rectangle,-14.39993994,11.19999373,1,0,0,-3,-2,"[159,51,148,138,40,84,130,128,12,74]",-14.39993994,11.19999373,1,0,0,1,73,154,62,1,LightBlue,LightBlue.jpg,LightGreen,LightGreen.jpg,,
,,,,,,,,,,,,,,,,,,-4,,,,,,,,,,,,,,,,,,,,,,,,,,,610177c9106fb8fd8badf8b7,001,2021-12-16_17h07.29.257,jm_natural_scene_simialrity_2-12-2021_version2,2021.2.3,Win32,58.84083554,610177c9106fb8fd8badf8b7,61bbc5c79a1c66460f44041e,61bbc6504ac63c67db7b070c,,,,,,-31.99998903,61.59999448,1,0,0,response7disk,0.5705,-7.999988675,7.999993682,1,0,0,rectangle,-7.999988675,7.999993682,1,0,0,-3,-1,"[159,51,148,138,40,84,130,128,12,74]",-7.999988675,7.999993682,1,0,0,1,74,155,63,1,DarkBlue,DarkBlue.jpg,LightGreen,LightGreen.jpg,,
,,,,,,,,,,,,,,,,,,-3,,,,,,,,,,,,,,,,,,,,,,,,,,,610177c9106fb8fd8badf8b7,001,2021-12-16_17h07.29.257,jm_natural_scene_simialrity_2-12-2021_version2,2021.2.3,Win32,58.84083554,610177c9106fb8fd8badf8b7,61bbc5c79a1c66460f44041e,61bbc6504ac63c67db7b070c,,,,,,-55.19998938,41.59999418,1,0,0,response7disk,0.9166,-12.79998875,7.19999367,1,0,0,rectangle,-12.79998875,7.19999367,1,0,0,-3,3,"[159,51,148,138,40,84,130,128,12,74]",-12.79998875,7.19999367,1,0,0,1,75,156,8,1,Red,Red.jpg,Purple,Purple.jpg,,
,,,,,,,,,,,,,,,,,,-4,,,,,,,,,,,,,,,,,,,,,,,,,,,610177c9106fb8fd8badf8b7,001,2021-12-16_17h07.29.257,jm_natural_scene_simialrity_2-12-2021_version2,2021.2.3,Win32,58.84083554,610177c9106fb8fd8badf8b7,61bbc5c79a1c66460f44041e,61bbc6504ac63c67db7b070c,,,,,,-33.59998906,59.19997003,1,0,0,response7disk,1.0631,4.000011504,0.799993575,1,0,0,rectangle,4.000011504,0.799993575,1,0,0,-3,2,"[159,51,148,138,40,84,130,128,12,74]",4.000011504,0.799993575,1,0,0,1,76,157,23,1,LightGreen,LightGreen.jpg,Purple,Purple.jpg,,
,,,,,,,,,,,,,,,,,,2,,,,,,,,,,,,,,,,,,,,,,,,,,,610177c9106fb8fd8badf8b7,001,2021-12-16_17h07.29.257,jm_natural_scene_simialrity_2-12-2021_version2,2021.2.3,Win32,58.84083554,610177c9106fb8fd8badf8b7,61bbc5c79a1c66460f44041e,61bbc6504ac63c67db7b070c,,,,,,72.00001252,-41.60000706,1,0,0,response3disk,1.0999,9.600060415,-20.00000674,1,0,0,rectangle,77.6000126,-32.00000691,1,0,0,2,2,"[159,51,148,138,40,84,130,128,12,74]",2.40001148,1.599993587,1,0,0,1,77,158,75,1,DarkBlue,DarkBlue.jpg,LightBlue,LightBlue.jpg,response3disk_3,rectangle
,,,,,,,,,,,,,,,,,,3,,,,,,,,,,,,,,,,,,,,,,,,,,,610177c9106fb8fd8badf8b7,001,2021-12-16_17h07.29.257,jm_natural_scene_simialrity_2-12-2021_version2,2021.2.3,Win32,58.84083554,610177c9106fb8fd8badf8b7,61bbc5c79a1c66460f44041e,61bbc6504ac63c67db7b070c,,,,,,56.00001228,35.19996967,1,0,0,response1disk,0.9999,-0.799988568,3.999993622,1,0,0,rectangle,-0.799988568,3.999993622,1,0,0,2,-4,"[159,51,148,138,40,84,130,128,12,74]",-0.799988568,3.999993622,1,0,0,1,78,159,60,1,DarkGreen,DarkGreen.jpg,LightGreen,LightGreen.jpg,,
,,,,,,,,,,,,,,,,,,3,,,,,,,,,,,,,,,,,,,,,,,,,,,610177c9106fb8fd8badf8b7,001,2021-12-16_17h07.29.257,jm_natural_scene_simialrity_2-12-2021_version2,2021.2.3,Win32,58.84083554,610177c9106fb8fd8badf8b7,61bbc5c79a1c66460f44041e,61bbc6504ac63c67db7b070c,,,,,,55.20001227,31.99999404,1,0,0,response1disk,0.9376,-0.799988568,-7.200006545,1,0,0,rectangle,-0.799988568,-7.200006545,1,0,0,2,-2,"[159,51,148,138,40,84,130,128,12,74]",-0.799988568,-7.200006545,1,0,0,1,79,160,7,1,Red,Red.jpg,Pink,Pink.jpg,,
,,,,,,,,,,,,,,,,,,-4,,,,,,,,,,,,,,,,,,,,,,,,,,,610177c9106fb8fd8badf8b7,001,2021-12-16_17h07.29.257,jm_natural_scene_simialrity_2-12-2021_version2,2021.2.3,Win32,58.84083554,610177c9106fb8fd8badf8b7,61bbc5c79a1c66460f44041e,61bbc6504ac63c67db7b070c,,,,,,-23.1999889,50.39999431,1,0,0,response7disk,1.0168,-4.799988627,7.999993682,1,0,0,rectangle,-4.799988627,7.999993682,1,0,0,2,-1,"[159,51,148,138,40,84,130,128,12,74]",-4.799988627,7.999993682,1,0,0,1,80,161,16,1,Yellow,Yellow.jpg,Purple,Purple.jpg,,
