key_resp.keys,key_resp.rt,key_resp_16.keys,key_resp_16.rt,key_resp_2.keys,key_resp_2.rt,key_resp_3.keys,key_resp_3.rt,key_resp_19.keys,key_resp_19.rt,key_resp_10.keys,key_resp_10.rt,mouse_prac.x,mouse_prac.y,mouse_prac.leftButton,mouse_prac.midButton,mouse_prac.rightButton,mouse_prac.clicked_name,similarity,mouse_10.x,mouse_10.y,mouse_10.leftButton,mouse_10.midButton,mouse_10.rightButton,mouse_10.clicked_name,mouse_catch_prac.x,mouse_catch_prac.y,mouse_catch_prac.leftButton,mouse_catch_prac.midButton,mouse_catch_prac.rightButton,catchnumberprac,mouse_6.x,mouse_6.y,mouse_6.leftButton,mouse_6.midButton,mouse_6.rightButton,during_prac.thisRepN,during_prac.thisTrialN,during_prac.thisN,during_prac.thisIndex,during_prac.ran,trailimage1,trial1adress,trailimage2,trial2adress,participant,session,date,expName,psychopyVersion,OS,frameRate,PROLIFIC_PID,STUDY_ID,SESSION_ID,mouse_catch_prac.clicked_name,catchprac,mouse_6.clicked_name,key_resp_22.keys,key_resp_22.rt,mouse.x,mouse.y,mouse.leftButton,mouse.midButton,mouse.rightButton,mouse.clicked_name,response_time,mouse_2.x,mouse_2.y,mouse_2.leftButton,mouse_2.midButton,mouse_2.rightButton,mouse_2.clicked_name,mouse_3.x,mouse_3.y,mouse_3.leftButton,mouse_3.midButton,mouse_3.rightButton,catchresponse,catchnumber,catchtrialorder,mouse_11.x,mouse_11.y,mouse_11.leftButton,mouse_11.midButton,mouse_11.rightButton,trials_2.thisRepN,trials_2.thisTrialN,trials_2.thisN,trials_2.thisIndex,trials_2.ran,image1,image1adress,image2,image2adress,mouse_3.clicked_name,mouse_11.clicked_name
space,2.0064,space,18.135,space,4.4198,space,7.4636,space,29.8776,space,8.6206,112.0000224,42.66665721,1,0,0,response1disk_5,3,1.333393137,-2.666677475,1,0,0,rectangle_8,1.333393137,-2.666677475,1,0,0,3,1.333393137,-2.666677475,1,0,0,0,0,0,4,1,trail2,trail2.jpg,trail3,trail3.jpg,613a9a0390a4c691677c1440,001,2021-12-16_16h06.36.099,jm_natural_scene_simialrity_2-12-2021_version2,2021.2.3,Win32,60.0060006,613a9a0390a4c691677c1440,61bbc5c79a1c66460f44041e,61bbc65e706e9b1ffbaa76ef,,,,,,,,,,,,,,,,,,,,,,,,,,,,,,,,,,,,,,,,,,
,,,,,,,,,,,,-39.99998212,-94.00001353,1,0,0,response5disk_5,-1,-1.3333143,3.99998939,1,0,0,rectangle_8,110.666689,43.33330355,1,0,0,3,-0.666606923,5.333322763,1,0,0,0,1,1,1,1,trail1,trail1.jpg,trail2,trail2.jpg,613a9a0390a4c691677c1440,001,2021-12-16_16h06.36.099,jm_natural_scene_simialrity_2-12-2021_version2,2021.2.3,Win32,60.0060006,613a9a0390a4c691677c1440,61bbc5c79a1c66460f44041e,61bbc65e706e9b1ffbaa76ef,response1disk_7,3,rectangle_4,,,,,,,,,,,,,,,,,,,,,,,,,,,,,,,,,,,,,,,
,,,,,,,,,,,,61.33335423,95.99999213,1,0,0,response1disk_5,4,4.666685879,1.333322644,1,0,0,rectangle_8,4.666685879,1.333322644,1,0,0,3,4.666685879,1.333322644,1,0,0,0,2,2,3,1,trail2,trail2.jpg,trail2,trail2.jpg,613a9a0390a4c691677c1440,001,2021-12-16_16h06.36.099,jm_natural_scene_simialrity_2-12-2021_version2,2021.2.3,Win32,60.0060006,613a9a0390a4c691677c1440,61bbc5c79a1c66460f44041e,61bbc65e706e9b1ffbaa76ef,,,,,,,,,,,,,,,,,,,,,,,,,,,,,,,,,,,,,,,,,,
,,,,,,,,,,,,56.00002074,95.3333051,1,0,0,response1disk_5,4,3.333393196,10.66665626,1,0,0,rectangle_8,3.333393196,10.66665626,1,0,0,3,3.333393196,10.66665626,1,0,0,0,3,3,0,1,trail1,trail1.jpg,trail1,trail1.jpg,613a9a0390a4c691677c1440,001,2021-12-16_16h06.36.099,jm_natural_scene_simialrity_2-12-2021_version2,2021.2.3,Win32,60.0060006,613a9a0390a4c691677c1440,61bbc5c79a1c66460f44041e,61bbc65e706e9b1ffbaa76ef,,,,,,,,,,,,,,,,,,,,,,,,,,,,,,,,,,,,,,,,,,
,,,,,,,,,,,,56.66668743,99.33330522,1,0,0,response1disk_5,4,-1.3333143,0.666655958,1,0,0,rectangle_8,-1.3333143,0.666655958,1,0,0,3,-1.3333143,0.666655958,1,0,0,0,4,4,5,1,trail3,trail3.jpg,trail3,trail3.jpg,613a9a0390a4c691677c1440,001,2021-12-16_16h06.36.099,jm_natural_scene_simialrity_2-12-2021_version2,2021.2.3,Win32,60.0060006,613a9a0390a4c691677c1440,61bbc5c79a1c66460f44041e,61bbc65e706e9b1ffbaa76ef,,,,,,,,,,,,,,,,,,,,,,,,,,,,,,,,,,,,,,,,,,
,,,,,,,,,,,,94.66668856,-27.33334488,1,0,0,response3disk_5,2,4.000019193,1.333322644,1,0,0,rectangle_8,4.000019193,1.333322644,1,0,0,3,4.000019193,1.333322644,1,0,0,0,5,5,2,1,trail1,trail1.jpg,trail3,trail3.jpg,613a9a0390a4c691677c1440,001,2021-12-16_16h06.36.099,jm_natural_scene_simialrity_2-12-2021_version2,2021.2.3,Win32,60.0060006,613a9a0390a4c691677c1440,61bbc5c79a1c66460f44041e,61bbc65e706e9b1ffbaa76ef,,,,,,,,,,,,,,,,,,,,,,,,,,,,,,,,,,,,,,,,,,
,,,,,,,,,,,,,,,,,,-4,,,,,,,,,,,,,,,,,,,,,,,,,,,613a9a0390a4c691677c1440,001,2021-12-16_16h06.36.099,jm_natural_scene_simialrity_2-12-2021_version2,2021.2.3,Win32,60.0060006,613a9a0390a4c691677c1440,61bbc5c79a1c66460f44041e,61bbc65e706e9b1ffbaa76ef,,,,space,1.7171,-23.33331496,107.9999925,1,0,0,response7disk,2.1511,2.000019133,-0.666677415,1,0,0,rectangle,2.000019133,-0.666677415,1,0,0,,1,"[72,11,5,156,47,140,76,6,124,39]",2.000019133,-0.666677415,1,0,0,0,0,0,61,1,Turquiose,Turquiose.jpg,LightGreen,LightGreen.jpg,,
,,,,,,,,,,,,,,,,,,-4,,,,,,,,,,,,,,,,,,,,,,,,,,,613a9a0390a4c691677c1440,001,2021-12-16_16h06.36.099,jm_natural_scene_simialrity_2-12-2021_version2,2021.2.3,Win32,60.0060006,613a9a0390a4c691677c1440,61bbc5c79a1c66460f44041e,61bbc65e706e9b1ffbaa76ef,,,,,,-48.66660835,85.99999183,1,0,0,response7disk,1.8505,6.666685939,-3.333344162,1,0,0,rectangle,6.666685939,-3.333344162,1,0,0,,-3,"[72,11,5,156,47,140,76,6,124,39]",6.666685939,-3.333344162,1,0,0,0,1,1,54,1,DarkGreen,DarkGreen.jpg,Yellow,Yellow.jpg,,
,,,,,,,,,,,,,,,,,,-4,,,,,,,,,,,,,,,,,,,,,,,,,,,613a9a0390a4c691677c1440,001,2021-12-16_16h06.36.099,jm_natural_scene_simialrity_2-12-2021_version2,2021.2.3,Win32,60.0060006,613a9a0390a4c691677c1440,61bbc5c79a1c66460f44041e,61bbc65e706e9b1ffbaa76ef,,,,,,-36.666608,101.3333053,1,0,0,response7disk,2.6341,5.333393256,-2.000010788,1,0,0,rectangle,5.333393256,-2.000010788,1,0,0,,-2,"[72,11,5,156,47,140,76,6,124,39]",5.333393256,-2.000010788,1,0,0,0,2,2,16,1,Yellow,Yellow.jpg,Purple,Purple.jpg,,
,,,,,,,,,,,,,,,,,,-2,,,,,,,,,,,,,,,,,,,,,,,,,,,613a9a0390a4c691677c1440,001,2021-12-16_16h06.36.099,jm_natural_scene_simialrity_2-12-2021_version2,2021.2.3,Win32,60.0060006,613a9a0390a4c691677c1440,61bbc5c79a1c66460f44041e,61bbc65e706e9b1ffbaa76ef,,,,,,-87.99998355,-62.00001258,1,0,0,response5disk,4.1512,-12.66660728,3.333322704,1,0,0,rectangle,-12.66660728,3.333322704,1,0,0,,-1,"[72,11,5,156,47,140,76,6,124,39]",-12.66660728,3.333322704,1,0,0,0,3,3,77,1,Purple,Purple.jpg,LightBlue,LightBlue.jpg,,
,,,,,,,,,,,,,,,,,,-4,,,,,,,,,,,,,,,,,,,,,,,,,,,613a9a0390a4c691677c1440,001,2021-12-16_16h06.36.099,jm_natural_scene_simialrity_2-12-2021_version2,2021.2.3,Win32,60.0060006,613a9a0390a4c691677c1440,61bbc5c79a1c66460f44041e,61bbc65e706e9b1ffbaa76ef,,,,,,-69.99998301,113.9999927,1,0,0,response7disk,2.0002,1.90735E-05,-6.000010908,1,0,0,rectangle,-41.99998218,-104.6666805,1,0,0,-1,-1,"[72,11,5,156,47,140,76,6,124,39]",-3.999981046,3.333322704,1,0,0,0,4,4,26,1,DarkGreen,DarkGreen.jpg,LightBlue,LightBlue.jpg,response5disk_3,rectangle
,,,,,,,,,,,,,,,,,,-4,,,,,,,,,,,,,,,,,,,,,,,,,,,613a9a0390a4c691677c1440,001,2021-12-16_16h06.36.099,jm_natural_scene_simialrity_2-12-2021_version2,2021.2.3,Win32,60.0060006,613a9a0390a4c691677c1440,61bbc5c79a1c66460f44041e,61bbc65e706e9b1ffbaa76ef,,,,,,-38.66660806,83.33330474,1,0,0,response7disk,1.9339,-2.666606983,-4.666677535,1,0,0,rectangle,-77.33331656,39.33330343,1,0,0,-3,-3,"[72,11,5,156,47,140,76,6,124,39]",-1.3333143,3.333322704,1,0,0,0,5,5,69,1,Pink,Pink.jpg,DarkGreen,DarkGreen.jpg,response7disk_3,rectangle
,,,,,,,,,,,,,,,,,,-4,,,,,,,,,,,,,,,,,,,,,,,,,,,613a9a0390a4c691677c1440,001,2021-12-16_16h06.36.099,jm_natural_scene_simialrity_2-12-2021_version2,2021.2.3,Win32,60.0060006,613a9a0390a4c691677c1440,61bbc5c79a1c66460f44041e,61bbc65e706e9b1ffbaa76ef,,,,,,-59.99998271,103.9999924,1,0,0,response7disk,1.5513,0.66668576,-6.666677594,1,0,0,rectangle,0.66668576,-6.666677594,1,0,0,-3,-1,"[72,11,5,156,47,140,76,6,124,39]",0.66668576,-6.666677594,1,0,0,0,6,6,5,1,Red,Red.jpg,LightBlue,LightBlue.jpg,,
,,,,,,,,,,,,,,,,,,-4,,,,,,,,,,,,,,,,,,,,,,,,,,,613a9a0390a4c691677c1440,001,2021-12-16_16h06.36.099,jm_natural_scene_simialrity_2-12-2021_version2,2021.2.3,Win32,60.0060006,613a9a0390a4c691677c1440,61bbc5c79a1c66460f44041e,61bbc65e706e9b1ffbaa76ef,,,,,,-47.99998236,97.33330516,1,0,0,response7disk,1.2842,1.333393137,-1.07288E-05,1,0,0,rectangle,1.333393137,-1.07288E-05,1,0,0,-3,-3,"[72,11,5,156,47,140,76,6,124,39]",1.333393137,-1.07288E-05,1,0,0,0,7,7,43,1,Pink,Pink.jpg,Purple,Purple.jpg,,
,,,,,,,,,,,,,,,,,,4,,,,,,,,,,,,,,,,,,,,,,,,,,,613a9a0390a4c691677c1440,001,2021-12-16_16h06.36.099,jm_natural_scene_simialrity_2-12-2021_version2,2021.2.3,Win32,60.0060006,613a9a0390a4c691677c1440,61bbc5c79a1c66460f44041e,61bbc65e706e9b1ffbaa76ef,,,,,,53.333354,100.6666589,1,0,0,response1disk,1.1994,-2.666606983,0.666655958,1,0,0,rectangle,-2.666606983,0.666655958,1,0,0,-3,2,"[72,11,5,156,47,140,76,6,124,39]",-2.666606983,0.666655958,1,0,0,0,8,8,0,1,Red,Red.jpg,Red,Red.jpg,,
,,,,,,,,,,,,,,,,,,-4,,,,,,,,,,,,,,,,,,,,,,,,,,,613a9a0390a4c691677c1440,001,2021-12-16_16h06.36.099,jm_natural_scene_simialrity_2-12-2021_version2,2021.2.3,Win32,60.0060006,613a9a0390a4c691677c1440,61bbc5c79a1c66460f44041e,61bbc65e706e9b1ffbaa76ef,,,,,,-39.99998212,100.6666589,1,0,0,response7disk,1.4005,11.33339343,3.333322704,1,0,0,rectangle,11.33339343,3.333322704,1,0,0,-3,-2,"[72,11,5,156,47,140,76,6,124,39]",11.33339343,3.333322704,1,0,0,0,9,9,28,1,DarkGreen,DarkGreen.jpg,Pink,Pink.jpg,,
,,,,,,,,,,,,,,,,,,-2,,,,,,,,,,,,,,,,,,,,,,,,,,,613a9a0390a4c691677c1440,001,2021-12-16_16h06.36.099,jm_natural_scene_simialrity_2-12-2021_version2,2021.2.3,Win32,60.0060006,613a9a0390a4c691677c1440,61bbc5c79a1c66460f44041e,61bbc65e706e9b1ffbaa76ef,,,,,,-90.66660961,-52.66667897,1,0,0,response5disk,2.485,-5.999981105,-3.333344162,1,0,0,rectangle,-53.33331585,92.6666587,1,0,0,-4,-4,"[72,11,5,156,47,140,76,6,124,39]",2.000019133,-10.00001103,1,0,0,0,10,10,32,1,Turquiose,Turquiose.jpg,DarkBlue,DarkBlue.jpg,response7disk_3,rectangle
,,,,,,,,,,,,,,,,,,-4,,,,,,,,,,,,,,,,,,,,,,,,,,,613a9a0390a4c691677c1440,001,2021-12-16_16h06.36.099,jm_natural_scene_simialrity_2-12-2021_version2,2021.2.3,Win32,60.0060006,613a9a0390a4c691677c1440,61bbc5c79a1c66460f44041e,61bbc65e706e9b1ffbaa76ef,,,,,,-39.33331543,100.6666589,1,0,0,response7disk,1.2852,-3.333314359,7.99998951,1,0,0,rectangle,-3.333314359,7.99998951,1,0,0,-4,-1,"[72,11,5,156,47,140,76,6,124,39]",-3.333314359,7.99998951,1,0,0,0,11,11,33,1,Turquiose,Turquiose.jpg,Pink,Pink.jpg,,
,,,,,,,,,,,,,,,,,,-4,,,,,,,,,,,,,,,,,,,,,,,,,,,613a9a0390a4c691677c1440,001,2021-12-16_16h06.36.099,jm_natural_scene_simialrity_2-12-2021_version2,2021.2.3,Win32,60.0060006,613a9a0390a4c691677c1440,61bbc5c79a1c66460f44041e,61bbc65e706e9b1ffbaa76ef,,,,,,-41.99998218,94.66665876,1,0,0,response7disk,1.517,-1.999980986,-12.66667777,1,0,0,rectangle,-1.999980986,-12.66667777,1,0,0,-4,-1,"[72,11,5,156,47,140,76,6,124,39]",-1.999980986,-12.66667777,1,0,0,0,12,12,52,1,Purple,Purple.jpg,Red,Red.jpg,,
,,,,,,,,,,,,,,,,,,-4,,,,,,,,,,,,,,,,,,,,,,,,,,,613a9a0390a4c691677c1440,001,2021-12-16_16h06.36.099,jm_natural_scene_simialrity_2-12-2021_version2,2021.2.3,Win32,60.0060006,613a9a0390a4c691677c1440,61bbc5c79a1c66460f44041e,61bbc65e706e9b1ffbaa76ef,,,,,,-50.66660841,109.3333259,1,0,0,response7disk,1.4839,10.00001937,-8.000010967,1,0,0,rectangle,10.00001937,-8.000010967,1,0,0,-4,-2,"[72,11,5,156,47,140,76,6,124,39]",10.00001937,-8.000010967,1,0,0,0,13,13,76,1,Pink,Pink.jpg,LightBlue,LightBlue.jpg,,
,,,,,,,,,,,,,,,,,,-1,,,,,,,,,,,,,,,,,,,,,,,,,,,613a9a0390a4c691677c1440,001,2021-12-16_16h06.36.099,jm_natural_scene_simialrity_2-12-2021_version2,2021.2.3,Win32,60.0060006,613a9a0390a4c691677c1440,61bbc5c79a1c66460f44041e,61bbc65e706e9b1ffbaa76ef,,,,,,-48.66660835,-111.3333474,1,0,0,response5disk,2.1843,-6.666607102,-2.000010788,1,0,0,rectangle,-6.666607102,-2.000010788,1,0,0,-4,-3,"[72,11,5,156,47,140,76,6,124,39]",-6.666607102,-2.000010788,1,0,0,0,14,14,71,1,LightBlue,LightBlue.jpg,Turquiose,Turquiose.jpg,,
,,,,,,,,,,,,,,,,,,-4,,,,,,,,,,,,,,,,,,,,,,,,,,,613a9a0390a4c691677c1440,001,2021-12-16_16h06.36.099,jm_natural_scene_simialrity_2-12-2021_version2,2021.2.3,Win32,60.0060006,613a9a0390a4c691677c1440,61bbc5c79a1c66460f44041e,61bbc65e706e9b1ffbaa76ef,,,,,,-48.66660835,98.66665888,1,0,0,response7disk,1.284,-1.999980986,7.333322823,1,0,0,rectangle,-1.999980986,7.333322823,1,0,0,-4,3,"[72,11,5,156,47,140,76,6,124,39]",-1.999980986,7.333322823,1,0,0,0,15,15,59,1,Purple,Purple.jpg,Yellow,Yellow.jpg,,
,,,,,,,,,,,,,,,,,,4,,,,,,,,,,,,,,,,,,,,,,,,,,,613a9a0390a4c691677c1440,001,2021-12-16_16h06.36.099,jm_natural_scene_simialrity_2-12-2021_version2,2021.2.3,Win32,60.0060006,613a9a0390a4c691677c1440,61bbc5c79a1c66460f44041e,61bbc65e706e9b1ffbaa76ef,,,,,,44.00002038,100.6666589,1,0,0,response1disk,1.1011,-5.999981105,2.666656017,1,0,0,rectangle,-5.999981105,2.666656017,1,0,0,-4,1,"[72,11,5,156,47,140,76,6,124,39]",-5.999981105,2.666656017,1,0,0,0,16,16,24,1,DarkGreen,DarkGreen.jpg,DarkGreen,DarkGreen.jpg,,
,,,,,,,,,,,,,,,,,,-3,,,,,,,,,,,,,,,,,,,,,,,,,,,613a9a0390a4c691677c1440,001,2021-12-16_16h06.36.099,jm_natural_scene_simialrity_2-12-2021_version2,2021.2.3,Win32,60.0060006,613a9a0390a4c691677c1440,61bbc5c79a1c66460f44041e,61bbc65e706e9b1ffbaa76ef,,,,,,-98.66660984,53.99999088,1,0,0,response7disk,1.8338,-11.3333146,11.33332294,1,0,0,rectangle,-11.3333146,11.33332294,1,0,0,-4,1,"[72,11,5,156,47,140,76,6,124,39]",-11.3333146,11.33332294,1,0,0,0,17,17,38,1,LightBlue,LightBlue.jpg,Purple,Purple.jpg,,
,,,,,,,,,,,,,,,,,,-4,,,,,,,,,,,,,,,,,,,,,,,,,,,613a9a0390a4c691677c1440,001,2021-12-16_16h06.36.099,jm_natural_scene_simialrity_2-12-2021_version2,2021.2.3,Win32,60.0060006,613a9a0390a4c691677c1440,61bbc5c79a1c66460f44041e,61bbc65e706e9b1ffbaa76ef,,,,,,-29.99998182,87.33330486,1,0,0,response7disk,1.3669,2.66668582,-1.07288E-05,1,0,0,rectangle,2.66668582,-1.07288E-05,1,0,0,-4,-2,"[72,11,5,156,47,140,76,6,124,39]",2.66668582,-1.07288E-05,1,0,0,0,18,18,55,1,Turquiose,Turquiose.jpg,Yellow,Yellow.jpg,,
,,,,,,,,,,,,,,,,,,-4,,,,,,,,,,,,,,,,,,,,,,,,,,,613a9a0390a4c691677c1440,001,2021-12-16_16h06.36.099,jm_natural_scene_simialrity_2-12-2021_version2,2021.2.3,Win32,60.0060006,613a9a0390a4c691677c1440,61bbc5c79a1c66460f44041e,61bbc65e706e9b1ffbaa76ef,,,,,,-41.99998218,77.33330456,1,0,0,response7disk,1.2173,-13.99998134,-0.666677415,1,0,0,rectangle,-13.99998134,-0.666677415,1,0,0,-4,1,"[72,11,5,156,47,140,76,6,124,39]",-13.99998134,-0.666677415,1,0,0,0,19,19,64,1,Pink,Pink.jpg,LightGreen,LightGreen.jpg,,
,,,,,,,,,,,,,,,,,,-1,,,,,,,,,,,,,,,,,,,,,,,,,,,613a9a0390a4c691677c1440,001,2021-12-16_16h06.36.099,jm_natural_scene_simialrity_2-12-2021_version2,2021.2.3,Win32,60.0060006,613a9a0390a4c691677c1440,61bbc5c79a1c66460f44041e,61bbc65e706e9b1ffbaa76ef,,,,,,-45.9999823,-94.00001353,1,0,0,response5disk,4.3515,0.66668576,13.333323,1,0,0,rectangle,0.66668576,13.333323,1,0,0,-4,-3,"[72,11,5,156,47,140,76,6,124,39]",0.66668576,13.333323,1,0,0,0,20,20,8,1,Red,Red.jpg,Purple,Purple.jpg,,
,,,,,,,,,,,,,,,,,,-3,,,,,,,,,,,,,,,,,,,,,,,,,,,613a9a0390a4c691677c1440,001,2021-12-16_16h06.36.099,jm_natural_scene_simialrity_2-12-2021_version2,2021.2.3,Win32,60.0060006,613a9a0390a4c691677c1440,61bbc5c79a1c66460f44041e,61bbc65e706e9b1ffbaa76ef,,,,,,-84.66660943,43.99999058,1,0,0,response7disk,1.9167,3.333393196,-1.07288E-05,1,0,0,rectangle,3.333393196,-1.07288E-05,1,0,0,-4,-1,"[72,11,5,156,47,140,76,6,124,39]",3.333393196,-1.07288E-05,1,0,0,0,21,21,36,1,LightBlue,LightBlue.jpg,DarkBlue,DarkBlue.jpg,,
,,,,,,,,,,,,,,,,,,2,,,,,,,,,,,,,,,,,,,,,,,,,,,613a9a0390a4c691677c1440,001,2021-12-16_16h06.36.099,jm_natural_scene_simialrity_2-12-2021_version2,2021.2.3,Win32,60.0060006,613a9a0390a4c691677c1440,61bbc5c79a1c66460f44041e,61bbc65e706e9b1ffbaa76ef,,,,,,102.6666888,-48.66667885,1,0,0,response3disk,2.1336,12.66668612,14.66665637,1,0,0,rectangle,12.66668612,14.66665637,1,0,0,-4,3,"[72,11,5,156,47,140,76,6,124,39]",12.66668612,14.66665637,1,0,0,0,22,22,60,1,DarkGreen,DarkGreen.jpg,LightGreen,LightGreen.jpg,,
,,,,,,,,,,,,,,,,,,-3,,,,,,,,,,,,,,,,,,,,,,,,,,,613a9a0390a4c691677c1440,001,2021-12-16_16h06.36.099,jm_natural_scene_simialrity_2-12-2021_version2,2021.2.3,Win32,60.0060006,613a9a0390a4c691677c1440,61bbc5c79a1c66460f44041e,61bbc65e706e9b1ffbaa76ef,,,,,,-99.33331722,48.66665739,1,0,0,response7disk,1.3677,-11.3333146,-4.666677535,1,0,0,rectangle,-11.3333146,-4.666677535,1,0,0,-4,-4,"[72,11,5,156,47,140,76,6,124,39]",-11.3333146,-4.666677535,1,0,0,0,23,23,29,1,DarkGreen,DarkGreen.jpg,Purple,Purple.jpg,,
,,,,,,,,,,,,,,,,,,-2,,,,,,,,,,,,,,,,,,,,,,,,,,,613a9a0390a4c691677c1440,001,2021-12-16_16h06.36.099,jm_natural_scene_simialrity_2-12-2021_version2,2021.2.3,Win32,60.0060006,613a9a0390a4c691677c1440,61bbc5c79a1c66460f44041e,61bbc65e706e9b1ffbaa76ef,,,,,,-85.99998349,-54.66667902,1,0,0,response5disk,2.4669,-11.99998128,-3.333344162,1,0,0,rectangle,-11.99998128,-3.333344162,1,0,0,-4,-1,"[72,11,5,156,47,140,76,6,124,39]",-11.99998128,-3.333344162,1,0,0,0,24,24,15,1,Yellow,Yellow.jpg,Pink,Pink.jpg,,
,,,,,,,,,,,,,,,,,,-3,,,,,,,,,,,,,,,,,,,,,,,,,,,613a9a0390a4c691677c1440,001,2021-12-16_16h06.36.099,jm_natural_scene_simialrity_2-12-2021_version2,2021.2.3,Win32,60.0060006,613a9a0390a4c691677c1440,61bbc5c79a1c66460f44041e,61bbc65e706e9b1ffbaa76ef,,,,,,-97.33331716,57.999991,1,0,0,response7disk,2.4345,-19.33331484,-1.07288E-05,1,0,0,rectangle,-19.33331484,-1.07288E-05,1,0,0,-4,-1,"[72,11,5,156,47,140,76,6,124,39]",-19.33331484,-1.07288E-05,1,0,0,0,25,25,74,1,Purple,Purple.jpg,Turquiose,Turquiose.jpg,,
,,,,,,,,,,,,,,,,,,4,,,,,,,,,,,,,,,,,,,,,,,,,,,613a9a0390a4c691677c1440,001,2021-12-16_16h06.36.099,jm_natural_scene_simialrity_2-12-2021_version2,2021.2.3,Win32,60.0060006,613a9a0390a4c691677c1440,61bbc5c79a1c66460f44041e,61bbc65e706e9b1ffbaa76ef,,,,,,44.00002038,103.9999924,1,0,0,response1disk,1.1509,6.000019252,-6.666677594,1,0,0,rectangle,6.000019252,-6.666677594,1,0,0,-4,2,"[72,11,5,156,47,140,76,6,124,39]",6.000019252,-6.666677594,1,0,0,0,26,26,44,1,Purple,Purple.jpg,Purple,Purple.jpg,,
,,,,,,,,,,,,,,,,,,-3,,,,,,,,,,,,,,,,,,,,,,,,,,,613a9a0390a4c691677c1440,001,2021-12-16_16h06.36.099,jm_natural_scene_simialrity_2-12-2021_version2,2021.2.3,Win32,60.0060006,613a9a0390a4c691677c1440,61bbc5c79a1c66460f44041e,61bbc65e706e9b1ffbaa76ef,,,,,,-98.66660984,35.33330331,1,0,0,response7disk,1.3672,-2.666606983,-4.666677535,1,0,0,rectangle,-2.666606983,-4.666677535,1,0,0,-4,-2,"[72,11,5,156,47,140,76,6,124,39]",-2.666606983,-4.666677535,1,0,0,0,27,27,37,1,LightBlue,LightBlue.jpg,Pink,Pink.jpg,,
,,,,,,,,,,,,,,,,,,-3,,,,,,,,,,,,,,,,,,,,,,,,,,,613a9a0390a4c691677c1440,001,2021-12-16_16h06.36.099,jm_natural_scene_simialrity_2-12-2021_version2,2021.2.3,Win32,60.0060006,613a9a0390a4c691677c1440,61bbc5c79a1c66460f44041e,61bbc65e706e9b1ffbaa76ef,,,,,,-79.99998331,33.99999028,1,0,0,response7disk,1.4672,-3.333314359,-7.333344281,1,0,0,rectangle,-3.333314359,-7.333344281,1,0,0,-4,1,"[72,11,5,156,47,140,76,6,124,39]",-3.333314359,-7.333344281,1,0,0,0,28,28,31,1,Turquiose,Turquiose.jpg,LightBlue,LightBlue.jpg,,
,,,,,,,,,,,,,,,,,,-2,,,,,,,,,,,,,,,,,,,,,,,,,,,613a9a0390a4c691677c1440,001,2021-12-16_16h06.36.099,jm_natural_scene_simialrity_2-12-2021_version2,2021.2.3,Win32,60.0060006,613a9a0390a4c691677c1440,61bbc5c79a1c66460f44041e,61bbc65e706e9b1ffbaa76ef,,,,,,-85.3333168,-30.66667831,1,0,0,response5disk,1.6006,3.333393196,1.333322644,1,0,0,rectangle,3.333393196,1.333322644,1,0,0,-4,2,"[72,11,5,156,47,140,76,6,124,39]",3.333393196,1.333322644,1,0,0,0,29,29,75,1,DarkBlue,DarkBlue.jpg,LightBlue,LightBlue.jpg,,
,,,,,,,,,,,,,,,,,,-1,,,,,,,,,,,,,,,,,,,,,,,,,,,613a9a0390a4c691677c1440,001,2021-12-16_16h06.36.099,jm_natural_scene_simialrity_2-12-2021_version2,2021.2.3,Win32,60.0060006,613a9a0390a4c691677c1440,61bbc5c79a1c66460f44041e,61bbc65e706e9b1ffbaa76ef,,,,,,-35.33331531,-83.33334655,1,0,0,response5disk,2.867,21.33339373,-1.333344102,1,0,0,rectangle,21.33339373,-1.333344102,1,0,0,-4,-2,"[72,11,5,156,47,140,76,6,124,39]",21.33339373,-1.333344102,1,0,0,0,30,30,58,1,Pink,Pink.jpg,Yellow,Yellow.jpg,,
,,,,,,,,,,,,,,,,,,-4,,,,,,,,,,,,,,,,,,,,,,,,,,,613a9a0390a4c691677c1440,001,2021-12-16_16h06.36.099,jm_natural_scene_simialrity_2-12-2021_version2,2021.2.3,Win32,60.0060006,613a9a0390a4c691677c1440,61bbc5c79a1c66460f44041e,61bbc65e706e9b1ffbaa76ef,,,,,,-61.99998277,89.99999195,1,0,0,response7disk,1.2346,2.000019133,5.99998945,1,0,0,rectangle,2.000019133,5.99998945,1,0,0,-4,-4,"[72,11,5,156,47,140,76,6,124,39]",2.000019133,5.99998945,1,0,0,0,31,31,57,1,DarkBlue,DarkBlue.jpg,Yellow,Yellow.jpg,,
,,,,,,,,,,,,,,,,,,-3,,,,,,,,,,,,,,,,,,,,,,,,,,,613a9a0390a4c691677c1440,001,2021-12-16_16h06.36.099,jm_natural_scene_simialrity_2-12-2021_version2,2021.2.3,Win32,60.0060006,613a9a0390a4c691677c1440,61bbc5c79a1c66460f44041e,61bbc65e706e9b1ffbaa76ef,,,,,,-82.66660937,27.99999011,1,0,0,response7disk,1.1511,6.666685939,2.666656017,1,0,0,rectangle,6.666685939,2.666656017,1,0,0,-4,-1,"[72,11,5,156,47,140,76,6,124,39]",6.666685939,2.666656017,1,0,0,0,32,32,34,1,Turquiose,Turquiose.jpg,Purple,Purple.jpg,,
,,,,,,,,,,,,,,,,,,-3,,,,,,,,,,,,,,,,,,,,,,,,,,,613a9a0390a4c691677c1440,001,2021-12-16_16h06.36.099,jm_natural_scene_simialrity_2-12-2021_version2,2021.2.3,Win32,60.0060006,613a9a0390a4c691677c1440,61bbc5c79a1c66460f44041e,61bbc65e706e9b1ffbaa76ef,,,,,,-98.66660984,33.33330325,1,0,0,response7disk,2.2343,-7.999981165,7.333322823,1,0,0,rectangle,-7.999981165,7.333322823,1,0,0,-4,-3,"[72,11,5,156,47,140,76,6,124,39]",-7.999981165,7.333322823,1,0,0,0,33,33,63,1,DarkBlue,DarkBlue.jpg,LightGreen,LightGreen.jpg,,
,,,,,,,,,,,,,,,,,,-4,,,,,,,,,,,,,,,,,,,,,,,,,,,613a9a0390a4c691677c1440,001,2021-12-16_16h06.36.099,jm_natural_scene_simialrity_2-12-2021_version2,2021.2.3,Win32,60.0060006,613a9a0390a4c691677c1440,61bbc5c79a1c66460f44041e,61bbc65e706e9b1ffbaa76ef,,,,,,-60.66660871,110.6666592,1,0,0,response7disk,2.4177,0.66668576,9.999989569,1,0,0,rectangle,0.66668576,9.999989569,1,0,0,-4,-3,"[72,11,5,156,47,140,76,6,124,39]",0.66668576,9.999989569,1,0,0,0,34,34,73,1,Pink,Pink.jpg,Turquiose,Turquiose.jpg,,
,,,,,,,,,,,,,,,,,,-3,,,,,,,,,,,,,,,,,,,,,,,,,,,613a9a0390a4c691677c1440,001,2021-12-16_16h06.36.099,jm_natural_scene_simialrity_2-12-2021_version2,2021.2.3,Win32,60.0060006,613a9a0390a4c691677c1440,61bbc5c79a1c66460f44041e,61bbc65e706e9b1ffbaa76ef,,,,,,-101.3333173,43.33330355,1,0,0,response7disk,3.3343,-8.666607161,6.666656137,1,0,0,rectangle,-8.666607161,6.666656137,1,0,0,-4,-4,"[72,11,5,156,47,140,76,6,124,39]",-8.666607161,6.666656137,1,0,0,0,35,35,70,1,Purple,Purple.jpg,DarkGreen,DarkGreen.jpg,,
,,,,,,,,,,,,,,,,,,-4,,,,,,,,,,,,,,,,,,,,,,,,,,,613a9a0390a4c691677c1440,001,2021-12-16_16h06.36.099,jm_natural_scene_simialrity_2-12-2021_version2,2021.2.3,Win32,60.0060006,613a9a0390a4c691677c1440,61bbc5c79a1c66460f44041e,61bbc65e706e9b1ffbaa76ef,,,,,,-57.99998266,87.33330486,1,0,0,response7disk,1.8166,-1.3333143,9.999989569,1,0,0,rectangle,-1.3333143,9.999989569,1,0,0,-4,-4,"[72,11,5,156,47,140,76,6,124,39]",-1.3333143,9.999989569,1,0,0,0,36,36,21,1,LightGreen,LightGreen.jpg,DarkBlue,DarkBlue.jpg,,
,,,,,,,,,,,,,,,,,,2,,,,,,,,,,,,,,,,,,,,,,,,,,,613a9a0390a4c691677c1440,001,2021-12-16_16h06.36.099,jm_natural_scene_simialrity_2-12-2021_version2,2021.2.3,Win32,60.0060006,613a9a0390a4c691677c1440,61bbc5c79a1c66460f44041e,61bbc65e706e9b1ffbaa76ef,,,,,,117.3333559,-32.66667837,1,0,0,response3disk,2.0679,11.33339343,3.99998939,1,0,0,rectangle,11.33339343,3.99998939,1,0,0,-4,2,"[72,11,5,156,47,140,76,6,124,39]",11.33339343,3.99998939,1,0,0,0,37,37,51,1,Pink,Pink.jpg,Red,Red.jpg,,
,,,,,,,,,,,,,,,,,,-3,,,,,,,,,,,,,,,,,,,,,,,,,,,613a9a0390a4c691677c1440,001,2021-12-16_16h06.36.099,jm_natural_scene_simialrity_2-12-2021_version2,2021.2.3,Win32,60.0060006,613a9a0390a4c691677c1440,61bbc5c79a1c66460f44041e,61bbc65e706e9b1ffbaa76ef,,,,,,-108.6666101,41.33330349,1,0,0,response7disk,1.8674,-0.666606923,-1.07288E-05,1,0,0,rectangle,46.00002044,-112.6666808,1,0,0,1,1,"[72,11,5,156,47,140,76,6,124,39]",-2.666606983,6.666656137,1,0,0,0,38,38,2,1,Red,Red.jpg,LightGreen,LightGreen.jpg,response3disk_3,rectangle
,,,,,,,,,,,,,,,,,,4,,,,,,,,,,,,,,,,,,,,,,,,,,,613a9a0390a4c691677c1440,001,2021-12-16_16h06.36.099,jm_natural_scene_simialrity_2-12-2021_version2,2021.2.3,Win32,60.0060006,613a9a0390a4c691677c1440,61bbc5c79a1c66460f44041e,61bbc65e706e9b1ffbaa76ef,,,,,,58.66668749,99.99999225,1,0,0,response1disk,1.0178,14.00001949,6.666656137,1,0,0,rectangle,14.00001949,6.666656137,1,0,0,1,-1,"[72,11,5,156,47,140,76,6,124,39]",14.00001949,6.666656137,1,0,0,0,39,39,35,1,LightBlue,LightBlue.jpg,LightBlue,LightBlue.jpg,,
,,,,,,,,,,,,,,,,,,-3,,,,,,,,,,,,,,,,,,,,,,,,,,,613a9a0390a4c691677c1440,001,2021-12-16_16h06.36.099,jm_natural_scene_simialrity_2-12-2021_version2,2021.2.3,Win32,60.0060006,613a9a0390a4c691677c1440,61bbc5c79a1c66460f44041e,61bbc65e706e9b1ffbaa76ef,,,,,,-93.33331704,25.33330301,1,0,0,response7disk,1.333,-9.999981225,4.666656077,1,0,0,rectangle,-9.999981225,4.666656077,1,0,0,1,-2,"[72,11,5,156,47,140,76,6,124,39]",-9.999981225,4.666656077,1,0,0,0,40,40,10,1,Yellow,Yellow.jpg,LightGreen,LightGreen.jpg,,
,,,,,,,,,,,,,,,,,,-3,,,,,,,,,,,,,,,,,,,,,,,,,,,613a9a0390a4c691677c1440,001,2021-12-16_16h06.36.099,jm_natural_scene_simialrity_2-12-2021_version2,2021.2.3,Win32,60.0060006,613a9a0390a4c691677c1440,61bbc5c79a1c66460f44041e,61bbc65e706e9b1ffbaa76ef,,,,,,-101.3333173,57.999991,1,0,0,response7disk,3.0014,5.333393256,-2.666677475,1,0,0,rectangle,5.333393256,-2.666677475,1,0,0,1,-4,"[72,11,5,156,47,140,76,6,124,39]",5.333393256,-2.666677475,1,0,0,0,41,41,40,1,DarkBlue,DarkBlue.jpg,Pink,Pink.jpg,,
,,,,,,,,,,,,,,,,,,-3,,,,,,,,,,,,,,,,,,,,,,,,,,,613a9a0390a4c691677c1440,001,2021-12-16_16h06.36.099,jm_natural_scene_simialrity_2-12-2021_version2,2021.2.3,Win32,60.0060006,613a9a0390a4c691677c1440,61bbc5c79a1c66460f44041e,61bbc65e706e9b1ffbaa76ef,,,,,,-101.3333173,45.99999064,1,0,0,response7disk,2.1169,2.66668582,3.99998939,1,0,0,rectangle,2.66668582,3.99998939,1,0,0,1,-1,"[72,11,5,156,47,140,76,6,124,39]",2.66668582,3.99998939,1,0,0,0,42,42,4,1,Red,Red.jpg,Turquiose,Turquiose.jpg,,
,,,,,,,,,,,,,,,,,,-4,,,,,,,,,,,,,,,,,,,,,,,,,,,613a9a0390a4c691677c1440,001,2021-12-16_16h06.36.099,jm_natural_scene_simialrity_2-12-2021_version2,2021.2.3,Win32,60.0060006,613a9a0390a4c691677c1440,61bbc5c79a1c66460f44041e,61bbc65e706e9b1ffbaa76ef,,,,,,-49.99998242,103.3333053,1,0,0,response7disk,2.6346,16.66668624,-14.66667783,1,0,0,rectangle,16.66668624,-14.66667783,1,0,0,1,2,"[72,11,5,156,47,140,76,6,124,39]",16.66668624,-14.66667783,1,0,0,0,43,43,11,1,Yellow,Yellow.jpg,DarkGreen,DarkGreen.jpg,,
,,,,,,,,,,,,,,,,,,1,,,,,,,,,,,,,,,,,,,,,,,,,,,613a9a0390a4c691677c1440,001,2021-12-16_16h06.36.099,jm_natural_scene_simialrity_2-12-2021_version2,2021.2.3,Win32,60.0060006,613a9a0390a4c691677c1440,61bbc5c79a1c66460f44041e,61bbc65e706e9b1ffbaa76ef,,,,,,46.00002044,-104.6666805,1,0,0,response3disk,3.0516,-5.333314419,-4.666677535,1,0,0,rectangle,-5.333314419,-4.666677535,1,0,0,1,1,"[72,11,5,156,47,140,76,6,124,39]",-5.333314419,-4.666677535,1,0,0,0,44,44,1,1,Red,Red.jpg,Yellow,Yellow.jpg,,
,,,,,,,,,,,,,,,,,,-3,,,,,,,,,,,,,,,,,,,,,,,,,,,613a9a0390a4c691677c1440,001,2021-12-16_16h06.36.099,jm_natural_scene_simialrity_2-12-2021_version2,2021.2.3,Win32,60.0060006,613a9a0390a4c691677c1440,61bbc5c79a1c66460f44041e,61bbc65e706e9b1ffbaa76ef,,,,,,-92.66660966,34.66665697,1,0,0,response7disk,1.3836,-11.3333146,2.666656017,1,0,0,rectangle,-11.3333146,2.666656017,1,0,0,1,2,"[72,11,5,156,47,140,76,6,124,39]",-11.3333146,2.666656017,1,0,0,0,45,45,19,1,LightGreen,LightGreen.jpg,Turquiose,Turquiose.jpg,,
,,,,,,,,,,,,,,,,,,-4,,,,,,,,,,,,,,,,,,,,,,,,,,,613a9a0390a4c691677c1440,001,2021-12-16_16h06.36.099,jm_natural_scene_simialrity_2-12-2021_version2,2021.2.3,Win32,60.0060006,613a9a0390a4c691677c1440,61bbc5c79a1c66460f44041e,61bbc65e706e9b1ffbaa76ef,,,,,,-48.66660835,94.66665876,1,0,0,response7disk,2.0341,14.66668618,11.33332294,1,0,0,rectangle,-101.3333173,38.66665709,1,0,0,-3,-3,"[72,11,5,156,47,140,76,6,124,39]",-1.3333143,-1.07288E-05,1,0,0,0,46,46,56,1,LightBlue,LightBlue.jpg,Yellow,Yellow.jpg,response7disk_3,rectangle
,,,,,,,,,,,,,,,,,,-1,,,,,,,,,,,,,,,,,,,,,,,,,,,613a9a0390a4c691677c1440,001,2021-12-16_16h06.36.099,jm_natural_scene_simialrity_2-12-2021_version2,2021.2.3,Win32,60.0060006,613a9a0390a4c691677c1440,61bbc5c79a1c66460f44041e,61bbc65e706e9b1ffbaa76ef,,,,,,-49.99998242,-99.33334702,1,0,0,response5disk,2.3505,16.00001955,15.33332306,1,0,0,rectangle,16.00001955,15.33332306,1,0,0,-3,3,"[72,11,5,156,47,140,76,6,124,39]",16.00001955,15.33332306,1,0,0,0,47,47,80,1,Purple,Purple.jpg,Pink,Pink.jpg,,
,,,,,,,,,,,,,,,,,,4,,,,,,,,,,,,,,,,,,,,,,,,,,,613a9a0390a4c691677c1440,001,2021-12-16_16h06.36.099,jm_natural_scene_simialrity_2-12-2021_version2,2021.2.3,Win32,60.0060006,613a9a0390a4c691677c1440,61bbc5c79a1c66460f44041e,61bbc65e706e9b1ffbaa76ef,,,,,,54.00002068,109.9999925,1,0,0,response1disk,0.9672,7.333393315,3.99998939,1,0,0,rectangle,7.333393315,3.99998939,1,0,0,-3,3,"[72,11,5,156,47,140,76,6,124,39]",7.333393315,3.99998939,1,0,0,0,48,48,42,1,Pink,Pink.jpg,Pink,Pink.jpg,,
,,,,,,,,,,,,,,,,,,-3,,,,,,,,,,,,,,,,,,,,,,,,,,,613a9a0390a4c691677c1440,001,2021-12-16_16h06.36.099,jm_natural_scene_simialrity_2-12-2021_version2,2021.2.3,Win32,60.0060006,613a9a0390a4c691677c1440,61bbc5c79a1c66460f44041e,61bbc65e706e9b1ffbaa76ef,,,,,,-85.99998349,45.99999064,1,0,0,response7disk,1.1344,4.000019193,-7.333344281,1,0,0,rectangle,4.000019193,-7.333344281,1,0,0,-3,-2,"[72,11,5,156,47,140,76,6,124,39]",4.000019193,-7.333344281,1,0,0,0,49,49,12,1,Yellow,Yellow.jpg,Turquiose,Turquiose.jpg,,
,,,,,,,,,,,,,,,,,,-3,,,,,,,,,,,,,,,,,,,,,,,,,,,613a9a0390a4c691677c1440,001,2021-12-16_16h06.36.099,jm_natural_scene_simialrity_2-12-2021_version2,2021.2.3,Win32,60.0060006,613a9a0390a4c691677c1440,61bbc5c79a1c66460f44041e,61bbc65e706e9b1ffbaa76ef,,,,,,-87.99998355,41.99999052,1,0,0,response7disk,1.8175,2.000019133,3.333322704,1,0,0,rectangle,2.000019133,3.333322704,1,0,0,-3,3,"[72,11,5,156,47,140,76,6,124,39]",2.000019133,3.333322704,1,0,0,0,50,50,66,1,Turquiose,Turquiose.jpg,DarkGreen,DarkGreen.jpg,,
,,,,,,,,,,,,,,,,,,-3,,,,,,,,,,,,,,,,,,,,,,,,,,,613a9a0390a4c691677c1440,001,2021-12-16_16h06.36.099,jm_natural_scene_simialrity_2-12-2021_version2,2021.2.3,Win32,60.0060006,613a9a0390a4c691677c1440,61bbc5c79a1c66460f44041e,61bbc65e706e9b1ffbaa76ef,,,,,,-119.9999845,35.99999034,1,0,0,response7disk,2.2349,5.333393256,2.666656017,1,0,0,rectangle,5.333393256,2.666656017,1,0,0,-3,2,"[72,11,5,156,47,140,76,6,124,39]",5.333393256,2.666656017,1,0,0,0,51,51,23,1,LightGreen,LightGreen.jpg,Purple,Purple.jpg,,
,,,,,,,,,,,,,,,,,,-3,,,,,,,,,,,,,,,,,,,,,,,,,,,613a9a0390a4c691677c1440,001,2021-12-16_16h06.36.099,jm_natural_scene_simialrity_2-12-2021_version2,2021.2.3,Win32,60.0060006,613a9a0390a4c691677c1440,61bbc5c79a1c66460f44041e,61bbc65e706e9b1ffbaa76ef,,,,,,-103.999984,35.33330331,1,0,0,response7disk,1.6669,-5.333314419,9.333322883,1,0,0,rectangle,-5.333314419,9.333322883,1,0,0,-3,3,"[72,11,5,156,47,140,76,6,124,39]",-5.333314419,9.333322883,1,0,0,0,52,52,27,1,DarkGreen,DarkGreen.jpg,DarkBlue,DarkBlue.jpg,,
,,,,,,,,,,,,,,,,,,-4,,,,,,,,,,,,,,,,,,,,,,,,,,,613a9a0390a4c691677c1440,001,2021-12-16_16h06.36.099,jm_natural_scene_simialrity_2-12-2021_version2,2021.2.3,Win32,60.0060006,613a9a0390a4c691677c1440,61bbc5c79a1c66460f44041e,61bbc65e706e9b1ffbaa76ef,,,,,,-53.33331585,89.33330492,1,0,0,response7disk,1.3672,-3.999981046,16.66665643,1,0,0,rectangle,-3.999981046,16.66665643,1,0,0,-3,1,"[72,11,5,156,47,140,76,6,124,39]",-3.999981046,16.66665643,1,0,0,0,53,53,22,1,LightGreen,LightGreen.jpg,Pink,Pink.jpg,,
,,,,,,,,,,,,,,,,,,3,,,,,,,,,,,,,,,,,,,,,,,,,,,613a9a0390a4c691677c1440,001,2021-12-16_16h06.36.099,jm_natural_scene_simialrity_2-12-2021_version2,2021.2.3,Win32,60.0060006,613a9a0390a4c691677c1440,61bbc5c79a1c66460f44041e,61bbc65e706e9b1ffbaa76ef,,,,,,110.0000224,53.99999088,1,0,0,response1disk,1.4718,0.66668576,-4.000010848,1,0,0,rectangle,0.66668576,-4.000010848,1,0,0,-3,2,"[72,11,5,156,47,140,76,6,124,39]",0.66668576,-4.000010848,1,0,0,0,54,54,18,1,LightGreen,LightGreen.jpg,DarkGreen,DarkGreen.jpg,,
,,,,,,,,,,,,,,,,,,-2,,,,,,,,,,,,,,,,,,,,,,,,,,,613a9a0390a4c691677c1440,001,2021-12-16_16h06.36.099,jm_natural_scene_simialrity_2-12-2021_version2,2021.2.3,Win32,60.0060006,613a9a0390a4c691677c1440,61bbc5c79a1c66460f44041e,61bbc65e706e9b1ffbaa76ef,,,,,,-83.99998343,-40.66667861,1,0,0,response5disk,1.8335,-1.3333143,1.333322644,1,0,0,rectangle,-1.3333143,1.333322644,1,0,0,-3,1,"[72,11,5,156,47,140,76,6,124,39]",-1.3333143,1.333322644,1,0,0,0,55,55,3,1,Red,Red.jpg,DarkGreen,DarkGreen.jpg,,
,,,,,,,,,,,,,,,,,,-1,,,,,,,,,,,,,,,,,,,,,,,,,,,613a9a0390a4c691677c1440,001,2021-12-16_16h06.36.099,jm_natural_scene_simialrity_2-12-2021_version2,2021.2.3,Win32,60.0060006,613a9a0390a4c691677c1440,61bbc5c79a1c66460f44041e,61bbc65e706e9b1ffbaa76ef,,,,,,-64.66660883,-94.66668022,1,0,0,response5disk,2.5006,1.90735E-05,-5.333344221,1,0,0,rectangle,1.90735E-05,-5.333344221,1,0,0,-3,2,"[72,11,5,156,47,140,76,6,124,39]",1.90735E-05,-5.333344221,1,0,0,0,56,56,25,1,DarkGreen,DarkGreen.jpg,Turquiose,Turquiose.jpg,,
,,,,,,,,,,,,,,,,,,4,,,,,,,,,,,,,,,,,,,,,,,,,,,613a9a0390a4c691677c1440,001,2021-12-16_16h06.36.099,jm_natural_scene_simialrity_2-12-2021_version2,2021.2.3,Win32,60.0060006,613a9a0390a4c691677c1440,61bbc5c79a1c66460f44041e,61bbc65e706e9b1ffbaa76ef,,,,,,44.66668707,112.6666593,1,0,0,response1disk,1.2504,16.00001955,10.66665626,1,0,0,rectangle,16.00001955,10.66665626,1,0,0,-3,-3,"[72,11,5,156,47,140,76,6,124,39]",16.00001955,10.66665626,1,0,0,0,57,57,39,1,DarkBlue,DarkBlue.jpg,DarkBlue,DarkBlue.jpg,,
,,,,,,,,,,,,,,,,,,3,,,,,,,,,,,,,,,,,,,,,,,,,,,613a9a0390a4c691677c1440,001,2021-12-16_16h06.36.099,jm_natural_scene_simialrity_2-12-2021_version2,2021.2.3,Win32,60.0060006,613a9a0390a4c691677c1440,61bbc5c79a1c66460f44041e,61bbc65e706e9b1ffbaa76ef,,,,,,101.3333554,48.66665739,1,0,0,response1disk,1.3172,10.66668606,1.999989331,1,0,0,rectangle,10.66668606,1.999989331,1,0,0,-3,2,"[72,11,5,156,47,140,76,6,124,39]",10.66668606,1.999989331,1,0,0,0,58,58,7,1,Red,Red.jpg,Pink,Pink.jpg,,
,,,,,,,,,,,,,,,,,,-1,,,,,,,,,,,,,,,,,,,,,,,,,,,613a9a0390a4c691677c1440,001,2021-12-16_16h06.36.099,jm_natural_scene_simialrity_2-12-2021_version2,2021.2.3,Win32,60.0060006,613a9a0390a4c691677c1440,61bbc5c79a1c66460f44041e,61bbc65e706e9b1ffbaa76ef,,,,,,-44.66660823,-117.3333476,1,0,0,response5disk,1.6507,4.666685879,-10.00001103,1,0,0,rectangle,4.666685879,-10.00001103,1,0,0,-3,-3,"[72,11,5,156,47,140,76,6,124,39]",4.666685879,-10.00001103,1,0,0,0,59,59,49,1,LightBlue,LightBlue.jpg,Red,Red.jpg,,
,,,,,,,,,,,,,,,,,,-3,,,,,,,,,,,,,,,,,,,,,,,,,,,613a9a0390a4c691677c1440,001,2021-12-16_16h06.36.099,jm_natural_scene_simialrity_2-12-2021_version2,2021.2.3,Win32,60.0060006,613a9a0390a4c691677c1440,61bbc5c79a1c66460f44041e,61bbc65e706e9b1ffbaa76ef,,,,,,-112.6666103,34.66665697,1,0,0,response7disk,1.6837,-13.99998134,11.99998963,1,0,0,rectangle,-13.99998134,11.99998963,1,0,0,-3,3,"[72,11,5,156,47,140,76,6,124,39]",-13.99998134,11.99998963,1,0,0,0,60,60,6,1,Red,Red.jpg,DarkBlue,DarkBlue.jpg,,
,,,,,,,,,,,,,,,,,,-2,,,,,,,,,,,,,,,,,,,,,,,,,,,613a9a0390a4c691677c1440,001,2021-12-16_16h06.36.099,jm_natural_scene_simialrity_2-12-2021_version2,2021.2.3,Win32,60.0060006,613a9a0390a4c691677c1440,61bbc5c79a1c66460f44041e,61bbc65e706e9b1ffbaa76ef,,,,,,-85.99998349,-38.66667855,1,0,0,response5disk,2.0667,-17.99998146,-2.666677475,1,0,0,rectangle,-17.99998146,-2.666677475,1,0,0,-3,1,"[72,11,5,156,47,140,76,6,124,39]",-17.99998146,-2.666677475,1,0,0,0,61,61,53,1,LightGreen,LightGreen.jpg,Yellow,Yellow.jpg,,
,,,,,,,,,,,,,,,,,,-3,,,,,,,,,,,,,,,,,,,,,,,,,,,613a9a0390a4c691677c1440,001,2021-12-16_16h06.36.099,jm_natural_scene_simialrity_2-12-2021_version2,2021.2.3,Win32,60.0060006,613a9a0390a4c691677c1440,61bbc5c79a1c66460f44041e,61bbc65e706e9b1ffbaa76ef,,,,,,-107.3333175,41.99999052,1,0,0,response7disk,2.0829,-22.66660758,15.33332306,1,0,0,rectangle,-22.66660758,15.33332306,1,0,0,-3,-4,"[72,11,5,156,47,140,76,6,124,39]",-22.66660758,15.33332306,1,0,0,0,62,62,62,1,LightBlue,LightBlue.jpg,LightGreen,LightGreen.jpg,,
,,,,,,,,,,,,,,,,,,-2,,,,,,,,,,,,,,,,,,,,,,,,,,,613a9a0390a4c691677c1440,001,2021-12-16_16h06.36.099,jm_natural_scene_simialrity_2-12-2021_version2,2021.2.3,Win32,60.0060006,613a9a0390a4c691677c1440,61bbc5c79a1c66460f44041e,61bbc65e706e9b1ffbaa76ef,,,,,,-93.33331704,-36.66667849,1,0,0,response5disk,1.7174,-0.666606923,5.99998945,1,0,0,rectangle,-0.666606923,5.99998945,1,0,0,-3,-3,"[72,11,5,156,47,140,76,6,124,39]",-0.666606923,5.99998945,1,0,0,0,63,63,72,1,DarkBlue,DarkBlue.jpg,Turquiose,Turquiose.jpg,,
,,,,,,,,,,,,,,,,,,-3,,,,,,,,,,,,,,,,,,,,,,,,,,,613a9a0390a4c691677c1440,001,2021-12-16_16h06.36.099,jm_natural_scene_simialrity_2-12-2021_version2,2021.2.3,Win32,60.0060006,613a9a0390a4c691677c1440,61bbc5c79a1c66460f44041e,61bbc65e706e9b1ffbaa76ef,,,,,,-103.999984,41.33330349,1,0,0,response7disk,2.1368,-13.33331466,13.99998969,1,0,0,rectangle,-13.33331466,13.99998969,1,0,0,-3,-3,"[72,11,5,156,47,140,76,6,124,39]",-13.33331466,13.99998969,1,0,0,0,64,64,67,1,LightBlue,LightBlue.jpg,DarkGreen,DarkGreen.jpg,,
,,,,,,,,,,,,,,,,,,4,,,,,,,,,,,,,,,,,,,,,,,,,,,613a9a0390a4c691677c1440,001,2021-12-16_16h06.36.099,jm_natural_scene_simialrity_2-12-2021_version2,2021.2.3,Win32,60.0060006,613a9a0390a4c691677c1440,61bbc5c79a1c66460f44041e,61bbc65e706e9b1ffbaa76ef,,,,,,43.3333537,93.33330504,1,0,0,response1disk,1.1173,2.000019133,7.99998951,1,0,0,rectangle,2.000019133,7.99998951,1,0,0,-3,3,"[72,11,5,156,47,140,76,6,124,39]",2.000019133,7.99998951,1,0,0,0,65,65,9,1,Yellow,Yellow.jpg,Yellow,Yellow.jpg,,
,,,,,,,,,,,,,,,,,,-2,,,,,,,,,,,,,,,,,,,,,,,,,,,613a9a0390a4c691677c1440,001,2021-12-16_16h06.36.099,jm_natural_scene_simialrity_2-12-2021_version2,2021.2.3,Win32,60.0060006,613a9a0390a4c691677c1440,61bbc5c79a1c66460f44041e,61bbc65e706e9b1ffbaa76ef,,,,,,-105.3333174,-49.33334553,1,0,0,response5disk,1.2002,7.333393315,4.666656077,1,0,0,rectangle,7.333393315,4.666656077,1,0,0,-3,3,"[72,11,5,156,47,140,76,6,124,39]",7.333393315,4.666656077,1,0,0,0,66,66,68,1,DarkBlue,DarkBlue.jpg,DarkGreen,DarkGreen.jpg,,
,,,,,,,,,,,,,,,,,,-3,,,,,,,,,,,,,,,,,,,,,,,,,,,613a9a0390a4c691677c1440,001,2021-12-16_16h06.36.099,jm_natural_scene_simialrity_2-12-2021_version2,2021.2.3,Win32,60.0060006,613a9a0390a4c691677c1440,61bbc5c79a1c66460f44041e,61bbc65e706e9b1ffbaa76ef,,,,,,-83.99998343,35.99999034,1,0,0,response7disk,1.3001,-5.333314419,4.666656077,1,0,0,rectangle,-5.333314419,4.666656077,1,0,0,-3,3,"[72,11,5,156,47,140,76,6,124,39]",-5.333314419,4.666656077,1,0,0,0,67,67,65,1,Purple,Purple.jpg,LightGreen,LightGreen.jpg,,
,,,,,,,,,,,,,,,,,,-3,,,,,,,,,,,,,,,,,,,,,,,,,,,613a9a0390a4c691677c1440,001,2021-12-16_16h06.36.099,jm_natural_scene_simialrity_2-12-2021_version2,2021.2.3,Win32,60.0060006,613a9a0390a4c691677c1440,61bbc5c79a1c66460f44041e,61bbc65e706e9b1ffbaa76ef,,,,,,-89.33331692,39.33330343,1,0,0,response7disk,1.4841,-2.666606983,3.333322704,1,0,0,rectangle,-2.666606983,3.333322704,1,0,0,-3,1,"[72,11,5,156,47,140,76,6,124,39]",-2.666606983,3.333322704,1,0,0,0,68,68,79,1,Purple,Purple.jpg,DarkBlue,DarkBlue.jpg,,
,,,,,,,,,,,,,,,,,,-3,,,,,,,,,,,,,,,,,,,,,,,,,,,613a9a0390a4c691677c1440,001,2021-12-16_16h06.36.099,jm_natural_scene_simialrity_2-12-2021_version2,2021.2.3,Win32,60.0060006,613a9a0390a4c691677c1440,61bbc5c79a1c66460f44041e,61bbc65e706e9b1ffbaa76ef,,,,,,-91.33331698,53.33330385,1,0,0,response7disk,1.3172,-11.99998128,13.333323,1,0,0,rectangle,-11.99998128,13.333323,1,0,0,-3,3,"[72,11,5,156,47,140,76,6,124,39]",-11.99998128,13.333323,1,0,0,0,69,69,46,1,LightGreen,LightGreen.jpg,Red,Red.jpg,,
,,,,,,,,,,,,,,,,,,4,,,,,,,,,,,,,,,,,,,,,,,,,,,613a9a0390a4c691677c1440,001,2021-12-16_16h06.36.099,jm_natural_scene_simialrity_2-12-2021_version2,2021.2.3,Win32,60.0060006,613a9a0390a4c691677c1440,61bbc5c79a1c66460f44041e,61bbc65e706e9b1ffbaa76ef,,,,,,61.33335423,107.9999925,1,0,0,response1disk,1.1005,10.66668606,-18.00001127,1,0,0,rectangle,10.66668606,-18.00001127,1,0,0,-3,-3,"[72,11,5,156,47,140,76,6,124,39]",10.66668606,-18.00001127,1,0,0,0,70,70,30,1,Turquiose,Turquiose.jpg,Turquiose,Turquiose.jpg,,
,,,,,,,,,,,,,,,,,,-2,,,,,,,,,,,,,,,,,,,,,,,,,,,613a9a0390a4c691677c1440,001,2021-12-16_16h06.36.099,jm_natural_scene_simialrity_2-12-2021_version2,2021.2.3,Win32,60.0060006,613a9a0390a4c691677c1440,61bbc5c79a1c66460f44041e,61bbc65e706e9b1ffbaa76ef,,,,,,-91.33331698,-45.33334541,1,0,0,response5disk,1.6837,-9.999981225,-3.333344162,1,0,0,rectangle,-109.3333175,45.33330361,1,0,0,-3,-3,"[72,11,5,156,47,140,76,6,124,39]",6.666685939,-3.333344162,1,0,0,0,71,71,20,1,LightGreen,LightGreen.jpg,LightBlue,LightBlue.jpg,response7disk_3,rectangle
,,,,,,,,,,,,,,,,,,-2,,,,,,,,,,,,,,,,,,,,,,,,,,,613a9a0390a4c691677c1440,001,2021-12-16_16h06.36.099,jm_natural_scene_simialrity_2-12-2021_version2,2021.2.3,Win32,60.0060006,613a9a0390a4c691677c1440,61bbc5c79a1c66460f44041e,61bbc65e706e9b1ffbaa76ef,,,,,,-100.6666099,-40.66667861,1,0,0,response5disk,2.0175,5.333393256,-6.000010908,1,0,0,rectangle,5.333393256,-6.000010908,1,0,0,-3,-1,"[72,11,5,156,47,140,76,6,124,39]",5.333393256,-6.000010908,1,0,0,0,72,72,50,1,DarkBlue,DarkBlue.jpg,Red,Red.jpg,,
,,,,,,,,,,,,,,,,,,3,,,,,,,,,,,,,,,,,,,,,,,,,,,613a9a0390a4c691677c1440,001,2021-12-16_16h06.36.099,jm_natural_scene_simialrity_2-12-2021_version2,2021.2.3,Win32,60.0060006,613a9a0390a4c691677c1440,61bbc5c79a1c66460f44041e,61bbc65e706e9b1ffbaa76ef,,,,,,108.666689,67.9999913,1,0,0,response1disk,2.0717,12.66668612,3.99998939,1,0,0,rectangle,12.66668612,3.99998939,1,0,0,-3,1,"[72,11,5,156,47,140,76,6,124,39]",12.66668612,3.99998939,1,0,0,0,73,73,45,1,Yellow,Yellow.jpg,Red,Red.jpg,,
,,,,,,,,,,,,,,,,,,-1,,,,,,,,,,,,,,,,,,,,,,,,,,,613a9a0390a4c691677c1440,001,2021-12-16_16h06.36.099,jm_natural_scene_simialrity_2-12-2021_version2,2021.2.3,Win32,60.0060006,613a9a0390a4c691677c1440,61bbc5c79a1c66460f44041e,61bbc65e706e9b1ffbaa76ef,,,,,,-33.33331525,-99.33334702,1,0,0,response5disk,1.5837,10.00001937,-9.33334434,1,0,0,rectangle,10.00001937,-9.33334434,1,0,0,-3,-2,"[72,11,5,156,47,140,76,6,124,39]",10.00001937,-9.33334434,1,0,0,0,74,74,48,1,Turquiose,Turquiose.jpg,Red,Red.jpg,,
,,,,,,,,,,,,,,,,,,-3,,,,,,,,,,,,,,,,,,,,,,,,,,,613a9a0390a4c691677c1440,001,2021-12-16_16h06.36.099,jm_natural_scene_simialrity_2-12-2021_version2,2021.2.3,Win32,60.0060006,613a9a0390a4c691677c1440,61bbc5c79a1c66460f44041e,61bbc65e706e9b1ffbaa76ef,,,,,,-85.3333168,27.99999011,1,0,0,response7disk,1.233,-5.333314419,-6.666677594,1,0,0,rectangle,53.333354,-103.3333471,1,0,0,1,1,"[72,11,5,156,47,140,76,6,124,39]",2.66668582,-3.333344162,1,0,0,0,75,75,78,1,Pink,Pink.jpg,DarkBlue,DarkBlue.jpg,response3disk_3,rectangle
,,,,,,,,,,,,,,,,,,-3,,,,,,,,,,,,,,,,,,,,,,,,,,,613a9a0390a4c691677c1440,001,2021-12-16_16h06.36.099,jm_natural_scene_simialrity_2-12-2021_version2,2021.2.3,Win32,60.0060006,613a9a0390a4c691677c1440,61bbc5c79a1c66460f44041e,61bbc65e706e9b1ffbaa76ef,,,,,,-80.66660931,41.99999052,1,0,0,response7disk,1.2175,10.66668606,-13.33334446,1,0,0,rectangle,10.66668606,-13.33334446,1,0,0,1,2,"[72,11,5,156,47,140,76,6,124,39]",10.66668606,-13.33334446,1,0,0,0,76,76,13,1,Yellow,Yellow.jpg,LightBlue,LightBlue.jpg,,
,,,,,,,,,,,,,,,,,,-2,,,,,,,,,,,,,,,,,,,,,,,,,,,613a9a0390a4c691677c1440,001,2021-12-16_16h06.36.099,jm_natural_scene_simialrity_2-12-2021_version2,2021.2.3,Win32,60.0060006,613a9a0390a4c691677c1440,61bbc5c79a1c66460f44041e,61bbc65e706e9b1ffbaa76ef,,,,,,-104.66661,-41.33334529,1,0,0,response5disk,1.7677,-4.666607042,-1.333344102,1,0,0,rectangle,-4.666607042,-1.333344102,1,0,0,1,-4,"[72,11,5,156,47,140,76,6,124,39]",-4.666607042,-1.333344102,1,0,0,0,77,77,47,1,DarkGreen,DarkGreen.jpg,Red,Red.jpg,,
,,,,,,,,,,,,,,,,,,-3,,,,,,,,,,,,,,,,,,,,,,,,,,,613a9a0390a4c691677c1440,001,2021-12-16_16h06.36.099,jm_natural_scene_simialrity_2-12-2021_version2,2021.2.3,Win32,60.0060006,613a9a0390a4c691677c1440,61bbc5c79a1c66460f44041e,61bbc65e706e9b1ffbaa76ef,,,,,,-101.999984,49.33330373,1,0,0,response7disk,1.1166,-13.99998134,-4.000010848,1,0,0,rectangle,-13.99998134,-4.000010848,1,0,0,1,1,"[72,11,5,156,47,140,76,6,124,39]",-13.99998134,-4.000010848,1,0,0,0,78,78,41,1,DarkBlue,DarkBlue.jpg,Purple,Purple.jpg,,
,,,,,,,,,,,,,,,,,,4,,,,,,,,,,,,,,,,,,,,,,,,,,,613a9a0390a4c691677c1440,001,2021-12-16_16h06.36.099,jm_natural_scene_simialrity_2-12-2021_version2,2021.2.3,Win32,60.0060006,613a9a0390a4c691677c1440,61bbc5c79a1c66460f44041e,61bbc65e706e9b1ffbaa76ef,,,,,,58.0000208,127.3333264,1,0,0,response1disk,0.917,3.333393196,3.99998939,1,0,0,rectangle,3.333393196,3.99998939,1,0,0,1,-3,"[72,11,5,156,47,140,76,6,124,39]",3.333393196,3.99998939,1,0,0,0,79,79,17,1,LightGreen,LightGreen.jpg,LightGreen,LightGreen.jpg,,
,,,,,,,,,,,,,,,,,,-3,,,,,,,,,,,,,,,,,,,,,,,,,,,613a9a0390a4c691677c1440,001,2021-12-16_16h06.36.099,jm_natural_scene_simialrity_2-12-2021_version2,2021.2.3,Win32,60.0060006,613a9a0390a4c691677c1440,61bbc5c79a1c66460f44041e,61bbc65e706e9b1ffbaa76ef,,,,,,-91.33331698,39.33330343,1,0,0,response7disk,1.1337,-10.66660722,0.666655958,1,0,0,rectangle,-10.66660722,0.666655958,1,0,0,1,-4,"[72,11,5,156,47,140,76,6,124,39]",-10.66660722,0.666655958,1,0,0,0,80,80,14,1,Yellow,Yellow.jpg,DarkBlue,DarkBlue.jpg,,
,,,,,,,,,,,,,,,,,,4,,,,,,,,,,,,,,,,,,,,,,,,,,,613a9a0390a4c691677c1440,001,2021-12-16_16h06.36.099,jm_natural_scene_simialrity_2-12-2021_version2,2021.2.3,Win32,60.0060006,613a9a0390a4c691677c1440,61bbc5c79a1c66460f44041e,61bbc65e706e9b1ffbaa76ef,,,,,,44.00002038,97.99999219,1,0,0,response1disk,0.9338,9.333393375,-4.666677535,1,0,0,rectangle,9.333393375,-4.666677535,1,0,0,1,2,"[72,11,5,156,47,140,76,6,124,39]",9.333393375,-4.666677535,1,0,0,1,0,81,44,1,Purple,Purple.jpg,Purple,Purple.jpg,,
,,,,,,,,,,,,,,,,,,-3,,,,,,,,,,,,,,,,,,,,,,,,,,,613a9a0390a4c691677c1440,001,2021-12-16_16h06.36.099,jm_natural_scene_simialrity_2-12-2021_version2,2021.2.3,Win32,60.0060006,613a9a0390a4c691677c1440,61bbc5c79a1c66460f44041e,61bbc65e706e9b1ffbaa76ef,,,,,,-98.66660984,43.99999058,1,0,0,response7disk,1.4669,-13.99998134,5.333322763,1,0,0,rectangle,-13.99998134,5.333322763,1,0,0,1,1,"[72,11,5,156,47,140,76,6,124,39]",-13.99998134,5.333322763,1,0,0,1,1,82,55,1,Turquiose,Turquiose.jpg,Yellow,Yellow.jpg,,
,,,,,,,,,,,,,,,,,,-3,,,,,,,,,,,,,,,,,,,,,,,,,,,613a9a0390a4c691677c1440,001,2021-12-16_16h06.36.099,jm_natural_scene_simialrity_2-12-2021_version2,2021.2.3,Win32,60.0060006,613a9a0390a4c691677c1440,61bbc5c79a1c66460f44041e,61bbc65e706e9b1ffbaa76ef,,,,,,-110.6666102,42.66665721,1,0,0,response7disk,1.6507,-7.999981165,10.66665626,1,0,0,rectangle,-7.999981165,10.66665626,1,0,0,1,-3,"[72,11,5,156,47,140,76,6,124,39]",-7.999981165,10.66665626,1,0,0,1,2,83,12,1,Yellow,Yellow.jpg,Turquiose,Turquiose.jpg,,
,,,,,,,,,,,,,,,,,,-2,,,,,,,,,,,,,,,,,,,,,,,,,,,613a9a0390a4c691677c1440,001,2021-12-16_16h06.36.099,jm_natural_scene_simialrity_2-12-2021_version2,2021.2.3,Win32,60.0060006,613a9a0390a4c691677c1440,61bbc5c79a1c66460f44041e,61bbc65e706e9b1ffbaa76ef,,,,,,-95.99998379,-40.66667861,1,0,0,response5disk,0.9004,-10.66660722,-1.07288E-05,1,0,0,rectangle,-10.66660722,-1.07288E-05,1,0,0,1,2,"[72,11,5,156,47,140,76,6,124,39]",-10.66660722,-1.07288E-05,1,0,0,1,3,84,20,1,LightGreen,LightGreen.jpg,LightBlue,LightBlue.jpg,,
,,,,,,,,,,,,,,,,,,-3,,,,,,,,,,,,,,,,,,,,,,,,,,,613a9a0390a4c691677c1440,001,2021-12-16_16h06.36.099,jm_natural_scene_simialrity_2-12-2021_version2,2021.2.3,Win32,60.0060006,613a9a0390a4c691677c1440,61bbc5c79a1c66460f44041e,61bbc65e706e9b1ffbaa76ef,,,,,,-105.3333174,34.66665697,1,0,0,response7disk,1.4173,-16.6666074,8.666656196,1,0,0,rectangle,-16.6666074,8.666656196,1,0,0,1,-1,"[72,11,5,156,47,140,76,6,124,39]",-16.6666074,8.666656196,1,0,0,1,4,85,21,1,LightGreen,LightGreen.jpg,DarkBlue,DarkBlue.jpg,,
,,,,,,,,,,,,,,,,,,-4,,,,,,,,,,,,,,,,,,,,,,,,,,,613a9a0390a4c691677c1440,001,2021-12-16_16h06.36.099,jm_natural_scene_simialrity_2-12-2021_version2,2021.2.3,Win32,60.0060006,613a9a0390a4c691677c1440,61bbc5c79a1c66460f44041e,61bbc65e706e9b1ffbaa76ef,,,,,,-55.9999826,99.33330522,1,0,0,response7disk,1.4006,1.90735E-05,14.66665637,1,0,0,rectangle,1.90735E-05,14.66665637,1,0,0,1,-4,"[72,11,5,156,47,140,76,6,124,39]",1.90735E-05,14.66665637,1,0,0,1,5,86,5,1,Red,Red.jpg,LightBlue,LightBlue.jpg,,
,,,,,,,,,,,,,,,,,,-3,,,,,,,,,,,,,,,,,,,,,,,,,,,613a9a0390a4c691677c1440,001,2021-12-16_16h06.36.099,jm_natural_scene_simialrity_2-12-2021_version2,2021.2.3,Win32,60.0060006,613a9a0390a4c691677c1440,61bbc5c79a1c66460f44041e,61bbc65e706e9b1ffbaa76ef,,,,,,-113.9999843,43.99999058,1,0,0,response7disk,1.4337,-12.66660728,5.99998945,1,0,0,rectangle,-12.66660728,5.99998945,1,0,0,1,-1,"[72,11,5,156,47,140,76,6,124,39]",-12.66660728,5.99998945,1,0,0,1,6,87,19,1,LightGreen,LightGreen.jpg,Turquiose,Turquiose.jpg,,
,,,,,,,,,,,,,,,,,,-3,,,,,,,,,,,,,,,,,,,,,,,,,,,613a9a0390a4c691677c1440,001,2021-12-16_16h06.36.099,jm_natural_scene_simialrity_2-12-2021_version2,2021.2.3,Win32,60.0060006,613a9a0390a4c691677c1440,61bbc5c79a1c66460f44041e,61bbc65e706e9b1ffbaa76ef,,,,,,-101.999984,45.33330361,1,0,0,response7disk,1.3171,-15.9999814,8.666656196,1,0,0,rectangle,-15.9999814,8.666656196,1,0,0,1,-4,"[72,11,5,156,47,140,76,6,124,39]",-15.9999814,8.666656196,1,0,0,1,7,88,43,1,Pink,Pink.jpg,Purple,Purple.jpg,,
,,,,,,,,,,,,,,,,,,-2,,,,,,,,,,,,,,,,,,,,,,,,,,,613a9a0390a4c691677c1440,001,2021-12-16_16h06.36.099,jm_natural_scene_simialrity_2-12-2021_version2,2021.2.3,Win32,60.0060006,613a9a0390a4c691677c1440,61bbc5c79a1c66460f44041e,61bbc65e706e9b1ffbaa76ef,,,,,,-82.66660937,-37.33334517,1,0,0,response5disk,1.0504,-7.999981165,3.333322704,1,0,0,rectangle,-7.999981165,3.333322704,1,0,0,1,-3,"[72,11,5,156,47,140,76,6,124,39]",-7.999981165,3.333322704,1,0,0,1,8,89,47,1,DarkGreen,DarkGreen.jpg,Red,Red.jpg,,
,,,,,,,,,,,,,,,,,,-3,,,,,,,,,,,,,,,,,,,,,,,,,,,613a9a0390a4c691677c1440,001,2021-12-16_16h06.36.099,jm_natural_scene_simialrity_2-12-2021_version2,2021.2.3,Win32,60.0060006,613a9a0390a4c691677c1440,61bbc5c79a1c66460f44041e,61bbc65e706e9b1ffbaa76ef,,,,,,-83.99998343,63.99999118,1,0,0,response7disk,2.3171,-21.99998158,3.99998939,1,0,0,rectangle,-21.99998158,3.99998939,1,0,0,1,2,"[72,11,5,156,47,140,76,6,124,39]",-21.99998158,3.99998939,1,0,0,1,9,90,26,1,DarkGreen,DarkGreen.jpg,LightBlue,LightBlue.jpg,,
,,,,,,,,,,,,,,,,,,-2,,,,,,,,,,,,,,,,,,,,,,,,,,,613a9a0390a4c691677c1440,001,2021-12-16_16h06.36.099,jm_natural_scene_simialrity_2-12-2021_version2,2021.2.3,Win32,60.0060006,613a9a0390a4c691677c1440,61bbc5c79a1c66460f44041e,61bbc65e706e9b1ffbaa76ef,,,,,,-91.99998367,-53.33334565,1,0,0,response5disk,2.2842,8.000019312,5.333322763,1,0,0,rectangle,8.000019312,5.333322763,1,0,0,1,2,"[72,11,5,156,47,140,76,6,124,39]",8.000019312,5.333322763,1,0,0,1,10,91,38,1,LightBlue,LightBlue.jpg,Purple,Purple.jpg,,
,,,,,,,,,,,,,,,,,,-4,,,,,,,,,,,,,,,,,,,,,,,,,,,613a9a0390a4c691677c1440,001,2021-12-16_16h06.36.099,jm_natural_scene_simialrity_2-12-2021_version2,2021.2.3,Win32,60.0060006,613a9a0390a4c691677c1440,61bbc5c79a1c66460f44041e,61bbc65e706e9b1ffbaa76ef,,,,,,-58.66660865,82.6666584,1,0,0,response7disk,2.1675,-5.999981105,5.99998945,1,0,0,rectangle,-5.999981105,5.99998945,1,0,0,1,-2,"[72,11,5,156,47,140,76,6,124,39]",-5.999981105,5.99998945,1,0,0,1,11,92,76,1,Pink,Pink.jpg,LightBlue,LightBlue.jpg,,
,,,,,,,,,,,,,,,,,,-3,,,,,,,,,,,,,,,,,,,,,,,,,,,613a9a0390a4c691677c1440,001,2021-12-16_16h06.36.099,jm_natural_scene_simialrity_2-12-2021_version2,2021.2.3,Win32,60.0060006,613a9a0390a4c691677c1440,61bbc5c79a1c66460f44041e,61bbc65e706e9b1ffbaa76ef,,,,,,-78.66660925,43.99999058,1,0,0,response7disk,1.1501,-3.333314359,2.666656017,1,0,0,rectangle,-3.333314359,2.666656017,1,0,0,1,-4,"[72,11,5,156,47,140,76,6,124,39]",-3.333314359,2.666656017,1,0,0,1,12,93,70,1,Purple,Purple.jpg,DarkGreen,DarkGreen.jpg,,
,,,,,,,,,,,,,,,,,,-2,,,,,,,,,,,,,,,,,,,,,,,,,,,613a9a0390a4c691677c1440,001,2021-12-16_16h06.36.099,jm_natural_scene_simialrity_2-12-2021_version2,2021.2.3,Win32,60.0060006,613a9a0390a4c691677c1440,61bbc5c79a1c66460f44041e,61bbc65e706e9b1ffbaa76ef,,,,,,-67.99998295,-33.33334506,1,0,0,response5disk,1.1337,-5.333314419,-6.000010908,1,0,0,rectangle,-5.333314419,-6.000010908,1,0,0,1,-2,"[72,11,5,156,47,140,76,6,124,39]",-5.333314419,-6.000010908,1,0,0,1,13,94,4,1,Red,Red.jpg,Turquiose,Turquiose.jpg,,
,,,,,,,,,,,,,,,,,,3,,,,,,,,,,,,,,,,,,,,,,,,,,,613a9a0390a4c691677c1440,001,2021-12-16_16h06.36.099,jm_natural_scene_simialrity_2-12-2021_version2,2021.2.3,Win32,60.0060006,613a9a0390a4c691677c1440,61bbc5c79a1c66460f44041e,61bbc65e706e9b1ffbaa76ef,,,,,,96.66668862,41.33330349,1,0,0,response1disk,1.7339,1.90735E-05,0.666655958,1,0,0,rectangle,1.90735E-05,0.666655958,1,0,0,1,-3,"[72,11,5,156,47,140,76,6,124,39]",1.90735E-05,0.666655958,1,0,0,1,14,95,1,1,Red,Red.jpg,Yellow,Yellow.jpg,,
,,,,,,,,,,,,,,,,,,-1,,,,,,,,,,,,,,,,,,,,,,,,,,,613a9a0390a4c691677c1440,001,2021-12-16_16h06.36.099,jm_natural_scene_simialrity_2-12-2021_version2,2021.2.3,Win32,60.0060006,613a9a0390a4c691677c1440,61bbc5c79a1c66460f44041e,61bbc65e706e9b1ffbaa76ef,,,,,,-33.33331525,-126.6666812,1,0,0,response5disk,1.6847,5.333393256,-16.66667789,1,0,0,rectangle,5.333393256,-16.66667789,1,0,0,1,3,"[72,11,5,156,47,140,76,6,124,39]",5.333393256,-16.66667789,1,0,0,1,15,96,41,1,DarkBlue,DarkBlue.jpg,Purple,Purple.jpg,,
,,,,,,,,,,,,,,,,,,4,,,,,,,,,,,,,,,,,,,,,,,,,,,613a9a0390a4c691677c1440,001,2021-12-16_16h06.36.099,jm_natural_scene_simialrity_2-12-2021_version2,2021.2.3,Win32,60.0060006,613a9a0390a4c691677c1440,61bbc5c79a1c66460f44041e,61bbc65e706e9b1ffbaa76ef,,,,,,56.00002074,105.9999924,1,0,0,response1disk,0.9672,2.000019133,-3.333344162,1,0,0,rectangle,2.000019133,-3.333344162,1,0,0,1,1,"[72,11,5,156,47,140,76,6,124,39]",2.000019133,-3.333344162,1,0,0,1,16,97,39,1,DarkBlue,DarkBlue.jpg,DarkBlue,DarkBlue.jpg,,
,,,,,,,,,,,,,,,,,,-2,,,,,,,,,,,,,,,,,,,,,,,,,,,613a9a0390a4c691677c1440,001,2021-12-16_16h06.36.099,jm_natural_scene_simialrity_2-12-2021_version2,2021.2.3,Win32,60.0060006,613a9a0390a4c691677c1440,61bbc5c79a1c66460f44041e,61bbc65e706e9b1ffbaa76ef,,,,,,-83.33331674,-48.66667885,1,0,0,response5disk,2.0171,7.333393315,-11.3333444,1,0,0,rectangle,7.333393315,-11.3333444,1,0,0,1,-4,"[72,11,5,156,47,140,76,6,124,39]",7.333393315,-11.3333444,1,0,0,1,17,98,53,1,LightGreen,LightGreen.jpg,Yellow,Yellow.jpg,,
,,,,,,,,,,,,,,,,,,-2,,,,,,,,,,,,,,,,,,,,,,,,,,,613a9a0390a4c691677c1440,001,2021-12-16_16h06.36.099,jm_natural_scene_simialrity_2-12-2021_version2,2021.2.3,Win32,60.0060006,613a9a0390a4c691677c1440,61bbc5c79a1c66460f44041e,61bbc65e706e9b1ffbaa76ef,,,,,,-98.66660984,-46.66667879,1,0,0,response5disk,1.2172,2.66668582,-7.333344281,1,0,0,rectangle,2.66668582,-7.333344281,1,0,0,1,3,"[72,11,5,156,47,140,76,6,124,39]",2.66668582,-7.333344281,1,0,0,1,18,99,74,1,Purple,Purple.jpg,Turquiose,Turquiose.jpg,,
,,,,,,,,,,,,,,,,,,-3,,,,,,,,,,,,,,,,,,,,,,,,,,,613a9a0390a4c691677c1440,001,2021-12-16_16h06.36.099,jm_natural_scene_simialrity_2-12-2021_version2,2021.2.3,Win32,60.0060006,613a9a0390a4c691677c1440,61bbc5c79a1c66460f44041e,61bbc65e706e9b1ffbaa76ef,,,,,,-74.66660913,32.66665691,1,0,0,response7disk,0.9123,-6.666607102,-3.333344162,1,0,0,rectangle,-6.666607102,-3.333344162,1,0,0,1,-2,"[72,11,5,156,47,140,76,6,124,39]",-6.666607102,-3.333344162,1,0,0,1,19,100,49,1,LightBlue,LightBlue.jpg,Red,Red.jpg,,
,,,,,,,,,,,,,,,,,,3,,,,,,,,,,,,,,,,,,,,,,,,,,,613a9a0390a4c691677c1440,001,2021-12-16_16h06.36.099,jm_natural_scene_simialrity_2-12-2021_version2,2021.2.3,Win32,60.0060006,613a9a0390a4c691677c1440,61bbc5c79a1c66460f44041e,61bbc65e706e9b1ffbaa76ef,,,,,,110.0000224,43.33330355,1,0,0,response1disk,0.967,-1.999980986,-3.333344162,1,0,0,rectangle,-1.999980986,-3.333344162,1,0,0,1,2,"[72,11,5,156,47,140,76,6,124,39]",-1.999980986,-3.333344162,1,0,0,1,20,101,45,1,Yellow,Yellow.jpg,Red,Red.jpg,,
,,,,,,,,,,,,,,,,,,-4,,,,,,,,,,,,,,,,,,,,,,,,,,,613a9a0390a4c691677c1440,001,2021-12-16_16h06.36.099,jm_natural_scene_simialrity_2-12-2021_version2,2021.2.3,Win32,60.0060006,613a9a0390a4c691677c1440,61bbc5c79a1c66460f44041e,61bbc65e706e9b1ffbaa76ef,,,,,,-58.66660865,115.9999927,1,0,0,response7disk,2.5169,4.000019193,10.66665626,1,0,0,rectangle,4.000019193,10.66665626,1,0,0,1,-3,"[72,11,5,156,47,140,76,6,124,39]",4.000019193,10.66665626,1,0,0,1,21,102,56,1,LightBlue,LightBlue.jpg,Yellow,Yellow.jpg,,
,,,,,,,,,,,,,,,,,,4,,,,,,,,,,,,,,,,,,,,,,,,,,,613a9a0390a4c691677c1440,001,2021-12-16_16h06.36.099,jm_natural_scene_simialrity_2-12-2021_version2,2021.2.3,Win32,60.0060006,613a9a0390a4c691677c1440,61bbc5c79a1c66460f44041e,61bbc65e706e9b1ffbaa76ef,,,,,,50.66668725,93.33330504,1,0,0,response1disk,1.0002,0.66668576,5.99998945,1,0,0,rectangle,0.66668576,5.99998945,1,0,0,1,-3,"[72,11,5,156,47,140,76,6,124,39]",0.66668576,5.99998945,1,0,0,1,22,103,42,1,Pink,Pink.jpg,Pink,Pink.jpg,,
,,,,,,,,,,,,,,,,,,-2,,,,,,,,,,,,,,,,,,,,,,,,,,,613a9a0390a4c691677c1440,001,2021-12-16_16h06.36.099,jm_natural_scene_simialrity_2-12-2021_version2,2021.2.3,Win32,60.0060006,613a9a0390a4c691677c1440,61bbc5c79a1c66460f44041e,61bbc65e706e9b1ffbaa76ef,,,,,,-79.99998331,-32.66667837,1,0,0,response5disk,1.2699,-7.333314478,-2.000010788,1,0,0,rectangle,-7.333314478,-2.000010788,1,0,0,1,-3,"[72,11,5,156,47,140,76,6,124,39]",-7.333314478,-2.000010788,1,0,0,1,23,104,13,1,Yellow,Yellow.jpg,LightBlue,LightBlue.jpg,,
,,,,,,,,,,,,,,,,,,4,,,,,,,,,,,,,,,,,,,,,,,,,,,613a9a0390a4c691677c1440,001,2021-12-16_16h06.36.099,jm_natural_scene_simialrity_2-12-2021_version2,2021.2.3,Win32,60.0060006,613a9a0390a4c691677c1440,61bbc5c79a1c66460f44041e,61bbc65e706e9b1ffbaa76ef,,,,,,56.66668743,111.3333259,1,0,0,response1disk,1.0999,8.666685998,4.666656077,1,0,0,rectangle,8.666685998,4.666656077,1,0,0,1,3,"[72,11,5,156,47,140,76,6,124,39]",8.666685998,4.666656077,1,0,0,1,24,105,35,1,LightBlue,LightBlue.jpg,LightBlue,LightBlue.jpg,,
,,,,,,,,,,,,,,,,,,4,,,,,,,,,,,,,,,,,,,,,,,,,,,613a9a0390a4c691677c1440,001,2021-12-16_16h06.36.099,jm_natural_scene_simialrity_2-12-2021_version2,2021.2.3,Win32,60.0060006,613a9a0390a4c691677c1440,61bbc5c79a1c66460f44041e,61bbc65e706e9b1ffbaa76ef,,,,,,38.66668689,93.99999207,1,0,0,response1disk,2.2841,11.33339343,4.666656077,1,0,0,rectangle,11.33339343,4.666656077,1,0,0,1,-3,"[72,11,5,156,47,140,76,6,124,39]",11.33339343,4.666656077,1,0,0,1,25,106,18,1,LightGreen,LightGreen.jpg,DarkGreen,DarkGreen.jpg,,
,,,,,,,,,,,,,,,,,,-1,,,,,,,,,,,,,,,,,,,,,,,,,,,613a9a0390a4c691677c1440,001,2021-12-16_16h06.36.099,jm_natural_scene_simialrity_2-12-2021_version2,2021.2.3,Win32,60.0060006,613a9a0390a4c691677c1440,61bbc5c79a1c66460f44041e,61bbc65e706e9b1ffbaa76ef,,,,,,-26.6666077,-106.6666806,1,0,0,response5disk,3.2849,8.666685998,-18.00001127,1,0,0,rectangle,8.666685998,-18.00001127,1,0,0,1,-2,"[72,11,5,156,47,140,76,6,124,39]",8.666685998,-18.00001127,1,0,0,1,26,107,27,1,DarkGreen,DarkGreen.jpg,DarkBlue,DarkBlue.jpg,,
,,,,,,,,,,,,,,,,,,-3,,,,,,,,,,,,,,,,,,,,,,,,,,,613a9a0390a4c691677c1440,001,2021-12-16_16h06.36.099,jm_natural_scene_simialrity_2-12-2021_version2,2021.2.3,Win32,60.0060006,613a9a0390a4c691677c1440,61bbc5c79a1c66460f44041e,61bbc65e706e9b1ffbaa76ef,,,,,,-91.33331698,39.99999046,1,0,0,response7disk,1.3838,-9.333314538,2.666656017,1,0,0,rectangle,-9.333314538,2.666656017,1,0,0,1,-2,"[72,11,5,156,47,140,76,6,124,39]",-9.333314538,2.666656017,1,0,0,1,27,108,57,1,DarkBlue,DarkBlue.jpg,Yellow,Yellow.jpg,,
,,,,,,,,,,,,,,,,,,-3,,,,,,,,,,,,,,,,,,,,,,,,,,,613a9a0390a4c691677c1440,001,2021-12-16_16h06.36.099,jm_natural_scene_simialrity_2-12-2021_version2,2021.2.3,Win32,60.0060006,613a9a0390a4c691677c1440,61bbc5c79a1c66460f44041e,61bbc65e706e9b1ffbaa76ef,,,,,,-85.3333168,47.9999907,1,0,0,response7disk,1.184,1.333393137,5.333322763,1,0,0,rectangle,1.333393137,5.333322763,1,0,0,1,3,"[72,11,5,156,47,140,76,6,124,39]",1.333393137,5.333322763,1,0,0,1,28,109,28,1,DarkGreen,DarkGreen.jpg,Pink,Pink.jpg,,
,,,,,,,,,,,,,,,,,,3,,,,,,,,,,,,,,,,,,,,,,,,,,,613a9a0390a4c691677c1440,001,2021-12-16_16h06.36.099,jm_natural_scene_simialrity_2-12-2021_version2,2021.2.3,Win32,60.0060006,613a9a0390a4c691677c1440,61bbc5c79a1c66460f44041e,61bbc65e706e9b1ffbaa76ef,,,,,,104.0000222,55.33330391,1,0,0,response1disk,3.0674,18.6666863,1.999989331,1,0,0,rectangle,18.6666863,1.999989331,1,0,0,1,1,"[72,11,5,156,47,140,76,6,124,39]",18.6666863,1.999989331,1,0,0,1,29,110,51,1,Pink,Pink.jpg,Red,Red.jpg,,
,,,,,,,,,,,,,,,,,,-2,,,,,,,,,,,,,,,,,,,,,,,,,,,613a9a0390a4c691677c1440,001,2021-12-16_16h06.36.099,jm_natural_scene_simialrity_2-12-2021_version2,2021.2.3,Win32,60.0060006,613a9a0390a4c691677c1440,61bbc5c79a1c66460f44041e,61bbc65e706e9b1ffbaa76ef,,,,,,-113.9999843,-49.33334553,1,0,0,response5disk,1.4164,6.000019252,4.666656077,1,0,0,rectangle,6.000019252,4.666656077,1,0,0,1,1,"[72,11,5,156,47,140,76,6,124,39]",6.000019252,4.666656077,1,0,0,1,30,111,80,1,Purple,Purple.jpg,Pink,Pink.jpg,,
,,,,,,,,,,,,,,,,,,-3,,,,,,,,,,,,,,,,,,,,,,,,,,,613a9a0390a4c691677c1440,001,2021-12-16_16h06.36.099,jm_natural_scene_simialrity_2-12-2021_version2,2021.2.3,Win32,60.0060006,613a9a0390a4c691677c1440,61bbc5c79a1c66460f44041e,61bbc65e706e9b1ffbaa76ef,,,,,,-79.33331662,39.33330343,1,0,0,response7disk,1.0502,-9.999981225,-4.666677535,1,0,0,rectangle,-9.999981225,-4.666677535,1,0,0,1,-2,"[72,11,5,156,47,140,76,6,124,39]",-9.999981225,-4.666677535,1,0,0,1,31,112,34,1,Turquiose,Turquiose.jpg,Purple,Purple.jpg,,
,,,,,,,,,,,,,,,,,,1,,,,,,,,,,,,,,,,,,,,,,,,,,,613a9a0390a4c691677c1440,001,2021-12-16_16h06.36.099,jm_natural_scene_simialrity_2-12-2021_version2,2021.2.3,Win32,60.0060006,613a9a0390a4c691677c1440,61bbc5c79a1c66460f44041e,61bbc65e706e9b1ffbaa76ef,,,,,,58.66668749,-99.33334702,1,0,0,response3disk,1.8165,-5.333314419,-0.666677415,1,0,0,rectangle,-5.333314419,-0.666677415,1,0,0,1,1,"[72,11,5,156,47,140,76,6,124,39]",-5.333314419,-0.666677415,1,0,0,1,32,113,36,1,LightBlue,LightBlue.jpg,DarkBlue,DarkBlue.jpg,,
,,,,,,,,,,,,,,,,,,-1,,,,,,,,,,,,,,,,,,,,,,,,,,,613a9a0390a4c691677c1440,001,2021-12-16_16h06.36.099,jm_natural_scene_simialrity_2-12-2021_version2,2021.2.3,Win32,60.0060006,613a9a0390a4c691677c1440,61bbc5c79a1c66460f44041e,61bbc65e706e9b1ffbaa76ef,,,,,,-35.999982,-101.3333471,1,0,0,response5disk,2.3674,-0.666606923,-6.000010908,1,0,0,rectangle,-0.666606923,-6.000010908,1,0,0,1,-2,"[72,11,5,156,47,140,76,6,124,39]",-0.666606923,-6.000010908,1,0,0,1,33,114,32,1,Turquiose,Turquiose.jpg,DarkBlue,DarkBlue.jpg,,
,,,,,,,,,,,,,,,,,,4,,,,,,,,,,,,,,,,,,,,,,,,,,,613a9a0390a4c691677c1440,001,2021-12-16_16h06.36.099,jm_natural_scene_simialrity_2-12-2021_version2,2021.2.3,Win32,60.0060006,613a9a0390a4c691677c1440,61bbc5c79a1c66460f44041e,61bbc65e706e9b1ffbaa76ef,,,,,,45.33335376,90.66665864,1,0,0,response1disk,1.1834,1.333393137,-12.66667777,1,0,0,rectangle,1.333393137,-12.66667777,1,0,0,1,-3,"[72,11,5,156,47,140,76,6,124,39]",1.333393137,-12.66667777,1,0,0,1,34,115,9,1,Yellow,Yellow.jpg,Yellow,Yellow.jpg,,
,,,,,,,,,,,,,,,,,,-2,,,,,,,,,,,,,,,,,,,,,,,,,,,613a9a0390a4c691677c1440,001,2021-12-16_16h06.36.099,jm_natural_scene_simialrity_2-12-2021_version2,2021.2.3,Win32,60.0060006,613a9a0390a4c691677c1440,61bbc5c79a1c66460f44041e,61bbc65e706e9b1ffbaa76ef,,,,,,-102.66661,-52.66667897,1,0,0,response5disk,1.3169,-4.666607042,-2.000010788,1,0,0,rectangle,-4.666607042,-2.000010788,1,0,0,1,-4,"[72,11,5,156,47,140,76,6,124,39]",-4.666607042,-2.000010788,1,0,0,1,35,116,2,1,Red,Red.jpg,LightGreen,LightGreen.jpg,,
,,,,,,,,,,,,,,,,,,1,,,,,,,,,,,,,,,,,,,,,,,,,,,613a9a0390a4c691677c1440,001,2021-12-16_16h06.36.099,jm_natural_scene_simialrity_2-12-2021_version2,2021.2.3,Win32,60.0060006,613a9a0390a4c691677c1440,61bbc5c79a1c66460f44041e,61bbc65e706e9b1ffbaa76ef,,,,,,42.66668701,-102.6666805,1,0,0,response3disk,1.9504,-1.999980986,-14.66667783,1,0,0,rectangle,-1.999980986,-14.66667783,1,0,0,1,-3,"[72,11,5,156,47,140,76,6,124,39]",-1.999980986,-14.66667783,1,0,0,1,36,117,14,1,Yellow,Yellow.jpg,DarkBlue,DarkBlue.jpg,,
,,,,,,,,,,,,,,,,,,-1,,,,,,,,,,,,,,,,,,,,,,,,,,,613a9a0390a4c691677c1440,001,2021-12-16_16h06.36.099,jm_natural_scene_simialrity_2-12-2021_version2,2021.2.3,Win32,60.0060006,613a9a0390a4c691677c1440,61bbc5c79a1c66460f44041e,61bbc65e706e9b1ffbaa76ef,,,,,,-47.99998236,-100.6666804,1,0,0,response5disk,2.6841,-5.999981105,-1.333344102,1,0,0,rectangle,-5.999981105,-1.333344102,1,0,0,1,-1,"[72,11,5,156,47,140,76,6,124,39]",-5.999981105,-1.333344102,1,0,0,1,37,118,78,1,Pink,Pink.jpg,DarkBlue,DarkBlue.jpg,,
,,,,,,,,,,,,,,,,,,-3,,,,,,,,,,,,,,,,,,,,,,,,,,,613a9a0390a4c691677c1440,001,2021-12-16_16h06.36.099,jm_natural_scene_simialrity_2-12-2021_version2,2021.2.3,Win32,60.0060006,613a9a0390a4c691677c1440,61bbc5c79a1c66460f44041e,61bbc65e706e9b1ffbaa76ef,,,,,,-97.99998385,37.9999904,1,0,0,response7disk,1.5005,3.333393196,-6.000010908,1,0,0,rectangle,3.333393196,-6.000010908,1,0,0,1,1,"[72,11,5,156,47,140,76,6,124,39]",3.333393196,-6.000010908,1,0,0,1,38,119,68,1,DarkBlue,DarkBlue.jpg,DarkGreen,DarkGreen.jpg,,
,,,,,,,,,,,,,,,,,,-2,,,,,,,,,,,,,,,,,,,,,,,,,,,613a9a0390a4c691677c1440,001,2021-12-16_16h06.36.099,jm_natural_scene_simialrity_2-12-2021_version2,2021.2.3,Win32,60.0060006,613a9a0390a4c691677c1440,61bbc5c79a1c66460f44041e,61bbc65e706e9b1ffbaa76ef,,,,,,-101.3333173,-59.33334583,1,0,0,response5disk,1.4005,7.333393315,-5.333344221,1,0,0,rectangle,7.333393315,-5.333344221,1,0,0,1,3,"[72,11,5,156,47,140,76,6,124,39]",7.333393315,-5.333344221,1,0,0,1,39,120,22,1,LightGreen,LightGreen.jpg,Pink,Pink.jpg,,
,,,,,,,,,,,,,,,,,,2,,,,,,,,,,,,,,,,,,,,,,,,,,,613a9a0390a4c691677c1440,001,2021-12-16_16h06.36.099,jm_natural_scene_simialrity_2-12-2021_version2,2021.2.3,Win32,60.0060006,613a9a0390a4c691677c1440,61bbc5c79a1c66460f44041e,61bbc65e706e9b1ffbaa76ef,,,,,,117.3333559,-50.00001222,1,0,0,response3disk,1.4348,12.66668612,1.999989331,1,0,0,rectangle,12.66668612,1.999989331,1,0,0,1,-4,"[72,11,5,156,47,140,76,6,124,39]",12.66668612,1.999989331,1,0,0,1,40,121,58,1,Pink,Pink.jpg,Yellow,Yellow.jpg,,
,,,,,,,,,,,,,,,,,,-1,,,,,,,,,,,,,,,,,,,,,,,,,,,613a9a0390a4c691677c1440,001,2021-12-16_16h06.36.099,jm_natural_scene_simialrity_2-12-2021_version2,2021.2.3,Win32,60.0060006,613a9a0390a4c691677c1440,61bbc5c79a1c66460f44041e,61bbc65e706e9b1ffbaa76ef,,,,,,-37.99998206,-105.3333472,1,0,0,response5disk,2.7673,-1.3333143,-6.000010908,1,0,0,rectangle,-1.3333143,-6.000010908,1,0,0,1,-2,"[72,11,5,156,47,140,76,6,124,39]",-1.3333143,-6.000010908,1,0,0,1,41,122,10,1,Yellow,Yellow.jpg,LightGreen,LightGreen.jpg,,
,,,,,,,,,,,,,,,,,,-2,,,,,,,,,,,,,,,,,,,,,,,,,,,613a9a0390a4c691677c1440,001,2021-12-16_16h06.36.099,jm_natural_scene_simialrity_2-12-2021_version2,2021.2.3,Win32,60.0060006,613a9a0390a4c691677c1440,61bbc5c79a1c66460f44041e,61bbc65e706e9b1ffbaa76ef,,,,,,-73.99998313,-38.00001186,1,0,0,response5disk,3.502,-11.99998128,-4.000010848,1,0,0,rectangle,115.3333558,45.99999064,1,0,0,3,3,"[72,11,5,156,47,140,76,6,124,39]",-1.999980986,11.33332294,1,0,0,1,42,123,67,1,LightBlue,LightBlue.jpg,DarkGreen,DarkGreen.jpg,response1disk_3,rectangle
,,,,,,,,,,,,,,,,,,3,,,,,,,,,,,,,,,,,,,,,,,,,,,613a9a0390a4c691677c1440,001,2021-12-16_16h06.36.099,jm_natural_scene_simialrity_2-12-2021_version2,2021.2.3,Win32,60.0060006,613a9a0390a4c691677c1440,61bbc5c79a1c66460f44041e,61bbc65e706e9b1ffbaa76ef,,,,,,94.00002187,59.99999106,1,0,0,response1disk,1.2672,18.00001961,5.99998945,1,0,0,rectangle,18.00001961,5.99998945,1,0,0,3,1,"[72,11,5,156,47,140,76,6,124,39]",18.00001961,5.99998945,1,0,0,1,43,124,15,1,Yellow,Yellow.jpg,Pink,Pink.jpg,,
,,,,,,,,,,,,,,,,,,-1,,,,,,,,,,,,,,,,,,,,,,,,,,,613a9a0390a4c691677c1440,001,2021-12-16_16h06.36.099,jm_natural_scene_simialrity_2-12-2021_version2,2021.2.3,Win32,60.0060006,613a9a0390a4c691677c1440,61bbc5c79a1c66460f44041e,61bbc65e706e9b1ffbaa76ef,,,,,,-57.33331597,-108.6666806,1,0,0,response5disk,1.901,-3.999981046,-14.66667783,1,0,0,rectangle,-3.999981046,-14.66667783,1,0,0,3,2,"[72,11,5,156,47,140,76,6,124,39]",-3.999981046,-14.66667783,1,0,0,1,44,125,25,1,DarkGreen,DarkGreen.jpg,Turquiose,Turquiose.jpg,,
,,,,,,,,,,,,,,,,,,-2,,,,,,,,,,,,,,,,,,,,,,,,,,,613a9a0390a4c691677c1440,001,2021-12-16_16h06.36.099,jm_natural_scene_simialrity_2-12-2021_version2,2021.2.3,Win32,60.0060006,613a9a0390a4c691677c1440,61bbc5c79a1c66460f44041e,61bbc65e706e9b1ffbaa76ef,,,,,,-98.66660984,-53.33334565,1,0,0,response5disk,1.2513,4.666685879,-5.333344221,1,0,0,rectangle,4.666685879,-5.333344221,1,0,0,3,1,"[72,11,5,156,47,140,76,6,124,39]",4.666685879,-5.333344221,1,0,0,1,45,126,66,1,Turquiose,Turquiose.jpg,DarkGreen,DarkGreen.jpg,,
,,,,,,,,,,,,,,,,,,-1,,,,,,,,,,,,,,,,,,,,,,,,,,,613a9a0390a4c691677c1440,001,2021-12-16_16h06.36.099,jm_natural_scene_simialrity_2-12-2021_version2,2021.2.3,Win32,60.0060006,613a9a0390a4c691677c1440,61bbc5c79a1c66460f44041e,61bbc65e706e9b1ffbaa76ef,,,,,,-53.33331585,-114.0000141,1,0,0,response5disk,1.9845,-2.666606983,-12.00001109,1,0,0,rectangle,-2.666606983,-12.00001109,1,0,0,3,1,"[72,11,5,156,47,140,76,6,124,39]",-2.666606983,-12.00001109,1,0,0,1,46,127,31,1,Turquiose,Turquiose.jpg,LightBlue,LightBlue.jpg,,
,,,,,,,,,,,,,,,,,,-4,,,,,,,,,,,,,,,,,,,,,,,,,,,613a9a0390a4c691677c1440,001,2021-12-16_16h06.36.099,jm_natural_scene_simialrity_2-12-2021_version2,2021.2.3,Win32,60.0060006,613a9a0390a4c691677c1440,61bbc5c79a1c66460f44041e,61bbc65e706e9b1ffbaa76ef,,,,,,-69.33331633,97.33330516,1,0,0,response7disk,1.5003,-2.666606983,9.333322883,1,0,0,rectangle,-2.666606983,9.333322883,1,0,0,3,-4,"[72,11,5,156,47,140,76,6,124,39]",-2.666606983,9.333322883,1,0,0,1,47,128,37,1,LightBlue,LightBlue.jpg,Pink,Pink.jpg,,
,,,,,,,,,,,,,,,,,,-3,,,,,,,,,,,,,,,,,,,,,,,,,,,613a9a0390a4c691677c1440,001,2021-12-16_16h06.36.099,jm_natural_scene_simialrity_2-12-2021_version2,2021.2.3,Win32,60.0060006,613a9a0390a4c691677c1440,61bbc5c79a1c66460f44041e,61bbc65e706e9b1ffbaa76ef,,,,,,-89.33331692,41.33330349,1,0,0,response7disk,1.7831,-3.333314359,1.333322644,1,0,0,rectangle,-3.333314359,1.333322644,1,0,0,3,-4,"[72,11,5,156,47,140,76,6,124,39]",-3.333314359,1.333322644,1,0,0,1,48,129,64,1,Pink,Pink.jpg,LightGreen,LightGreen.jpg,,
,,,,,,,,,,,,,,,,,,-3,,,,,,,,,,,,,,,,,,,,,,,,,,,613a9a0390a4c691677c1440,001,2021-12-16_16h06.36.099,jm_natural_scene_simialrity_2-12-2021_version2,2021.2.3,Win32,60.0060006,613a9a0390a4c691677c1440,61bbc5c79a1c66460f44041e,61bbc65e706e9b1ffbaa76ef,,,,,,-97.33331716,47.33330367,1,0,0,response7disk,1.8499,-24.66660764,0.666655958,1,0,0,rectangle,-24.66660764,0.666655958,1,0,0,3,2,"[72,11,5,156,47,140,76,6,124,39]",-24.66660764,0.666655958,1,0,0,1,49,130,46,1,LightGreen,LightGreen.jpg,Red,Red.jpg,,
,,,,,,,,,,,,,,,,,,4,,,,,,,,,,,,,,,,,,,,,,,,,,,613a9a0390a4c691677c1440,001,2021-12-16_16h06.36.099,jm_natural_scene_simialrity_2-12-2021_version2,2021.2.3,Win32,60.0060006,613a9a0390a4c691677c1440,61bbc5c79a1c66460f44041e,61bbc65e706e9b1ffbaa76ef,,,,,,59.33335418,111.9999926,1,0,0,response1disk,1.0168,6.666685939,4.666656077,1,0,0,rectangle,6.666685939,4.666656077,1,0,0,3,3,"[72,11,5,156,47,140,76,6,124,39]",6.666685939,4.666656077,1,0,0,1,50,131,30,1,Turquiose,Turquiose.jpg,Turquiose,Turquiose.jpg,,
,,,,,,,,,,,,,,,,,,4,,,,,,,,,,,,,,,,,,,,,,,,,,,613a9a0390a4c691677c1440,001,2021-12-16_16h06.36.099,jm_natural_scene_simialrity_2-12-2021_version2,2021.2.3,Win32,60.0060006,613a9a0390a4c691677c1440,61bbc5c79a1c66460f44041e,61bbc65e706e9b1ffbaa76ef,,,,,,45.33335376,119.9999928,1,0,0,response1disk,0.8837,12.66668612,9.333322883,1,0,0,rectangle,12.66668612,9.333322883,1,0,0,3,2,"[72,11,5,156,47,140,76,6,124,39]",12.66668612,9.333322883,1,0,0,1,51,132,24,1,DarkGreen,DarkGreen.jpg,DarkGreen,DarkGreen.jpg,,
,,,,,,,,,,,,,,,,,,1,,,,,,,,,,,,,,,,,,,,,,,,,,,613a9a0390a4c691677c1440,001,2021-12-16_16h06.36.099,jm_natural_scene_simialrity_2-12-2021_version2,2021.2.3,Win32,60.0060006,613a9a0390a4c691677c1440,61bbc5c79a1c66460f44041e,61bbc65e706e9b1ffbaa76ef,,,,,,54.66668737,-101.3333471,1,0,0,response3disk,2.0839,6.666685939,-1.333344102,1,0,0,rectangle,6.666685939,-1.333344102,1,0,0,3,2,"[72,11,5,156,47,140,76,6,124,39]",6.666685939,-1.333344102,1,0,0,1,52,133,79,1,Purple,Purple.jpg,DarkBlue,DarkBlue.jpg,,
,,,,,,,,,,,,,,,,,,-4,,,,,,,,,,,,,,,,,,,,,,,,,,,613a9a0390a4c691677c1440,001,2021-12-16_16h06.36.099,jm_natural_scene_simialrity_2-12-2021_version2,2021.2.3,Win32,60.0060006,613a9a0390a4c691677c1440,61bbc5c79a1c66460f44041e,61bbc65e706e9b1ffbaa76ef,,,,,,-48.66660835,85.3333048,1,0,0,response7disk,1.5505,-12.66660728,8.666656196,1,0,0,rectangle,-12.66660728,8.666656196,1,0,0,3,-1,"[72,11,5,156,47,140,76,6,124,39]",-12.66660728,8.666656196,1,0,0,1,53,134,54,1,DarkGreen,DarkGreen.jpg,Yellow,Yellow.jpg,,
,,,,,,,,,,,,,,,,,,-2,,,,,,,,,,,,,,,,,,,,,,,,,,,613a9a0390a4c691677c1440,001,2021-12-16_16h06.36.099,jm_natural_scene_simialrity_2-12-2021_version2,2021.2.3,Win32,60.0060006,613a9a0390a4c691677c1440,61bbc5c79a1c66460f44041e,61bbc65e706e9b1ffbaa76ef,,,,,,-115.9999844,-53.33334565,1,0,0,response5disk,2.2669,10.66668606,-1.333344102,1,0,0,rectangle,10.66668606,-1.333344102,1,0,0,3,-2,"[72,11,5,156,47,140,76,6,124,39]",10.66668606,-1.333344102,1,0,0,1,54,135,3,1,Red,Red.jpg,DarkGreen,DarkGreen.jpg,,
,,,,,,,,,,,,,,,,,,-3,,,,,,,,,,,,,,,,,,,,,,,,,,,613a9a0390a4c691677c1440,001,2021-12-16_16h06.36.099,jm_natural_scene_simialrity_2-12-2021_version2,2021.2.3,Win32,60.0060006,613a9a0390a4c691677c1440,61bbc5c79a1c66460f44041e,61bbc65e706e9b1ffbaa76ef,,,,,,-91.99998367,50.66665745,1,0,0,response7disk,2.7671,-6.666607102,1.999989331,1,0,0,rectangle,-6.666607102,1.999989331,1,0,0,3,-1,"[72,11,5,156,47,140,76,6,124,39]",-6.666607102,1.999989331,1,0,0,1,55,136,73,1,Pink,Pink.jpg,Turquiose,Turquiose.jpg,,
,,,,,,,,,,,,,,,,,,-3,,,,,,,,,,,,,,,,,,,,,,,,,,,613a9a0390a4c691677c1440,001,2021-12-16_16h06.36.099,jm_natural_scene_simialrity_2-12-2021_version2,2021.2.3,Win32,60.0060006,613a9a0390a4c691677c1440,61bbc5c79a1c66460f44041e,61bbc65e706e9b1ffbaa76ef,,,,,,-94.66660972,37.9999904,1,0,0,response7disk,1.3842,-16.6666074,0.666655958,1,0,0,rectangle,-16.6666074,0.666655958,1,0,0,3,-3,"[72,11,5,156,47,140,76,6,124,39]",-16.6666074,0.666655958,1,0,0,1,56,137,29,1,DarkGreen,DarkGreen.jpg,Purple,Purple.jpg,,
,,,,,,,,,,,,,,,,,,-3,,,,,,,,,,,,,,,,,,,,,,,,,,,613a9a0390a4c691677c1440,001,2021-12-16_16h06.36.099,jm_natural_scene_simialrity_2-12-2021_version2,2021.2.3,Win32,60.0060006,613a9a0390a4c691677c1440,61bbc5c79a1c66460f44041e,61bbc65e706e9b1ffbaa76ef,,,,,,-108.6666101,45.33330361,1,0,0,response7disk,2.2012,2.000019133,-10.66667771,1,0,0,rectangle,2.000019133,-10.66667771,1,0,0,3,-2,"[72,11,5,156,47,140,76,6,124,39]",2.000019133,-10.66667771,1,0,0,1,57,138,69,1,Pink,Pink.jpg,DarkGreen,DarkGreen.jpg,,
,,,,,,,,,,,,,,,,,,4,,,,,,,,,,,,,,,,,,,,,,,,,,,613a9a0390a4c691677c1440,001,2021-12-16_16h06.36.099,jm_natural_scene_simialrity_2-12-2021_version2,2021.2.3,Win32,60.0060006,613a9a0390a4c691677c1440,61bbc5c79a1c66460f44041e,61bbc65e706e9b1ffbaa76ef,,,,,,54.66668737,115.333326,1,0,0,response1disk,1.0175,4.000019193,-5.333344221,1,0,0,rectangle,-95.99998379,45.33330361,1,0,0,-3,-3,"[72,11,5,156,47,140,76,6,124,39]",0.66668576,-6.000010908,1,0,0,1,58,139,17,1,LightGreen,LightGreen.jpg,LightGreen,LightGreen.jpg,response7disk_3,rectangle
,,,,,,,,,,,,,,,,,,-3,,,,,,,,,,,,,,,,,,,,,,,,,,,613a9a0390a4c691677c1440,001,2021-12-16_16h06.36.099,jm_natural_scene_simialrity_2-12-2021_version2,2021.2.3,Win32,60.0060006,613a9a0390a4c691677c1440,61bbc5c79a1c66460f44041e,61bbc65e706e9b1ffbaa76ef,,,,,,-101.3333173,42.66665721,1,0,0,response7disk,1.4685,-21.3333149,6.666656137,1,0,0,rectangle,-21.3333149,6.666656137,1,0,0,-3,-3,"[72,11,5,156,47,140,76,6,124,39]",-21.3333149,6.666656137,1,0,0,1,59,140,59,1,Purple,Purple.jpg,Yellow,Yellow.jpg,,
,,,,,,,,,,,,,,,,,,-2,,,,,,,,,,,,,,,,,,,,,,,,,,,613a9a0390a4c691677c1440,001,2021-12-16_16h06.36.099,jm_natural_scene_simialrity_2-12-2021_version2,2021.2.3,Win32,60.0060006,613a9a0390a4c691677c1440,61bbc5c79a1c66460f44041e,61bbc65e706e9b1ffbaa76ef,,,,,,-91.33331698,-42.66667867,1,0,0,response5disk,1.8518,-19.99998152,-9.33334434,1,0,0,rectangle,-19.99998152,-9.33334434,1,0,0,-3,3,"[72,11,5,156,47,140,76,6,124,39]",-19.99998152,-9.33334434,1,0,0,1,60,141,65,1,Purple,Purple.jpg,LightGreen,LightGreen.jpg,,
,,,,,,,,,,,,,,,,,,-2,,,,,,,,,,,,,,,,,,,,,,,,,,,613a9a0390a4c691677c1440,001,2021-12-16_16h06.36.099,jm_natural_scene_simialrity_2-12-2021_version2,2021.2.3,Win32,60.0060006,613a9a0390a4c691677c1440,61bbc5c79a1c66460f44041e,61bbc65e706e9b1ffbaa76ef,,,,,,-93.33331704,-47.33334547,1,0,0,response5disk,1.751,-11.99998128,-16.00001121,1,0,0,rectangle,-11.99998128,-16.00001121,1,0,0,-3,3,"[72,11,5,156,47,140,76,6,124,39]",-11.99998128,-16.00001121,1,0,0,1,61,142,48,1,Turquiose,Turquiose.jpg,Red,Red.jpg,,
,,,,,,,,,,,,,,,,,,2,,,,,,,,,,,,,,,,,,,,,,,,,,,613a9a0390a4c691677c1440,001,2021-12-16_16h06.36.099,jm_natural_scene_simialrity_2-12-2021_version2,2021.2.3,Win32,60.0060006,613a9a0390a4c691677c1440,61bbc5c79a1c66460f44041e,61bbc65e706e9b1ffbaa76ef,,,,,,104.0000222,-42.66667867,1,0,0,response3disk,1.7172,2.66668582,-1.07288E-05,1,0,0,rectangle,2.66668582,-1.07288E-05,1,0,0,-3,-1,"[72,11,5,156,47,140,76,6,124,39]",2.66668582,-1.07288E-05,1,0,0,1,62,143,71,1,LightBlue,LightBlue.jpg,Turquiose,Turquiose.jpg,,
,,,,,,,,,,,,,,,,,,2,,,,,,,,,,,,,,,,,,,,,,,,,,,613a9a0390a4c691677c1440,001,2021-12-16_16h06.36.099,jm_natural_scene_simialrity_2-12-2021_version2,2021.2.3,Win32,60.0060006,613a9a0390a4c691677c1440,61bbc5c79a1c66460f44041e,61bbc65e706e9b1ffbaa76ef,,,,,,103.3333555,-51.33334559,1,0,0,response3disk,1.366,2.66668582,3.99998939,1,0,0,rectangle,2.66668582,3.99998939,1,0,0,-3,-2,"[72,11,5,156,47,140,76,6,124,39]",2.66668582,3.99998939,1,0,0,1,63,144,72,1,DarkBlue,DarkBlue.jpg,Turquiose,Turquiose.jpg,,
,,,,,,,,,,,,,,,,,,-2,,,,,,,,,,,,,,,,,,,,,,,,,,,613a9a0390a4c691677c1440,001,2021-12-16_16h06.36.099,jm_natural_scene_simialrity_2-12-2021_version2,2021.2.3,Win32,60.0060006,613a9a0390a4c691677c1440,61bbc5c79a1c66460f44041e,61bbc65e706e9b1ffbaa76ef,,,,,,-73.33331645,-36.66667849,1,0,0,response5disk,1.65,6.000019252,3.99998939,1,0,0,rectangle,6.000019252,3.99998939,1,0,0,-3,-1,"[72,11,5,156,47,140,76,6,124,39]",6.000019252,3.99998939,1,0,0,1,64,145,11,1,Yellow,Yellow.jpg,DarkGreen,DarkGreen.jpg,,
,,,,,,,,,,,,,,,,,,-1,,,,,,,,,,,,,,,,,,,,,,,,,,,613a9a0390a4c691677c1440,001,2021-12-16_16h06.36.099,jm_natural_scene_simialrity_2-12-2021_version2,2021.2.3,Win32,60.0060006,613a9a0390a4c691677c1440,61bbc5c79a1c66460f44041e,61bbc65e706e9b1ffbaa76ef,,,,,,-37.33331537,-101.3333471,1,0,0,response5disk,1.4511,-3.999981046,-7.333344281,1,0,0,rectangle,-3.999981046,-7.333344281,1,0,0,-3,2,"[72,11,5,156,47,140,76,6,124,39]",-3.999981046,-7.333344281,1,0,0,1,65,146,6,1,Red,Red.jpg,DarkBlue,DarkBlue.jpg,,
,,,,,,,,,,,,,,,,,,-3,,,,,,,,,,,,,,,,,,,,,,,,,,,613a9a0390a4c691677c1440,001,2021-12-16_16h06.36.099,jm_natural_scene_simialrity_2-12-2021_version2,2021.2.3,Win32,60.0060006,613a9a0390a4c691677c1440,61bbc5c79a1c66460f44041e,61bbc65e706e9b1ffbaa76ef,,,,,,-95.99998379,41.99999052,1,0,0,response7disk,1.8176,-9.999981225,-1.333344102,1,0,0,rectangle,-9.999981225,-1.333344102,1,0,0,-3,1,"[72,11,5,156,47,140,76,6,124,39]",-9.999981225,-1.333344102,1,0,0,1,66,147,33,1,Turquiose,Turquiose.jpg,Pink,Pink.jpg,,
,,,,,,,,,,,,,,,,,,-2,,,,,,,,,,,,,,,,,,,,,,,,,,,613a9a0390a4c691677c1440,001,2021-12-16_16h06.36.099,jm_natural_scene_simialrity_2-12-2021_version2,2021.2.3,Win32,60.0060006,613a9a0390a4c691677c1440,61bbc5c79a1c66460f44041e,61bbc65e706e9b1ffbaa76ef,,,,,,-73.99998313,-31.333345,1,0,0,response5disk,1.0004,-15.33331472,-10.66667771,1,0,0,rectangle,-15.33331472,-10.66667771,1,0,0,-3,-3,"[72,11,5,156,47,140,76,6,124,39]",-15.33331472,-10.66667771,1,0,0,1,67,148,77,1,Purple,Purple.jpg,LightBlue,LightBlue.jpg,,
,,,,,,,,,,,,,,,,,,4,,,,,,,,,,,,,,,,,,,,,,,,,,,613a9a0390a4c691677c1440,001,2021-12-16_16h06.36.099,jm_natural_scene_simialrity_2-12-2021_version2,2021.2.3,Win32,60.0060006,613a9a0390a4c691677c1440,61bbc5c79a1c66460f44041e,61bbc65e706e9b1ffbaa76ef,,,,,,45.33335376,105.9999924,1,0,0,response1disk,0.9338,16.00001955,-5.333344221,1,0,0,rectangle,16.00001955,-5.333344221,1,0,0,-3,-2,"[72,11,5,156,47,140,76,6,124,39]",16.00001955,-5.333344221,1,0,0,1,68,149,0,1,Red,Red.jpg,Red,Red.jpg,,
,,,,,,,,,,,,,,,,,,1,,,,,,,,,,,,,,,,,,,,,,,,,,,613a9a0390a4c691677c1440,001,2021-12-16_16h06.36.099,jm_natural_scene_simialrity_2-12-2021_version2,2021.2.3,Win32,60.0060006,613a9a0390a4c691677c1440,61bbc5c79a1c66460f44041e,61bbc65e706e9b1ffbaa76ef,,,,,,52.00002062,-99.33334702,1,0,0,response3disk,1.0512,2.000019133,-6.666677594,1,0,0,rectangle,2.000019133,-6.666677594,1,0,0,-3,-1,"[72,11,5,156,47,140,76,6,124,39]",2.000019133,-6.666677594,1,0,0,1,69,150,50,1,DarkBlue,DarkBlue.jpg,Red,Red.jpg,,
,,,,,,,,,,,,,,,,,,-1,,,,,,,,,,,,,,,,,,,,,,,,,,,613a9a0390a4c691677c1440,001,2021-12-16_16h06.36.099,jm_natural_scene_simialrity_2-12-2021_version2,2021.2.3,Win32,60.0060006,613a9a0390a4c691677c1440,61bbc5c79a1c66460f44041e,61bbc65e706e9b1ffbaa76ef,,,,,,-43.33331555,-111.3333474,1,0,0,response5disk,1.3165,-3.333314359,1.999989331,1,0,0,rectangle,-3.333314359,1.999989331,1,0,0,-3,-1,"[72,11,5,156,47,140,76,6,124,39]",-3.333314359,1.999989331,1,0,0,1,70,151,52,1,Purple,Purple.jpg,Red,Red.jpg,,
,,,,,,,,,,,,,,,,,,-1,,,,,,,,,,,,,,,,,,,,,,,,,,,613a9a0390a4c691677c1440,001,2021-12-16_16h06.36.099,jm_natural_scene_simialrity_2-12-2021_version2,2021.2.3,Win32,60.0060006,613a9a0390a4c691677c1440,61bbc5c79a1c66460f44041e,61bbc65e706e9b1ffbaa76ef,,,,,,-41.33331549,-107.3333473,1,0,0,response5disk,3.0836,2.000019133,-9.33334434,1,0,0,rectangle,2.000019133,-9.33334434,1,0,0,-3,-1,"[72,11,5,156,47,140,76,6,124,39]",2.000019133,-9.33334434,1,0,0,1,71,152,40,1,DarkBlue,DarkBlue.jpg,Pink,Pink.jpg,,
,,,,,,,,,,,,,,,,,,1,,,,,,,,,,,,,,,,,,,,,,,,,,,613a9a0390a4c691677c1440,001,2021-12-16_16h06.36.099,jm_natural_scene_simialrity_2-12-2021_version2,2021.2.3,Win32,60.0060006,613a9a0390a4c691677c1440,61bbc5c79a1c66460f44041e,61bbc65e706e9b1ffbaa76ef,,,,,,46.66668713,-97.33334696,1,0,0,response3disk,1.5846,5.333393256,-8.666677654,1,0,0,rectangle,5.333393256,-8.666677654,1,0,0,-3,-4,"[72,11,5,156,47,140,76,6,124,39]",5.333393256,-8.666677654,1,0,0,1,72,153,61,1,Turquiose,Turquiose.jpg,LightGreen,LightGreen.jpg,,
,,,,,,,,,,,,,,,,,,-2,,,,,,,,,,,,,,,,,,,,,,,,,,,613a9a0390a4c691677c1440,001,2021-12-16_16h06.36.099,jm_natural_scene_simialrity_2-12-2021_version2,2021.2.3,Win32,60.0060006,613a9a0390a4c691677c1440,61bbc5c79a1c66460f44041e,61bbc65e706e9b1ffbaa76ef,,,,,,-88.66660955,-40.66667861,1,0,0,response5disk,2.1828,-8.666607161,-6.000010908,1,0,0,rectangle,-8.666607161,-6.000010908,1,0,0,-3,-3,"[72,11,5,156,47,140,76,6,124,39]",-8.666607161,-6.000010908,1,0,0,1,73,154,62,1,LightBlue,LightBlue.jpg,LightGreen,LightGreen.jpg,,
,,,,,,,,,,,,,,,,,,-1,,,,,,,,,,,,,,,,,,,,,,,,,,,613a9a0390a4c691677c1440,001,2021-12-16_16h06.36.099,jm_natural_scene_simialrity_2-12-2021_version2,2021.2.3,Win32,60.0060006,613a9a0390a4c691677c1440,61bbc5c79a1c66460f44041e,61bbc65e706e9b1ffbaa76ef,,,,,,-49.99998242,-111.3333474,1,0,0,response5disk,1.4339,-4.666607042,2.666656017,1,0,0,rectangle,-86.66660949,-41.33334529,1,0,0,-3,-2,"[72,11,5,156,47,140,76,6,124,39]",3.333393196,5.99998945,1,0,0,1,74,155,63,1,DarkBlue,DarkBlue.jpg,LightGreen,LightGreen.jpg,response5disk_3,rectangle
,,,,,,,,,,,,,,,,,,-2,,,,,,,,,,,,,,,,,,,,,,,,,,,613a9a0390a4c691677c1440,001,2021-12-16_16h06.36.099,jm_natural_scene_simialrity_2-12-2021_version2,2021.2.3,Win32,60.0060006,613a9a0390a4c691677c1440,61bbc5c79a1c66460f44041e,61bbc65e706e9b1ffbaa76ef,,,,,,-103.3333173,-30.66667831,1,0,0,response5disk,1.8336,10.66668606,-6.000010908,1,0,0,rectangle,10.66668606,-6.000010908,1,0,0,-3,1,"[72,11,5,156,47,140,76,6,124,39]",10.66668606,-6.000010908,1,0,0,1,75,156,8,1,Red,Red.jpg,Purple,Purple.jpg,,
,,,,,,,,,,,,,,,,,,-1,,,,,,,,,,,,,,,,,,,,,,,,,,,613a9a0390a4c691677c1440,001,2021-12-16_16h06.36.099,jm_natural_scene_simialrity_2-12-2021_version2,2021.2.3,Win32,60.0060006,613a9a0390a4c691677c1440,61bbc5c79a1c66460f44041e,61bbc65e706e9b1ffbaa76ef,,,,,,-47.33331567,-109.3333473,1,0,0,response5disk,5.1178,4.666685879,-7.333344281,1,0,0,rectangle,4.666685879,-7.333344281,1,0,0,-3,-1,"[72,11,5,156,47,140,76,6,124,39]",4.666685879,-7.333344281,1,0,0,1,76,157,23,1,LightGreen,LightGreen.jpg,Purple,Purple.jpg,,
,,,,,,,,,,,,,,,,,,1,,,,,,,,,,,,,,,,,,,,,,,,,,,613a9a0390a4c691677c1440,001,2021-12-16_16h06.36.099,jm_natural_scene_simialrity_2-12-2021_version2,2021.2.3,Win32,60.0060006,613a9a0390a4c691677c1440,61bbc5c79a1c66460f44041e,61bbc65e706e9b1ffbaa76ef,,,,,,56.66668743,-99.33334702,1,0,0,response3disk,2.1681,6.000019252,-11.3333444,1,0,0,rectangle,6.000019252,-11.3333444,1,0,0,-3,-4,"[72,11,5,156,47,140,76,6,124,39]",6.000019252,-11.3333444,1,0,0,1,77,158,75,1,DarkBlue,DarkBlue.jpg,LightBlue,LightBlue.jpg,,
,,,,,,,,,,,,,,,,,,4,,,,,,,,,,,,,,,,,,,,,,,,,,,613a9a0390a4c691677c1440,001,2021-12-16_16h06.36.099,jm_natural_scene_simialrity_2-12-2021_version2,2021.2.3,Win32,60.0060006,613a9a0390a4c691677c1440,61bbc5c79a1c66460f44041e,61bbc65e706e9b1ffbaa76ef,,,,,,53.333354,101.3333053,1,0,0,response1disk,1.1348,8.666685998,5.99998945,1,0,0,rectangle,8.666685998,5.99998945,1,0,0,-3,2,"[72,11,5,156,47,140,76,6,124,39]",8.666685998,5.99998945,1,0,0,1,78,159,60,1,DarkGreen,DarkGreen.jpg,LightGreen,LightGreen.jpg,,
,,,,,,,,,,,,,,,,,,4,,,,,,,,,,,,,,,,,,,,,,,,,,,613a9a0390a4c691677c1440,001,2021-12-16_16h06.36.099,jm_natural_scene_simialrity_2-12-2021_version2,2021.2.3,Win32,60.0060006,613a9a0390a4c691677c1440,61bbc5c79a1c66460f44041e,61bbc65e706e9b1ffbaa76ef,,,,,,50.00002056,109.9999925,1,0,0,response1disk,1.2668,6.666685939,-2.666677475,1,0,0,rectangle,6.666685939,-2.666677475,1,0,0,-3,-1,"[72,11,5,156,47,140,76,6,124,39]",6.666685939,-2.666677475,1,0,0,1,79,160,7,1,Red,Red.jpg,Pink,Pink.jpg,,
,,,,,,,,,,,,,,,,,,-2,,,,,,,,,,,,,,,,,,,,,,,,,,,613a9a0390a4c691677c1440,001,2021-12-16_16h06.36.099,jm_natural_scene_simialrity_2-12-2021_version2,2021.2.3,Win32,60.0060006,613a9a0390a4c691677c1440,61bbc5c79a1c66460f44041e,61bbc65e706e9b1ffbaa76ef,,,,,,-72.66660907,-48.66667885,1,0,0,response5disk,1.1671,-2.666606983,-10.66667771,1,0,0,rectangle,-2.666606983,-10.66667771,1,0,0,-3,1,"[72,11,5,156,47,140,76,6,124,39]",-2.666606983,-10.66667771,1,0,0,1,80,161,16,1,Yellow,Yellow.jpg,Purple,Purple.jpg,,
