key_resp.keys,key_resp.rt,key_resp_16.keys,key_resp_16.rt,key_resp_2.keys,key_resp_2.rt,key_resp_3.keys,key_resp_3.rt,key_resp_19.keys,key_resp_19.rt,key_resp_10.keys,key_resp_10.rt,mouse_prac.x,mouse_prac.y,mouse_prac.leftButton,mouse_prac.midButton,mouse_prac.rightButton,mouse_prac.clicked_name,similarity,mouse_10.x,mouse_10.y,mouse_10.leftButton,mouse_10.midButton,mouse_10.rightButton,mouse_10.clicked_name,mouse_catch_prac.x,mouse_catch_prac.y,mouse_catch_prac.leftButton,mouse_catch_prac.midButton,mouse_catch_prac.rightButton,catchnumberprac,mouse_6.x,mouse_6.y,mouse_6.leftButton,mouse_6.midButton,mouse_6.rightButton,during_prac.thisRepN,during_prac.thisTrialN,during_prac.thisN,during_prac.thisIndex,during_prac.ran,trailimage1,trial1adress,trailimage2,trial2adress,participant,session,date,expName,psychopyVersion,OS,frameRate,PROLIFIC_PID,STUDY_ID,SESSION_ID,mouse_catch_prac.clicked_name,catchprac,mouse_6.clicked_name,key_resp_22.keys,key_resp_22.rt,mouse.x,mouse.y,mouse.leftButton,mouse.midButton,mouse.rightButton,mouse.clicked_name,response_time,mouse_2.x,mouse_2.y,mouse_2.leftButton,mouse_2.midButton,mouse_2.rightButton,mouse_2.clicked_name,mouse_3.x,mouse_3.y,mouse_3.leftButton,mouse_3.midButton,mouse_3.rightButton,catchresponse,catchnumber,catchtrialorder,mouse_11.x,mouse_11.y,mouse_11.leftButton,mouse_11.midButton,mouse_11.rightButton,trials_2.thisRepN,trials_2.thisTrialN,trials_2.thisN,trials_2.thisIndex,trials_2.ran,image1,image1adress,image2,image2adress,mouse_3.clicked_name,mouse_11.clicked_name
space,6.2495,space,27.6485,space,8.1757,space,117.5274,space,51.3222,space,10.7996,45.33335376,-76.00001299,0,0,1,response3disk_5,1,8.666685998,10.66665626,1,0,0,rectangle_8,8.666685998,10.66665626,1,0,0,3,8.666685998,10.66665626,1,0,0,0,0,0,1,1,trail1,trail1.jpg,trail2,trail2.jpg,6164280eaf0c4e12bf0a66df,001,2021-12-17_01h07.14.256,jm_natural_scene_simialrity_2-12-2021_version2,2021.2.3,Win32,58.8373735,6164280eaf0c4e12bf0a66df,61bbc5c79a1c66460f44041e,61bbc664bdfa68bcf085fb5f,,,,,,,,,,,,,,,,,,,,,,,,,,,,,,,,,,,,,,,,,,
,,,,,,,,,,,,84.00002158,41.99999052,1,0,0,response1disk_5,3,-16.6666074,-1.07288E-05,1,0,0,rectangle_8,-16.6666074,-1.07288E-05,1,0,0,3,-16.6666074,-1.07288E-05,1,0,0,0,1,1,5,1,trail3,trail3.jpg,trail3,trail3.jpg,6164280eaf0c4e12bf0a66df,001,2021-12-17_01h07.14.256,jm_natural_scene_simialrity_2-12-2021_version2,2021.2.3,Win32,58.8373735,6164280eaf0c4e12bf0a66df,61bbc5c79a1c66460f44041e,61bbc664bdfa68bcf085fb5f,,,,,,,,,,,,,,,,,,,,,,,,,,,,,,,,,,,,,,,,,,
,,,,,,,,,,,,30.66668665,93.99999207,1,0,0,response1disk_5,4,-17.33331478,13.99998969,1,0,0,rectangle_8,-17.33331478,13.99998969,1,0,0,3,-17.33331478,13.99998969,1,0,0,0,2,2,2,1,trail1,trail1.jpg,trail3,trail3.jpg,6164280eaf0c4e12bf0a66df,001,2021-12-17_01h07.14.256,jm_natural_scene_simialrity_2-12-2021_version2,2021.2.3,Win32,58.8373735,6164280eaf0c4e12bf0a66df,61bbc5c79a1c66460f44041e,61bbc664bdfa68bcf085fb5f,,,,,,,,,,,,,,,,,,,,,,,,,,,,,,,,,,,,,,,,,,
,,,,,,,,,,,,86.00002164,43.99999058,1,0,0,response1disk_5,3,14.00001949,-7.333344281,1,0,0,rectangle_8,14.00001949,-7.333344281,1,0,0,3,14.00001949,-7.333344281,1,0,0,0,3,3,3,1,trail2,trail2.jpg,trail2,trail2.jpg,6164280eaf0c4e12bf0a66df,001,2021-12-17_01h07.14.256,jm_natural_scene_simialrity_2-12-2021_version2,2021.2.3,Win32,58.8373735,6164280eaf0c4e12bf0a66df,61bbc5c79a1c66460f44041e,61bbc664bdfa68bcf085fb5f,,,,,,,,,,,,,,,,,,,,,,,,,,,,,,,,,,,,,,,,,,
,,,,,,,,,,,,62.66668761,-123.3333477,1,0,0,response3disk_5,1,0.66668576,4.666656077,1,0,0,rectangle_8,100.0000221,62.66665781,1,0,0,3,-1.3333143,-8.666677654,1,0,0,0,4,4,4,1,trail2,trail2.jpg,trail3,trail3.jpg,6164280eaf0c4e12bf0a66df,001,2021-12-17_01h07.14.256,jm_natural_scene_simialrity_2-12-2021_version2,2021.2.3,Win32,58.8373735,6164280eaf0c4e12bf0a66df,61bbc5c79a1c66460f44041e,61bbc664bdfa68bcf085fb5f,response1disk_7,3,rectangle_4,,,,,,,,,,,,,,,,,,,,,,,,,,,,,,,,,,,,,,,
,,,,,,,,,,,,90.66668844,69.33330433,1,0,0,response1disk_5,3,-9.333314538,-1.333344102,1,0,0,rectangle_8,-9.333314538,-1.333344102,1,0,0,3,-9.333314538,-1.333344102,1,0,0,0,5,5,0,1,trail1,trail1.jpg,trail1,trail1.jpg,6164280eaf0c4e12bf0a66df,001,2021-12-17_01h07.14.256,jm_natural_scene_simialrity_2-12-2021_version2,2021.2.3,Win32,58.8373735,6164280eaf0c4e12bf0a66df,61bbc5c79a1c66460f44041e,61bbc664bdfa68bcf085fb5f,,,,,,,,,,,,,,,,,,,,,,,,,,,,,,,,,,,,,,,,,,
,,,,,,,,,,,,,,,,,,4,,,,,,,,,,,,,,,,,,,,,,,,,,,6164280eaf0c4e12bf0a66df,001,2021-12-17_01h07.14.256,jm_natural_scene_simialrity_2-12-2021_version2,2021.2.3,Win32,58.8373735,6164280eaf0c4e12bf0a66df,61bbc5c79a1c66460f44041e,61bbc664bdfa68bcf085fb5f,,,,space,35.0434,81.33335483,121.6666606,1,0,0,response1disk,23.8067,2.000019133,18.33330388,1,0,0,rectangle,2.000019133,18.33330388,1,0,0,,-4,"[96,67,82,100,51,34,31,107,107,120]",2.000019133,18.33330388,1,0,0,0,0,0,61,1,Turquiose,Turquiose.jpg,LightGreen,LightGreen.jpg,,
,,,,,,,,,,,,,,,,,,-1,,,,,,,,,,,,,,,,,,,,,,,,,,,6164280eaf0c4e12bf0a66df,001,2021-12-17_01h07.14.256,jm_natural_scene_simialrity_2-12-2021_version2,2021.2.3,Win32,58.8373735,6164280eaf0c4e12bf0a66df,61bbc5c79a1c66460f44041e,61bbc664bdfa68bcf085fb5f,,,,,,-45.9999823,-74.3333452,1,0,0,response5disk,6.6974,6.000019252,-7.666696896,1,0,0,rectangle,6.000019252,-7.666696896,1,0,0,,1,"[96,67,82,100,51,34,31,107,107,120]",6.000019252,-7.666696896,1,0,0,0,1,1,54,1,DarkGreen,DarkGreen.jpg,Yellow,Yellow.jpg,,
,,,,,,,,,,,,,,,,,,-1,,,,,,,,,,,,,,,,,,,,,,,,,,,6164280eaf0c4e12bf0a66df,001,2021-12-17_01h07.14.256,jm_natural_scene_simialrity_2-12-2021_version2,2021.2.3,Win32,58.8373735,6164280eaf0c4e12bf0a66df,61bbc5c79a1c66460f44041e,61bbc664bdfa68bcf085fb5f,,,,,,-61.33331609,-91.66667905,1,0,0,response5disk,2.2215,16.00001955,-9.666696956,1,0,0,rectangle,16.00001955,-9.666696956,1,0,0,,-2,"[96,67,82,100,51,34,31,107,107,120]",16.00001955,-9.666696956,1,0,0,0,2,2,16,1,Yellow,Yellow.jpg,Purple,Purple.jpg,,
,,,,,,,,,,,,,,,,,,3,,,,,,,,,,,,,,,,,,,,,,,,,,,6164280eaf0c4e12bf0a66df,001,2021-12-17_01h07.14.256,jm_natural_scene_simialrity_2-12-2021_version2,2021.2.3,Win32,58.8373735,6164280eaf0c4e12bf0a66df,61bbc5c79a1c66460f44041e,61bbc664bdfa68bcf085fb5f,,,,,,111.3333557,89.66665968,1,0,0,response1disk,3.0443,-9.999981225,0.333303342,1,0,0,rectangle,-9.999981225,0.333303342,1,0,0,,-4,"[96,67,82,100,51,34,31,107,107,120]",-9.999981225,0.333303342,1,0,0,0,3,3,77,1,Purple,Purple.jpg,LightBlue,LightBlue.jpg,,
,,,,,,,,,,,,,,,,,,-4,,,,,,,,,,,,,,,,,,,,,,,,,,,6164280eaf0c4e12bf0a66df,001,2021-12-17_01h07.14.256,jm_natural_scene_simialrity_2-12-2021_version2,2021.2.3,Win32,58.8373735,6164280eaf0c4e12bf0a66df,61bbc5c79a1c66460f44041e,61bbc664bdfa68bcf085fb5f,,,,,,-66.66660889,86.33330591,1,0,0,response7disk,2.6778,4.000019193,4.999990493,1,0,0,rectangle,4.000019193,4.999990493,1,0,0,,-3,"[96,67,82,100,51,34,31,107,107,120]",4.000019193,4.999990493,1,0,0,0,4,4,26,1,DarkGreen,DarkGreen.jpg,LightBlue,LightBlue.jpg,,
,,,,,,,,,,,,,,,,,,-4,,,,,,,,,,,,,,,,,,,,,,,,,,,6164280eaf0c4e12bf0a66df,001,2021-12-17_01h07.14.256,jm_natural_scene_simialrity_2-12-2021_version2,2021.2.3,Win32,58.8373735,6164280eaf0c4e12bf0a66df,61bbc5c79a1c66460f44041e,61bbc664bdfa68bcf085fb5f,,,,,,-73.33331645,114.9999938,1,0,0,response7disk,1.8721,-7.999981165,-10.3333433,1,0,0,rectangle,-7.999981165,-10.3333433,1,0,0,,2,"[96,67,82,100,51,34,31,107,107,120]",-7.999981165,-10.3333433,1,0,0,0,5,5,69,1,Pink,Pink.jpg,DarkGreen,DarkGreen.jpg,,
,,,,,,,,,,,,,,,,,,-4,,,,,,,,,,,,,,,,,,,,,,,,,,,6164280eaf0c4e12bf0a66df,001,2021-12-17_01h07.14.256,jm_natural_scene_simialrity_2-12-2021_version2,2021.2.3,Win32,58.8373735,6164280eaf0c4e12bf0a66df,61bbc5c79a1c66460f44041e,61bbc664bdfa68bcf085fb5f,,,,,,-53.33331585,87.66665962,1,0,0,response7disk,1.8904,-16.6666074,-1.000009686,1,0,0,rectangle,-16.6666074,-1.000009686,1,0,0,,1,"[96,67,82,100,51,34,31,107,107,120]",-16.6666074,-1.000009686,1,0,0,0,6,6,5,1,Red,Red.jpg,LightBlue,LightBlue.jpg,,
,,,,,,,,,,,,,,,,,,-4,,,,,,,,,,,,,,,,,,,,,,,,,,,6164280eaf0c4e12bf0a66df,001,2021-12-17_01h07.14.256,jm_natural_scene_simialrity_2-12-2021_version2,2021.2.3,Win32,58.8373735,6164280eaf0c4e12bf0a66df,61bbc5c79a1c66460f44041e,61bbc664bdfa68bcf085fb5f,,,,,,-46.66660829,74.99999258,1,0,0,response7disk,1.5475,-2.666606983,13.66665742,1,0,0,rectangle,-2.666606983,13.66665742,1,0,0,,-2,"[96,67,82,100,51,34,31,107,107,120]",-2.666606983,13.66665742,1,0,0,0,7,7,43,1,Pink,Pink.jpg,Purple,Purple.jpg,,
,,,,,,,,,,,,,,,,,,4,,,,,,,,,,,,,,,,,,,,,,,,,,,6164280eaf0c4e12bf0a66df,001,2021-12-17_01h07.14.256,jm_natural_scene_simialrity_2-12-2021_version2,2021.2.3,Win32,58.8373735,6164280eaf0c4e12bf0a66df,61bbc5c79a1c66460f44041e,61bbc664bdfa68bcf085fb5f,,,,,,40.66668695,98.33330626,1,0,0,response1disk,1.8216,2.66668582,12.3333037,1,0,0,rectangle,2.66668582,12.3333037,1,0,0,,-4,"[96,67,82,100,51,34,31,107,107,120]",2.66668582,12.3333037,1,0,0,0,8,8,0,1,Red,Red.jpg,Red,Red.jpg,,
,,,,,,,,,,,,,,,,,,-4,,,,,,,,,,,,,,,,,,,,,,,,,,,6164280eaf0c4e12bf0a66df,001,2021-12-17_01h07.14.256,jm_natural_scene_simialrity_2-12-2021_version2,2021.2.3,Win32,58.8373735,6164280eaf0c4e12bf0a66df,61bbc5c79a1c66460f44041e,61bbc664bdfa68bcf085fb5f,,,,,,-82.66660937,117.6666605,1,0,0,response7disk,1.4749,8.666685998,9.666657299,1,0,0,rectangle,8.666685998,9.666657299,1,0,0,,1,"[96,67,82,100,51,34,31,107,107,120]",8.666685998,9.666657299,1,0,0,0,9,9,28,1,DarkGreen,DarkGreen.jpg,Pink,Pink.jpg,,
,,,,,,,,,,,,,,,,,,-4,,,,,,,,,,,,,,,,,,,,,,,,,,,6164280eaf0c4e12bf0a66df,001,2021-12-17_01h07.14.256,jm_natural_scene_simialrity_2-12-2021_version2,2021.2.3,Win32,58.8373735,6164280eaf0c4e12bf0a66df,61bbc5c79a1c66460f44041e,61bbc664bdfa68bcf085fb5f,,,,,,-47.99998236,89.66665968,1,0,0,response7disk,1.201,-12.66660728,-13.00001004,1,0,0,rectangle,-12.66660728,-13.00001004,1,0,0,,-3,"[96,67,82,100,51,34,31,107,107,120]",-12.66660728,-13.00001004,1,0,0,0,10,10,32,1,Turquiose,Turquiose.jpg,DarkBlue,DarkBlue.jpg,,
,,,,,,,,,,,,,,,,,,-4,,,,,,,,,,,,,,,,,,,,,,,,,,,6164280eaf0c4e12bf0a66df,001,2021-12-17_01h07.14.256,jm_natural_scene_simialrity_2-12-2021_version2,2021.2.3,Win32,58.8373735,6164280eaf0c4e12bf0a66df,61bbc5c79a1c66460f44041e,61bbc664bdfa68bcf085fb5f,,,,,,-51.33331579,68.9999924,1,0,0,response7disk,1.2725,-6.666607102,15.66665748,1,0,0,rectangle,-6.666607102,15.66665748,1,0,0,,2,"[96,67,82,100,51,34,31,107,107,120]",-6.666607102,15.66665748,1,0,0,0,11,11,33,1,Turquiose,Turquiose.jpg,Pink,Pink.jpg,,
,,,,,,,,,,,,,,,,,,-3,,,,,,,,,,,,,,,,,,,,,,,,,,,6164280eaf0c4e12bf0a66df,001,2021-12-17_01h07.14.256,jm_natural_scene_simialrity_2-12-2021_version2,2021.2.3,Win32,58.8373735,6164280eaf0c4e12bf0a66df,61bbc5c79a1c66460f44041e,61bbc664bdfa68bcf085fb5f,,,,,,-92.66660966,48.9999918,1,0,0,response7disk,1.8854,2.000019133,2.333303402,1,0,0,rectangle,2.000019133,2.333303402,1,0,0,,-2,"[96,67,82,100,51,34,31,107,107,120]",2.000019133,2.333303402,1,0,0,0,12,12,52,1,Purple,Purple.jpg,Red,Red.jpg,,
,,,,,,,,,,,,,,,,,,-3,,,,,,,,,,,,,,,,,,,,,,,,,,,6164280eaf0c4e12bf0a66df,001,2021-12-17_01h07.14.256,jm_natural_scene_simialrity_2-12-2021_version2,2021.2.3,Win32,58.8373735,6164280eaf0c4e12bf0a66df,61bbc5c79a1c66460f44041e,61bbc664bdfa68bcf085fb5f,,,,,,-104.66661,31.66665795,1,0,0,response7disk,1.4014,-7.333314478,11.66665736,1,0,0,rectangle,-7.333314478,11.66665736,1,0,0,,-2,"[96,67,82,100,51,34,31,107,107,120]",-7.333314478,11.66665736,1,0,0,0,13,13,76,1,Pink,Pink.jpg,LightBlue,LightBlue.jpg,,
,,,,,,,,,,,,,,,,,,-3,,,,,,,,,,,,,,,,,,,,,,,,,,,6164280eaf0c4e12bf0a66df,001,2021-12-17_01h07.14.256,jm_natural_scene_simialrity_2-12-2021_version2,2021.2.3,Win32,58.8373735,6164280eaf0c4e12bf0a66df,61bbc5c79a1c66460f44041e,61bbc664bdfa68bcf085fb5f,,,,,,-130.6666515,62.99999222,1,0,0,response7disk,1.0513,6.000019252,-20.3333436,1,0,0,rectangle,6.000019252,-20.3333436,1,0,0,,-3,"[96,67,82,100,51,34,31,107,107,120]",6.000019252,-20.3333436,1,0,0,0,14,14,71,1,LightBlue,LightBlue.jpg,Turquiose,Turquiose.jpg,,
,,,,,,,,,,,,,,,,,,-3,,,,,,,,,,,,,,,,,,,,,,,,,,,6164280eaf0c4e12bf0a66df,001,2021-12-17_01h07.14.256,jm_natural_scene_simialrity_2-12-2021_version2,2021.2.3,Win32,58.8373735,6164280eaf0c4e12bf0a66df,61bbc5c79a1c66460f44041e,61bbc664bdfa68bcf085fb5f,,,,,,-130.6666515,53.66665861,1,0,0,response7disk,0.9973,4.666685879,-17.66667685,1,0,0,rectangle,4.666685879,-17.66667685,1,0,0,,-4,"[96,67,82,100,51,34,31,107,107,120]",4.666685879,-17.66667685,1,0,0,0,15,15,59,1,Purple,Purple.jpg,Yellow,Yellow.jpg,,
,,,,,,,,,,,,,,,,,,4,,,,,,,,,,,,,,,,,,,,,,,,,,,6164280eaf0c4e12bf0a66df,001,2021-12-17_01h07.14.256,jm_natural_scene_simialrity_2-12-2021_version2,2021.2.3,Win32,58.8373735,6164280eaf0c4e12bf0a66df,61bbc5c79a1c66460f44041e,61bbc664bdfa68bcf085fb5f,,,,,,51.33335394,112.3333067,1,0,0,response1disk,1.5891,-9.333314538,7.666657239,1,0,0,rectangle,-9.333314538,7.666657239,1,0,0,,3,"[96,67,82,100,51,34,31,107,107,120]",-9.333314538,7.666657239,1,0,0,0,16,16,24,1,DarkGreen,DarkGreen.jpg,DarkGreen,DarkGreen.jpg,,
,,,,,,,,,,,,,,,,,,-3,,,,,,,,,,,,,,,,,,,,,,,,,,,6164280eaf0c4e12bf0a66df,001,2021-12-17_01h07.14.256,jm_natural_scene_simialrity_2-12-2021_version2,2021.2.3,Win32,58.8373735,6164280eaf0c4e12bf0a66df,61bbc5c79a1c66460f44041e,61bbc664bdfa68bcf085fb5f,,,,,,-84.66660943,39.66665819,1,0,0,response7disk,1.7215,-10.66660722,19.6666576,1,0,0,rectangle,-10.66660722,19.6666576,1,0,0,,3,"[96,67,82,100,51,34,31,107,107,120]",-10.66660722,19.6666576,1,0,0,0,17,17,38,1,LightBlue,LightBlue.jpg,Purple,Purple.jpg,,
,,,,,,,,,,,,,,,,,,-4,,,,,,,,,,,,,,,,,,,,,,,,,,,6164280eaf0c4e12bf0a66df,001,2021-12-17_01h07.14.256,jm_natural_scene_simialrity_2-12-2021_version2,2021.2.3,Win32,58.8373735,6164280eaf0c4e12bf0a66df,61bbc5c79a1c66460f44041e,61bbc664bdfa68bcf085fb5f,,,,,,-48.66660835,110.9999937,1,0,0,response7disk,2.2043,4.666685879,-6.333343178,1,0,0,rectangle,4.666685879,-6.333343178,1,0,0,,-3,"[96,67,82,100,51,34,31,107,107,120]",4.666685879,-6.333343178,1,0,0,0,18,18,55,1,Turquiose,Turquiose.jpg,Yellow,Yellow.jpg,,
,,,,,,,,,,,,,,,,,,-4,,,,,,,,,,,,,,,,,,,,,,,,,,,6164280eaf0c4e12bf0a66df,001,2021-12-17_01h07.14.256,jm_natural_scene_simialrity_2-12-2021_version2,2021.2.3,Win32,58.8373735,6164280eaf0c4e12bf0a66df,61bbc5c79a1c66460f44041e,61bbc664bdfa68bcf085fb5f,,,,,,-69.33331633,117.6666605,1,0,0,response7disk,1.4359,-9.999981225,19.6666576,1,0,0,rectangle,-9.999981225,19.6666576,1,0,0,,-4,"[96,67,82,100,51,34,31,107,107,120]",-9.999981225,19.6666576,1,0,0,0,19,19,64,1,Pink,Pink.jpg,LightGreen,LightGreen.jpg,,
,,,,,,,,,,,,,,,,,,-4,,,,,,,,,,,,,,,,,,,,,,,,,,,6164280eaf0c4e12bf0a66df,001,2021-12-17_01h07.14.256,jm_natural_scene_simialrity_2-12-2021_version2,2021.2.3,Win32,58.8373735,6164280eaf0c4e12bf0a66df,61bbc5c79a1c66460f44041e,61bbc664bdfa68bcf085fb5f,,,,,,-26.6666077,64.99999228,1,0,0,response7disk,0.9025,-7.333314478,8.999990612,1,0,0,rectangle,-7.333314478,8.999990612,1,0,0,,-1,"[96,67,82,100,51,34,31,107,107,120]",-7.333314478,8.999990612,1,0,0,0,20,20,8,1,Red,Red.jpg,Purple,Purple.jpg,,
,,,,,,,,,,,,,,,,,,-4,,,,,,,,,,,,,,,,,,,,,,,,,,,6164280eaf0c4e12bf0a66df,001,2021-12-17_01h07.14.256,jm_natural_scene_simialrity_2-12-2021_version2,2021.2.3,Win32,58.8373735,6164280eaf0c4e12bf0a66df,61bbc5c79a1c66460f44041e,61bbc664bdfa68bcf085fb5f,,,,,,-74.66660913,89.66665968,1,0,0,response7disk,1.7367,-15.33331472,-3.000009745,1,0,0,rectangle,-15.33331472,-3.000009745,1,0,0,,1,"[96,67,82,100,51,34,31,107,107,120]",-15.33331472,-3.000009745,1,0,0,0,21,21,36,1,LightBlue,LightBlue.jpg,DarkBlue,DarkBlue.jpg,,
,,,,,,,,,,,,,,,,,,1,,,,,,,,,,,,,,,,,,,,,,,,,,,6164280eaf0c4e12bf0a66df,001,2021-12-17_01h07.14.256,jm_natural_scene_simialrity_2-12-2021_version2,2021.2.3,Win32,58.8373735,6164280eaf0c4e12bf0a66df,61bbc5c79a1c66460f44041e,61bbc664bdfa68bcf085fb5f,,,,,,55.33335406,-99.00001261,1,0,0,response3disk,2.6514,-21.3333149,8.333303581,1,0,0,rectangle,-21.3333149,8.333303581,1,0,0,,2,"[96,67,82,100,51,34,31,107,107,120]",-21.3333149,8.333303581,1,0,0,0,22,22,60,1,DarkGreen,DarkGreen.jpg,LightGreen,LightGreen.jpg,,
,,,,,,,,,,,,,,,,,,1,,,,,,,,,,,,,,,,,,,,,,,,,,,6164280eaf0c4e12bf0a66df,001,2021-12-17_01h07.14.256,jm_natural_scene_simialrity_2-12-2021_version2,2021.2.3,Win32,58.8373735,6164280eaf0c4e12bf0a66df,61bbc5c79a1c66460f44041e,61bbc664bdfa68bcf085fb5f,,,,,,98.00002199,-129.6666802,1,0,0,response3disk,2.4424,2.66668582,-7.666696896,1,0,0,rectangle,2.66668582,-7.666696896,1,0,0,,1,"[96,67,82,100,51,34,31,107,107,120]",2.66668582,-7.666696896,1,0,0,0,23,23,29,1,DarkGreen,DarkGreen.jpg,Purple,Purple.jpg,,
,,,,,,,,,,,,,,,,,,-1,,,,,,,,,,,,,,,,,,,,,,,,,,,6164280eaf0c4e12bf0a66df,001,2021-12-17_01h07.14.256,jm_natural_scene_simialrity_2-12-2021_version2,2021.2.3,Win32,58.8373735,6164280eaf0c4e12bf0a66df,61bbc5c79a1c66460f44041e,61bbc664bdfa68bcf085fb5f,,,,,,-34.66660794,-101.6666794,1,0,0,response5disk,1.386,-7.333314478,-0.333342999,1,0,0,rectangle,-7.333314478,-0.333342999,1,0,0,,-4,"[96,67,82,100,51,34,31,107,107,120]",-7.333314478,-0.333342999,1,0,0,0,24,24,15,1,Yellow,Yellow.jpg,Pink,Pink.jpg,,
,,,,,,,,,,,,,,,,,,-1,,,,,,,,,,,,,,,,,,,,,,,,,,,6164280eaf0c4e12bf0a66df,001,2021-12-17_01h07.14.256,jm_natural_scene_simialrity_2-12-2021_version2,2021.2.3,Win32,58.8373735,6164280eaf0c4e12bf0a66df,61bbc5c79a1c66460f44041e,61bbc664bdfa68bcf085fb5f,,,,,,-35.999982,-120.3333873,1,0,0,response5disk,1.4807,-1.3333143,-3.666696777,1,0,0,rectangle,-1.3333143,-3.666696777,1,0,0,,2,"[96,67,82,100,51,34,31,107,107,120]",-1.3333143,-3.666696777,1,0,0,0,25,25,74,1,Purple,Purple.jpg,Turquiose,Turquiose.jpg,,
,,,,,,,,,,,,,,,,,,4,,,,,,,,,,,,,,,,,,,,,,,,,,,6164280eaf0c4e12bf0a66df,001,2021-12-17_01h07.14.256,jm_natural_scene_simialrity_2-12-2021_version2,2021.2.3,Win32,58.8373735,6164280eaf0c4e12bf0a66df,61bbc5c79a1c66460f44041e,61bbc664bdfa68bcf085fb5f,,,,,,35.33339415,116.9999938,1,0,0,response1disk,2.3364,-1.3333143,0.333303342,1,0,0,rectangle,-1.3333143,0.333303342,1,0,0,,-1,"[96,67,82,100,51,34,31,107,107,120]",-1.3333143,0.333303342,1,0,0,0,26,26,44,1,Purple,Purple.jpg,Purple,Purple.jpg,,
,,,,,,,,,,,,,,,,,,-4,,,,,,,,,,,,,,,,,,,,,,,,,,,6164280eaf0c4e12bf0a66df,001,2021-12-17_01h07.14.256,jm_natural_scene_simialrity_2-12-2021_version2,2021.2.3,Win32,58.8373735,6164280eaf0c4e12bf0a66df,61bbc5c79a1c66460f44041e,61bbc664bdfa68bcf085fb5f,,,,,,-63.99998283,82.99999282,1,0,0,response7disk,2.3171,14.66668618,3.66665712,1,0,0,rectangle,14.66668618,3.66665712,1,0,0,,-2,"[96,67,82,100,51,34,31,107,107,120]",14.66668618,3.66665712,1,0,0,0,27,27,37,1,LightBlue,LightBlue.jpg,Pink,Pink.jpg,,
,,,,,,,,,,,,,,,,,,-4,,,,,,,,,,,,,,,,,,,,,,,,,,,6164280eaf0c4e12bf0a66df,001,2021-12-17_01h07.14.256,jm_natural_scene_simialrity_2-12-2021_version2,2021.2.3,Win32,58.8373735,6164280eaf0c4e12bf0a66df,61bbc5c79a1c66460f44041e,61bbc664bdfa68bcf085fb5f,,,,,,-51.99998248,118.3333069,1,0,0,response7disk,1.4026,16.00001955,7.666657239,1,0,0,rectangle,16.00001955,7.666657239,1,0,0,,1,"[96,67,82,100,51,34,31,107,107,120]",16.00001955,7.666657239,1,0,0,0,28,28,31,1,Turquiose,Turquiose.jpg,LightBlue,LightBlue.jpg,,
,,,,,,,,,,,,,,,,,,-4,,,,,,,,,,,,,,,,,,,,,,,,,,,6164280eaf0c4e12bf0a66df,001,2021-12-17_01h07.14.256,jm_natural_scene_simialrity_2-12-2021_version2,2021.2.3,Win32,58.8373735,6164280eaf0c4e12bf0a66df,61bbc5c79a1c66460f44041e,61bbc664bdfa68bcf085fb5f,,,,,,-53.99998254,83.6666595,1,0,0,response7disk,1.216,-11.99998128,7.666657239,1,0,0,rectangle,-11.99998128,7.666657239,1,0,0,,-1,"[96,67,82,100,51,34,31,107,107,120]",-11.99998128,7.666657239,1,0,0,0,29,29,75,1,DarkBlue,DarkBlue.jpg,LightBlue,LightBlue.jpg,,
,,,,,,,,,,,,,,,,,,-3,,,,,,,,,,,,,,,,,,,,,,,,,,,6164280eaf0c4e12bf0a66df,001,2021-12-17_01h07.14.256,jm_natural_scene_simialrity_2-12-2021_version2,2021.2.3,Win32,58.8373735,6164280eaf0c4e12bf0a66df,61bbc5c79a1c66460f44041e,61bbc664bdfa68bcf085fb5f,,,,,,-79.99998331,32.3333043,1,0,0,response7disk,1.4687,10.00001937,-3.666696777,1,0,0,rectangle,-51.99998248,94.99999318,1,0,0,-4,-4,"[96,67,82,100,51,34,31,107,107,120]",11.33339343,-8.333343238,1,0,0,0,30,30,58,1,Pink,Pink.jpg,Yellow,Yellow.jpg,response7disk_3,rectangle
,,,,,,,,,,,,,,,,,,-4,,,,,,,,,,,,,,,,,,,,,,,,,,,6164280eaf0c4e12bf0a66df,001,2021-12-17_01h07.14.256,jm_natural_scene_simialrity_2-12-2021_version2,2021.2.3,Win32,58.8373735,6164280eaf0c4e12bf0a66df,61bbc5c79a1c66460f44041e,61bbc664bdfa68bcf085fb5f,,,,,,-67.33331627,100.3333063,1,0,0,response7disk,1.8872,10.00001937,-7.666696896,1,0,0,rectangle,10.00001937,-7.666696896,1,0,0,-4,2,"[96,67,82,100,51,34,31,107,107,120]",10.00001937,-7.666696896,1,0,0,0,31,31,57,1,DarkBlue,DarkBlue.jpg,Yellow,Yellow.jpg,,
,,,,,,,,,,,,,,,,,,-4,,,,,,,,,,,,,,,,,,,,,,,,,,,6164280eaf0c4e12bf0a66df,001,2021-12-17_01h07.14.256,jm_natural_scene_simialrity_2-12-2021_version2,2021.2.3,Win32,58.8373735,6164280eaf0c4e12bf0a66df,61bbc5c79a1c66460f44041e,61bbc664bdfa68bcf085fb5f,,,,,,-36.666608,74.99999258,1,0,0,response7disk,1.5557,2.66668582,16.33330382,1,0,0,rectangle,2.66668582,16.33330382,1,0,0,-4,3,"[96,67,82,100,51,34,31,107,107,120]",2.66668582,16.33330382,1,0,0,0,32,32,34,1,Turquiose,Turquiose.jpg,Purple,Purple.jpg,,
,,,,,,,,,,,,,,,,,,-4,,,,,,,,,,,,,,,,,,,,,,,,,,,6164280eaf0c4e12bf0a66df,001,2021-12-17_01h07.14.256,jm_natural_scene_simialrity_2-12-2021_version2,2021.2.3,Win32,58.8373735,6164280eaf0c4e12bf0a66df,61bbc5c79a1c66460f44041e,61bbc664bdfa68bcf085fb5f,,,,,,-41.33331549,82.99999282,1,0,0,response7disk,1.0729,-6.666607102,-19.66667691,1,0,0,rectangle,-42.66660817,82.33330579,1,0,0,-4,-1,"[96,67,82,100,51,34,31,107,107,120]",-7.333314478,14.99999079,1,0,0,0,33,33,63,1,DarkBlue,DarkBlue.jpg,LightGreen,LightGreen.jpg,response7disk_3,rectangle
,,,,,,,,,,,,,,,,,,-4,,,,,,,,,,,,,,,,,,,,,,,,,,,6164280eaf0c4e12bf0a66df,001,2021-12-17_01h07.14.256,jm_natural_scene_simialrity_2-12-2021_version2,2021.2.3,Win32,58.8373735,6164280eaf0c4e12bf0a66df,61bbc5c79a1c66460f44041e,61bbc664bdfa68bcf085fb5f,,,,,,-55.33331591,78.33330567,1,0,0,response7disk,1.2849,4.000019193,-2.333343059,1,0,0,rectangle,4.000019193,-2.333343059,1,0,0,-4,1,"[96,67,82,100,51,34,31,107,107,120]",4.000019193,-2.333343059,1,0,0,0,34,34,73,1,Pink,Pink.jpg,Turquiose,Turquiose.jpg,,
,,,,,,,,,,,,,,,,,,-1,,,,,,,,,,,,,,,,,,,,,,,,,,,6164280eaf0c4e12bf0a66df,001,2021-12-17_01h07.14.256,jm_natural_scene_simialrity_2-12-2021_version2,2021.2.3,Win32,58.8373735,6164280eaf0c4e12bf0a66df,61bbc5c79a1c66460f44041e,61bbc664bdfa68bcf085fb5f,,,,,,-42.66660817,-121.6666799,1,0,0,response5disk,2.6722,-5.333314419,-1.000009686,1,0,0,rectangle,-5.333314419,-1.000009686,1,0,0,-4,-4,"[96,67,82,100,51,34,31,107,107,120]",-5.333314419,-1.000009686,1,0,0,0,35,35,70,1,Purple,Purple.jpg,DarkGreen,DarkGreen.jpg,,
,,,,,,,,,,,,,,,,,,-1,,,,,,,,,,,,,,,,,,,,,,,,,,,6164280eaf0c4e12bf0a66df,001,2021-12-17_01h07.14.256,jm_natural_scene_simialrity_2-12-2021_version2,2021.2.3,Win32,58.8373735,6164280eaf0c4e12bf0a66df,61bbc5c79a1c66460f44041e,61bbc664bdfa68bcf085fb5f,,,,,,-36.666608,-77.66667864,1,0,0,response5disk,1.0848,-1.999980986,24.33330406,1,0,0,rectangle,-1.999980986,24.33330406,1,0,0,-4,1,"[96,67,82,100,51,34,31,107,107,120]",-1.999980986,24.33330406,1,0,0,0,36,36,21,1,LightGreen,LightGreen.jpg,DarkBlue,DarkBlue.jpg,,
,,,,,,,,,,,,,,,,,,-3,,,,,,,,,,,,,,,,,,,,,,,,,,,6164280eaf0c4e12bf0a66df,001,2021-12-17_01h07.14.256,jm_natural_scene_simialrity_2-12-2021_version2,2021.2.3,Win32,58.8373735,6164280eaf0c4e12bf0a66df,61bbc5c79a1c66460f44041e,61bbc664bdfa68bcf085fb5f,,,,,,-57.33331597,30.33330424,1,0,0,response7disk,1.0205,-3.333314359,-5.666696837,1,0,0,rectangle,-3.333314359,-5.666696837,1,0,0,-4,-4,"[96,67,82,100,51,34,31,107,107,120]",-3.333314359,-5.666696837,1,0,0,0,37,37,51,1,Pink,Pink.jpg,Red,Red.jpg,,
,,,,,,,,,,,,,,,,,,-2,,,,,,,,,,,,,,,,,,,,,,,,,,,6164280eaf0c4e12bf0a66df,001,2021-12-17_01h07.14.256,jm_natural_scene_simialrity_2-12-2021_version2,2021.2.3,Win32,58.8373735,6164280eaf0c4e12bf0a66df,61bbc5c79a1c66460f44041e,61bbc664bdfa68bcf085fb5f,,,,,,-87.99998355,-47.66667774,1,0,0,response5disk,1.2895,8.000019312,21.66665766,1,0,0,rectangle,8.000019312,21.66665766,1,0,0,-4,-1,"[96,67,82,100,51,34,31,107,107,120]",8.000019312,21.66665766,1,0,0,0,38,38,2,1,Red,Red.jpg,LightGreen,LightGreen.jpg,,
,,,,,,,,,,,,,,,,,,4,,,,,,,,,,,,,,,,,,,,,,,,,,,6164280eaf0c4e12bf0a66df,001,2021-12-17_01h07.14.256,jm_natural_scene_simialrity_2-12-2021_version2,2021.2.3,Win32,58.8373735,6164280eaf0c4e12bf0a66df,61bbc5c79a1c66460f44041e,61bbc664bdfa68bcf085fb5f,,,,,,38.00002021,98.99999329,1,0,0,response1disk,1.3545,2.000019133,21.66665766,1,0,0,rectangle,2.000019133,21.66665766,1,0,0,-4,-3,"[96,67,82,100,51,34,31,107,107,120]",2.000019133,21.66665766,1,0,0,0,39,39,35,1,LightBlue,LightBlue.jpg,LightBlue,LightBlue.jpg,,
,,,,,,,,,,,,,,,,,,-2,,,,,,,,,,,,,,,,,,,,,,,,,,,6164280eaf0c4e12bf0a66df,001,2021-12-17_01h07.14.256,jm_natural_scene_simialrity_2-12-2021_version2,2021.2.3,Win32,58.8373735,6164280eaf0c4e12bf0a66df,61bbc5c79a1c66460f44041e,61bbc664bdfa68bcf085fb5f,,,,,,-47.33331567,-39.00001082,1,0,0,response5disk,1.7209,-9.333314538,2.999990433,1,0,0,rectangle,-9.333314538,2.999990433,1,0,0,-4,2,"[96,67,82,100,51,34,31,107,107,120]",-9.333314538,2.999990433,1,0,0,0,40,40,10,1,Yellow,Yellow.jpg,LightGreen,LightGreen.jpg,,
,,,,,,,,,,,,,,,,,,-2,,,,,,,,,,,,,,,,,,,,,,,,,,,6164280eaf0c4e12bf0a66df,001,2021-12-17_01h07.14.256,jm_natural_scene_simialrity_2-12-2021_version2,2021.2.3,Win32,58.8373735,6164280eaf0c4e12bf0a66df,61bbc5c79a1c66460f44041e,61bbc664bdfa68bcf085fb5f,,,,,,-49.33331573,-32.33334395,1,0,0,response5disk,0.9507,-6.666607102,8.333303581,1,0,0,rectangle,-6.666607102,8.333303581,1,0,0,-4,-2,"[96,67,82,100,51,34,31,107,107,120]",-6.666607102,8.333303581,1,0,0,0,41,41,40,1,DarkBlue,DarkBlue.jpg,Pink,Pink.jpg,,
,,,,,,,,,,,,,,,,,,-1,,,,,,,,,,,,,,,,,,,,,,,,,,,6164280eaf0c4e12bf0a66df,001,2021-12-17_01h07.14.256,jm_natural_scene_simialrity_2-12-2021_version2,2021.2.3,Win32,58.8373735,6164280eaf0c4e12bf0a66df,61bbc5c79a1c66460f44041e,61bbc664bdfa68bcf085fb5f,,,,,,-19.33331484,-57.66667804,1,0,0,response5disk,0.9207,-2.666606983,15.66665748,1,0,0,rectangle,-2.666606983,15.66665748,1,0,0,-4,-4,"[96,67,82,100,51,34,31,107,107,120]",-2.666606983,15.66665748,1,0,0,0,42,42,4,1,Red,Red.jpg,Turquiose,Turquiose.jpg,,
,,,,,,,,,,,,,,,,,,-4,,,,,,,,,,,,,,,,,,,,,,,,,,,6164280eaf0c4e12bf0a66df,001,2021-12-17_01h07.14.256,jm_natural_scene_simialrity_2-12-2021_version2,2021.2.3,Win32,58.8373735,6164280eaf0c4e12bf0a66df,61bbc5c79a1c66460f44041e,61bbc664bdfa68bcf085fb5f,,,,,,-36.666608,73.66665921,1,0,0,response7disk,1.0655,13.33339349,-5.666696837,1,0,0,rectangle,13.33339349,-5.666696837,1,0,0,-4,3,"[96,67,82,100,51,34,31,107,107,120]",13.33339349,-5.666696837,1,0,0,0,43,43,11,1,Yellow,Yellow.jpg,DarkGreen,DarkGreen.jpg,,
,,,,,,,,,,,,,,,,,,-4,,,,,,,,,,,,,,,,,,,,,,,,,,,6164280eaf0c4e12bf0a66df,001,2021-12-17_01h07.14.256,jm_natural_scene_simialrity_2-12-2021_version2,2021.2.3,Win32,58.8373735,6164280eaf0c4e12bf0a66df,61bbc5c79a1c66460f44041e,61bbc664bdfa68bcf085fb5f,,,,,,-99.99998391,129.6666609,1,0,0,response7disk,2.0047,20.66668636,-9.000009924,1,0,0,rectangle,20.66668636,-9.000009924,1,0,0,-4,1,"[96,67,82,100,51,34,31,107,107,120]",20.66668636,-9.000009924,1,0,0,0,44,44,1,1,Red,Red.jpg,Yellow,Yellow.jpg,,
,,,,,,,,,,,,,,,,,,-4,,,,,,,,,,,,,,,,,,,,,,,,,,,6164280eaf0c4e12bf0a66df,001,2021-12-17_01h07.14.256,jm_natural_scene_simialrity_2-12-2021_version2,2021.2.3,Win32,58.8373735,6164280eaf0c4e12bf0a66df,61bbc5c79a1c66460f44041e,61bbc664bdfa68bcf085fb5f,,,,,,-31.99998188,74.33330555,1,0,0,response7disk,1.3212,-11.99998128,-1.000009686,1,0,0,rectangle,-11.99998128,-1.000009686,1,0,0,-4,-3,"[96,67,82,100,51,34,31,107,107,120]",-11.99998128,-1.000009686,1,0,0,0,45,45,19,1,LightGreen,LightGreen.jpg,Turquiose,Turquiose.jpg,,
,,,,,,,,,,,,,,,,,,-3,,,,,,,,,,,,,,,,,,,,,,,,,,,6164280eaf0c4e12bf0a66df,001,2021-12-17_01h07.14.256,jm_natural_scene_simialrity_2-12-2021_version2,2021.2.3,Win32,58.8373735,6164280eaf0c4e12bf0a66df,61bbc5c79a1c66460f44041e,61bbc664bdfa68bcf085fb5f,,,,,,-77.99998325,31.66665795,1,0,0,response7disk,0.8672,-12.66660728,-6.333343178,1,0,0,rectangle,-12.66660728,-6.333343178,1,0,0,-4,1,"[96,67,82,100,51,34,31,107,107,120]",-12.66660728,-6.333343178,1,0,0,0,46,46,56,1,LightBlue,LightBlue.jpg,Yellow,Yellow.jpg,,
,,,,,,,,,,,,,,,,,,-1,,,,,,,,,,,,,,,,,,,,,,,,,,,6164280eaf0c4e12bf0a66df,001,2021-12-17_01h07.14.256,jm_natural_scene_simialrity_2-12-2021_version2,2021.2.3,Win32,58.8373735,6164280eaf0c4e12bf0a66df,61bbc5c79a1c66460f44041e,61bbc664bdfa68bcf085fb5f,,,,,,-41.33331549,-85.66667888,1,0,0,response5disk,0.887,-13.99998134,-9.000009924,1,0,0,rectangle,-13.99998134,-9.000009924,1,0,0,-4,-2,"[96,67,82,100,51,34,31,107,107,120]",-13.99998134,-9.000009924,1,0,0,0,47,47,80,1,Purple,Purple.jpg,Pink,Pink.jpg,,
,,,,,,,,,,,,,,,,,,4,,,,,,,,,,,,,,,,,,,,,,,,,,,6164280eaf0c4e12bf0a66df,001,2021-12-17_01h07.14.256,jm_natural_scene_simialrity_2-12-2021_version2,2021.2.3,Win32,58.8373735,6164280eaf0c4e12bf0a66df,61bbc5c79a1c66460f44041e,61bbc664bdfa68bcf085fb5f,,,,,,39.33339427,87.66665962,1,0,0,response1disk,1.5386,1.333393137,11.66665736,1,0,0,rectangle,1.333393137,11.66665736,1,0,0,-4,-1,"[96,67,82,100,51,34,31,107,107,120]",1.333393137,11.66665736,1,0,0,0,48,48,42,1,Pink,Pink.jpg,Pink,Pink.jpg,,
,,,,,,,,,,,,,,,,,,-1,,,,,,,,,,,,,,,,,,,,,,,,,,,6164280eaf0c4e12bf0a66df,001,2021-12-17_01h07.14.256,jm_natural_scene_simialrity_2-12-2021_version2,2021.2.3,Win32,58.8373735,6164280eaf0c4e12bf0a66df,61bbc5c79a1c66460f44041e,61bbc664bdfa68bcf085fb5f,,,,,,-51.99998248,-78.33334532,1,0,0,response5disk,1.3554,6.666685939,12.99999073,1,0,0,rectangle,6.666685939,12.99999073,1,0,0,-4,-2,"[96,67,82,100,51,34,31,107,107,120]",6.666685939,12.99999073,1,0,0,0,49,49,12,1,Yellow,Yellow.jpg,Turquiose,Turquiose.jpg,,
,,,,,,,,,,,,,,,,,,-1,,,,,,,,,,,,,,,,,,,,,,,,,,,6164280eaf0c4e12bf0a66df,001,2021-12-17_01h07.14.256,jm_natural_scene_simialrity_2-12-2021_version2,2021.2.3,Win32,58.8373735,6164280eaf0c4e12bf0a66df,61bbc5c79a1c66460f44041e,61bbc664bdfa68bcf085fb5f,,,,,,-37.33331537,-59.6666781,1,0,0,response5disk,1.0631,3.333393196,2.999990433,1,0,0,rectangle,33.33339409,-111.6666797,1,0,0,1,-4,"[96,67,82,100,51,34,31,107,107,120]",8.000019312,-1.666696717,1,0,0,0,50,50,66,1,Turquiose,Turquiose.jpg,DarkGreen,DarkGreen.jpg,response3disk_3,rectangle
,,,,,,,,,,,,,,,,,,-1,,,,,,,,,,,,,,,,,,,,,,,,,,,6164280eaf0c4e12bf0a66df,001,2021-12-17_01h07.14.256,jm_natural_scene_simialrity_2-12-2021_version2,2021.2.3,Win32,58.8373735,6164280eaf0c4e12bf0a66df,61bbc5c79a1c66460f44041e,61bbc664bdfa68bcf085fb5f,,,,,,-62.66660877,-118.3333872,1,0,0,response5disk,1.6575,-5.333314419,-3.666696777,1,0,0,rectangle,-5.333314419,-3.666696777,1,0,0,1,-2,"[96,67,82,100,51,34,31,107,107,120]",-5.333314419,-3.666696777,1,0,0,0,51,51,23,1,LightGreen,LightGreen.jpg,Purple,Purple.jpg,,
,,,,,,,,,,,,,,,,,,-1,,,,,,,,,,,,,,,,,,,,,,,,,,,6164280eaf0c4e12bf0a66df,001,2021-12-17_01h07.14.256,jm_natural_scene_simialrity_2-12-2021_version2,2021.2.3,Win32,58.8373735,6164280eaf0c4e12bf0a66df,61bbc5c79a1c66460f44041e,61bbc664bdfa68bcf085fb5f,,,,,,-20.66660752,-96.33334586,1,0,0,response5disk,1.0182,-18.66660746,1.66665706,1,0,0,rectangle,-18.66660746,1.66665706,1,0,0,1,-4,"[96,67,82,100,51,34,31,107,107,120]",-18.66660746,1.66665706,1,0,0,0,52,52,27,1,DarkGreen,DarkGreen.jpg,DarkBlue,DarkBlue.jpg,,
,,,,,,,,,,,,,,,,,,-1,,,,,,,,,,,,,,,,,,,,,,,,,,,6164280eaf0c4e12bf0a66df,001,2021-12-17_01h07.14.256,jm_natural_scene_simialrity_2-12-2021_version2,2021.2.3,Win32,58.8373735,6164280eaf0c4e12bf0a66df,61bbc5c79a1c66460f44041e,61bbc664bdfa68bcf085fb5f,,,,,,-25.33331501,-77.00001195,1,0,0,response5disk,0.9336,-17.99998146,16.99999085,1,0,0,rectangle,-17.99998146,16.99999085,1,0,0,-3,-1,"[96,67,82,100,51,34,31,107,107,120]",-17.99998146,16.99999085,1,0,0,0,53,53,22,1,LightGreen,LightGreen.jpg,Pink,Pink.jpg,,
,,,,,,,,,,,,,,,,,,1,,,,,,,,,,,,,,,,,,,,,,,,,,,6164280eaf0c4e12bf0a66df,001,2021-12-17_01h07.14.256,jm_natural_scene_simialrity_2-12-2021_version2,2021.2.3,Win32,58.8373735,6164280eaf0c4e12bf0a66df,61bbc5c79a1c66460f44041e,61bbc664bdfa68bcf085fb5f,,,,,,80.00002146,-95.66667917,1,0,0,response3disk,0.9295,-5.999981105,-5.000009805,1,0,0,rectangle,-5.999981105,-5.000009805,1,0,0,-3,3,"[96,67,82,100,51,34,31,107,107,120]",-5.999981105,-5.000009805,1,0,0,0,54,54,18,1,LightGreen,LightGreen.jpg,DarkGreen,DarkGreen.jpg,,
,,,,,,,,,,,,,,,,,,1,,,,,,,,,,,,,,,,,,,,,,,,,,,6164280eaf0c4e12bf0a66df,001,2021-12-17_01h07.14.256,jm_natural_scene_simialrity_2-12-2021_version2,2021.2.3,Win32,58.8373735,6164280eaf0c4e12bf0a66df,61bbc5c79a1c66460f44041e,61bbc664bdfa68bcf085fb5f,,,,,,52.66668731,-117.6666798,1,0,0,response3disk,1.0988,-17.99998146,-6.333343178,1,0,0,rectangle,-17.99998146,-6.333343178,1,0,0,-3,-4,"[96,67,82,100,51,34,31,107,107,120]",-17.99998146,-6.333343178,1,0,0,0,55,55,3,1,Red,Red.jpg,DarkGreen,DarkGreen.jpg,,
,,,,,,,,,,,,,,,,,,-1,,,,,,,,,,,,,,,,,,,,,,,,,,,6164280eaf0c4e12bf0a66df,001,2021-12-17_01h07.14.256,jm_natural_scene_simialrity_2-12-2021_version2,2021.2.3,Win32,58.8373735,6164280eaf0c4e12bf0a66df,61bbc5c79a1c66460f44041e,61bbc664bdfa68bcf085fb5f,,,,,,-21.99998158,-92.33334574,1,0,0,response5disk,0.9012,-5.333314419,1.66665706,1,0,0,rectangle,-5.333314419,1.66665706,1,0,0,-3,-2,"[96,67,82,100,51,34,31,107,107,120]",-5.333314419,1.66665706,1,0,0,0,56,56,25,1,DarkGreen,DarkGreen.jpg,Turquiose,Turquiose.jpg,,
,,,,,,,,,,,,,,,,,,4,,,,,,,,,,,,,,,,,,,,,,,,,,,6164280eaf0c4e12bf0a66df,001,2021-12-17_01h07.14.256,jm_natural_scene_simialrity_2-12-2021_version2,2021.2.3,Win32,58.8373735,6164280eaf0c4e12bf0a66df,61bbc5c79a1c66460f44041e,61bbc664bdfa68bcf085fb5f,,,,,,28.66668659,93.6666598,1,0,0,response1disk,1.9856,12.66668612,19.6666576,1,0,0,rectangle,12.66668612,19.6666576,1,0,0,-3,3,"[96,67,82,100,51,34,31,107,107,120]",12.66668612,19.6666576,1,0,0,0,57,57,39,1,DarkBlue,DarkBlue.jpg,DarkBlue,DarkBlue.jpg,,
,,,,,,,,,,,,,,,,,,-1,,,,,,,,,,,,,,,,,,,,,,,,,,,6164280eaf0c4e12bf0a66df,001,2021-12-17_01h07.14.256,jm_natural_scene_simialrity_2-12-2021_version2,2021.2.3,Win32,58.8373735,6164280eaf0c4e12bf0a66df,61bbc5c79a1c66460f44041e,61bbc664bdfa68bcf085fb5f,,,,,,-33.99998194,-101.0000127,1,0,0,response5disk,1.1092,-14.66660734,3.66665712,1,0,0,rectangle,-14.66660734,3.66665712,1,0,0,-3,2,"[96,67,82,100,51,34,31,107,107,120]",-14.66660734,3.66665712,1,0,0,0,58,58,7,1,Red,Red.jpg,Pink,Pink.jpg,,
,,,,,,,,,,,,,,,,,,-4,,,,,,,,,,,,,,,,,,,,,,,,,,,6164280eaf0c4e12bf0a66df,001,2021-12-17_01h07.14.256,jm_natural_scene_simialrity_2-12-2021_version2,2021.2.3,Win32,58.8373735,6164280eaf0c4e12bf0a66df,61bbc5c79a1c66460f44041e,61bbc664bdfa68bcf085fb5f,,,,,,-75.99998319,110.9999937,1,0,0,response7disk,1.8018,-3.333314359,1.66665706,1,0,0,rectangle,-3.333314359,1.66665706,1,0,0,-3,-2,"[96,67,82,100,51,34,31,107,107,120]",-3.333314359,1.66665706,1,0,0,0,59,59,49,1,LightBlue,LightBlue.jpg,Red,Red.jpg,,
,,,,,,,,,,,,,,,,,,-2,,,,,,,,,,,,,,,,,,,,,,,,,,,6164280eaf0c4e12bf0a66df,001,2021-12-17_01h07.14.256,jm_natural_scene_simialrity_2-12-2021_version2,2021.2.3,Win32,58.8373735,6164280eaf0c4e12bf0a66df,61bbc5c79a1c66460f44041e,61bbc664bdfa68bcf085fb5f,,,,,,-135.3333183,-52.33334455,1,0,0,response5disk,1.6842,8.666685998,5.66665718,1,0,0,rectangle,8.666685998,5.66665718,1,0,0,-3,1,"[96,67,82,100,51,34,31,107,107,120]",8.666685998,5.66665718,1,0,0,0,60,60,6,1,Red,Red.jpg,DarkBlue,DarkBlue.jpg,,
,,,,,,,,,,,,,,,,,,-1,,,,,,,,,,,,,,,,,,,,,,,,,,,6164280eaf0c4e12bf0a66df,001,2021-12-17_01h07.14.256,jm_natural_scene_simialrity_2-12-2021_version2,2021.2.3,Win32,58.8373735,6164280eaf0c4e12bf0a66df,61bbc5c79a1c66460f44041e,61bbc664bdfa68bcf085fb5f,,,,,,-31.99998188,-97.00001255,1,0,0,response5disk,1.2357,-0.666606923,-11.00000998,1,0,0,rectangle,-0.666606923,-11.00000998,1,0,0,-3,1,"[96,67,82,100,51,34,31,107,107,120]",-0.666606923,-11.00000998,1,0,0,0,61,61,53,1,LightGreen,LightGreen.jpg,Yellow,Yellow.jpg,,
,,,,,,,,,,,,,,,,,,-1,,,,,,,,,,,,,,,,,,,,,,,,,,,6164280eaf0c4e12bf0a66df,001,2021-12-17_01h07.14.256,jm_natural_scene_simialrity_2-12-2021_version2,2021.2.3,Win32,58.8373735,6164280eaf0c4e12bf0a66df,61bbc5c79a1c66460f44041e,61bbc664bdfa68bcf085fb5f,,,,,,-25.9999817,-73.00001183,1,0,0,response5disk,0.9875,6.666685939,-4.333343118,1,0,0,rectangle,6.666685939,-4.333343118,1,0,0,-3,-2,"[96,67,82,100,51,34,31,107,107,120]",6.666685939,-4.333343118,1,0,0,0,62,62,62,1,LightBlue,LightBlue.jpg,LightGreen,LightGreen.jpg,,
,,,,,,,,,,,,,,,,,,-1,,,,,,,,,,,,,,,,,,,,,,,,,,,6164280eaf0c4e12bf0a66df,001,2021-12-17_01h07.14.256,jm_natural_scene_simialrity_2-12-2021_version2,2021.2.3,Win32,58.8373735,6164280eaf0c4e12bf0a66df,61bbc5c79a1c66460f44041e,61bbc664bdfa68bcf085fb5f,,,,,,-29.99998182,-77.00001195,1,0,0,response5disk,0.9336,-2.666606983,-13.66669707,1,0,0,rectangle,-2.666606983,-13.66669707,1,0,0,-3,-2,"[96,67,82,100,51,34,31,107,107,120]",-2.666606983,-13.66669707,1,0,0,0,63,63,72,1,DarkBlue,DarkBlue.jpg,Turquiose,Turquiose.jpg,,
,,,,,,,,,,,,,,,,,,-1,,,,,,,,,,,,,,,,,,,,,,,,,,,6164280eaf0c4e12bf0a66df,001,2021-12-17_01h07.14.256,jm_natural_scene_simialrity_2-12-2021_version2,2021.2.3,Win32,58.8373735,6164280eaf0c4e12bf0a66df,61bbc5c79a1c66460f44041e,61bbc664bdfa68bcf085fb5f,,,,,,-34.66660794,-81.00001207,1,0,0,response5disk,0.8362,-15.9999814,-5.000009805,1,0,0,rectangle,-15.9999814,-5.000009805,1,0,0,-3,-2,"[96,67,82,100,51,34,31,107,107,120]",-15.9999814,-5.000009805,1,0,0,0,64,64,67,1,LightBlue,LightBlue.jpg,DarkGreen,DarkGreen.jpg,,
,,,,,,,,,,,,,,,,,,4,,,,,,,,,,,,,,,,,,,,,,,,,,,6164280eaf0c4e12bf0a66df,001,2021-12-17_01h07.14.256,jm_natural_scene_simialrity_2-12-2021_version2,2021.2.3,Win32,58.8373735,6164280eaf0c4e12bf0a66df,61bbc5c79a1c66460f44041e,61bbc664bdfa68bcf085fb5f,,,,,,39.33339427,100.9999934,1,0,0,response1disk,1.6849,21.33339373,-0.333342999,1,0,0,rectangle,21.33339373,-0.333342999,1,0,0,-3,2,"[96,67,82,100,51,34,31,107,107,120]",21.33339373,-0.333342999,1,0,0,0,65,65,9,1,Yellow,Yellow.jpg,Yellow,Yellow.jpg,,
,,,,,,,,,,,,,,,,,,-3,,,,,,,,,,,,,,,,,,,,,,,,,,,6164280eaf0c4e12bf0a66df,001,2021-12-17_01h07.14.256,jm_natural_scene_simialrity_2-12-2021_version2,2021.2.3,Win32,58.8373735,6164280eaf0c4e12bf0a66df,61bbc5c79a1c66460f44041e,61bbc664bdfa68bcf085fb5f,,,,,,-129.3333181,32.99999133,1,0,0,response7disk,1.3471,-18.66660746,20.33330394,1,0,0,rectangle,122.6666894,-45.66667768,1,0,0,2,-2,"[96,67,82,100,51,34,31,107,107,120]",4.666685879,3.66665712,1,0,0,0,66,66,68,1,DarkBlue,DarkBlue.jpg,DarkGreen,DarkGreen.jpg,response3disk_3,rectangle
,,,,,,,,,,,,,,,,,,1,,,,,,,,,,,,,,,,,,,,,,,,,,,6164280eaf0c4e12bf0a66df,001,2021-12-17_01h07.14.256,jm_natural_scene_simialrity_2-12-2021_version2,2021.2.3,Win32,58.8373735,6164280eaf0c4e12bf0a66df,61bbc5c79a1c66460f44041e,61bbc664bdfa68bcf085fb5f,,,,,,29.33339397,-83.00001213,1,0,0,response3disk,2.0889,-9.333314538,1.66665706,1,0,0,rectangle,-9.333314538,1.66665706,1,0,0,2,3,"[96,67,82,100,51,34,31,107,107,120]",-9.333314538,1.66665706,1,0,0,0,67,67,65,1,Purple,Purple.jpg,LightGreen,LightGreen.jpg,,
,,,,,,,,,,,,,,,,,,1,,,,,,,,,,,,,,,,,,,,,,,,,,,6164280eaf0c4e12bf0a66df,001,2021-12-17_01h07.14.256,jm_natural_scene_simialrity_2-12-2021_version2,2021.2.3,Win32,58.8373735,6164280eaf0c4e12bf0a66df,61bbc5c79a1c66460f44041e,61bbc664bdfa68bcf085fb5f,,,,,,93.33335519,-119.6666799,1,0,0,response3disk,1.5905,-24.66660764,0.999990374,1,0,0,rectangle,-24.66660764,0.999990374,1,0,0,2,-4,"[96,67,82,100,51,34,31,107,107,120]",-24.66660764,0.999990374,1,0,0,0,68,68,79,1,Purple,Purple.jpg,DarkBlue,DarkBlue.jpg,,
,,,,,,,,,,,,,,,,,,-1,,,,,,,,,,,,,,,,,,,,,,,,,,,6164280eaf0c4e12bf0a66df,001,2021-12-17_01h07.14.256,jm_natural_scene_simialrity_2-12-2021_version2,2021.2.3,Win32,58.8373735,6164280eaf0c4e12bf0a66df,61bbc5c79a1c66460f44041e,61bbc664bdfa68bcf085fb5f,,,,,,-51.33331579,-115.0000131,1,0,0,response5disk,1.8924,18.00001961,-17.00001016,1,0,0,rectangle,18.00001961,-17.00001016,1,0,0,2,2,"[96,67,82,100,51,34,31,107,107,120]",18.00001961,-17.00001016,1,0,0,0,69,69,46,1,LightGreen,LightGreen.jpg,Red,Red.jpg,,
,,,,,,,,,,,,,,,,,,4,,,,,,,,,,,,,,,,,,,,,,,,,,,6164280eaf0c4e12bf0a66df,001,2021-12-17_01h07.14.256,jm_natural_scene_simialrity_2-12-2021_version2,2021.2.3,Win32,58.8373735,6164280eaf0c4e12bf0a66df,61bbc5c79a1c66460f44041e,61bbc664bdfa68bcf085fb5f,,,,,,20.66668636,100.9999934,1,0,0,response1disk,2.085,-13.33331466,13.66665742,1,0,0,rectangle,-13.33331466,13.66665742,1,0,0,2,3,"[96,67,82,100,51,34,31,107,107,120]",-13.33331466,13.66665742,1,0,0,0,70,70,30,1,Turquiose,Turquiose.jpg,Turquiose,Turquiose.jpg,,
,,,,,,,,,,,,,,,,,,2,,,,,,,,,,,,,,,,,,,,,,,,,,,6164280eaf0c4e12bf0a66df,001,2021-12-17_01h07.14.256,jm_natural_scene_simialrity_2-12-2021_version2,2021.2.3,Win32,58.8373735,6164280eaf0c4e12bf0a66df,61bbc5c79a1c66460f44041e,61bbc664bdfa68bcf085fb5f,,,,,,50.00002056,-19.66667691,1,0,0,response3disk,1.5191,-19.33331484,2.999990433,1,0,0,rectangle,-19.33331484,2.999990433,1,0,0,2,-4,"[96,67,82,100,51,34,31,107,107,120]",-19.33331484,2.999990433,1,0,0,0,71,71,20,1,LightGreen,LightGreen.jpg,LightBlue,LightBlue.jpg,,
,,,,,,,,,,,,,,,,,,-1,,,,,,,,,,,,,,,,,,,,,,,,,,,6164280eaf0c4e12bf0a66df,001,2021-12-17_01h07.14.256,jm_natural_scene_simialrity_2-12-2021_version2,2021.2.3,Win32,58.8373735,6164280eaf0c4e12bf0a66df,61bbc5c79a1c66460f44041e,61bbc664bdfa68bcf085fb5f,,,,,,-27.99998176,-107.0000128,1,0,0,response5disk,90.0649,-1.999980986,-1.000009686,1,0,0,rectangle,-1.999980986,-1.000009686,1,0,0,2,-3,"[96,67,82,100,51,34,31,107,107,120]",-1.999980986,-1.000009686,1,0,0,0,72,72,50,1,DarkBlue,DarkBlue.jpg,Red,Red.jpg,,
,,,,,,,,,,,,,,,,,,1,,,,,,,,,,,,,,,,,,,,,,,,,,,6164280eaf0c4e12bf0a66df,001,2021-12-17_01h07.14.256,jm_natural_scene_simialrity_2-12-2021_version2,2021.2.3,Win32,58.8373735,6164280eaf0c4e12bf0a66df,61bbc5c79a1c66460f44041e,61bbc664bdfa68bcf085fb5f,,,,,,44.00002038,-69.6666784,1,0,0,response3disk,1.0829,16.00001955,15.66665748,1,0,0,rectangle,16.00001955,15.66665748,1,0,0,2,2,"[96,67,82,100,51,34,31,107,107,120]",16.00001955,15.66665748,1,0,0,0,73,73,45,1,Yellow,Yellow.jpg,Red,Red.jpg,,
,,,,,,,,,,,,,,,,,,-2,,,,,,,,,,,,,,,,,,,,,,,,,,,6164280eaf0c4e12bf0a66df,001,2021-12-17_01h07.14.256,jm_natural_scene_simialrity_2-12-2021_version2,2021.2.3,Win32,58.8373735,6164280eaf0c4e12bf0a66df,61bbc5c79a1c66460f44041e,61bbc664bdfa68bcf085fb5f,,,,,,-75.99998319,-37.66667745,1,0,0,response5disk,1.534,-3.333314359,8.999990612,1,0,0,rectangle,-3.333314359,8.999990612,1,0,0,2,1,"[96,67,82,100,51,34,31,107,107,120]",-3.333314359,8.999990612,1,0,0,0,74,74,48,1,Turquiose,Turquiose.jpg,Red,Red.jpg,,
,,,,,,,,,,,,,,,,,,-1,,,,,,,,,,,,,,,,,,,,,,,,,,,6164280eaf0c4e12bf0a66df,001,2021-12-17_01h07.14.256,jm_natural_scene_simialrity_2-12-2021_version2,2021.2.3,Win32,58.8373735,6164280eaf0c4e12bf0a66df,61bbc5c79a1c66460f44041e,61bbc664bdfa68bcf085fb5f,,,,,,-32.66660788,-83.00001213,1,0,0,response5disk,0.917,14.66668618,-3.666696777,1,0,0,rectangle,14.66668618,-3.666696777,1,0,0,2,-3,"[96,67,82,100,51,34,31,107,107,120]",14.66668618,-3.666696777,1,0,0,0,75,75,78,1,Pink,Pink.jpg,DarkBlue,DarkBlue.jpg,,
,,,,,,,,,,,,,,,,,,-1,,,,,,,,,,,,,,,,,,,,,,,,,,,6164280eaf0c4e12bf0a66df,001,2021-12-17_01h07.14.256,jm_natural_scene_simialrity_2-12-2021_version2,2021.2.3,Win32,58.8373735,6164280eaf0c4e12bf0a66df,61bbc5c79a1c66460f44041e,61bbc664bdfa68bcf085fb5f,,,,,,-55.33331591,-110.3333463,1,0,0,response5disk,2.4876,10.00001937,12.99999073,1,0,0,rectangle,10.00001937,12.99999073,1,0,0,2,-1,"[96,67,82,100,51,34,31,107,107,120]",10.00001937,12.99999073,1,0,0,0,76,76,13,1,Yellow,Yellow.jpg,LightBlue,LightBlue.jpg,,
,,,,,,,,,,,,,,,,,,-1,,,,,,,,,,,,,,,,,,,,,,,,,,,6164280eaf0c4e12bf0a66df,001,2021-12-17_01h07.14.256,jm_natural_scene_simialrity_2-12-2021_version2,2021.2.3,Win32,58.8373735,6164280eaf0c4e12bf0a66df,61bbc5c79a1c66460f44041e,61bbc664bdfa68bcf085fb5f,,,,,,-36.666608,-65.66667828,1,0,0,response5disk,0.9359,7.333393315,-5.666696837,1,0,0,rectangle,7.333393315,-5.666696837,1,0,0,2,-4,"[96,67,82,100,51,34,31,107,107,120]",7.333393315,-5.666696837,1,0,0,0,77,77,47,1,DarkGreen,DarkGreen.jpg,Red,Red.jpg,,
,,,,,,,,,,,,,,,,,,-2,,,,,,,,,,,,,,,,,,,,,,,,,,,6164280eaf0c4e12bf0a66df,001,2021-12-17_01h07.14.256,jm_natural_scene_simialrity_2-12-2021_version2,2021.2.3,Win32,58.8373735,6164280eaf0c4e12bf0a66df,61bbc5c79a1c66460f44041e,61bbc664bdfa68bcf085fb5f,,,,,,-90.66660961,-45.66667768,1,0,0,response5disk,1.3186,14.00001949,13.66665742,1,0,0,rectangle,14.00001949,13.66665742,1,0,0,2,3,"[96,67,82,100,51,34,31,107,107,120]",14.00001949,13.66665742,1,0,0,0,78,78,41,1,DarkBlue,DarkBlue.jpg,Purple,Purple.jpg,,
,,,,,,,,,,,,,,,,,,4,,,,,,,,,,,,,,,,,,,,,,,,,,,6164280eaf0c4e12bf0a66df,001,2021-12-17_01h07.14.256,jm_natural_scene_simialrity_2-12-2021_version2,2021.2.3,Win32,58.8373735,6164280eaf0c4e12bf0a66df,61bbc5c79a1c66460f44041e,61bbc664bdfa68bcf085fb5f,,,,,,26.00001985,88.999993,1,0,0,response1disk,1.2342,-11.99998128,10.99999067,1,0,0,rectangle,-11.99998128,10.99999067,1,0,0,2,-2,"[96,67,82,100,51,34,31,107,107,120]",-11.99998128,10.99999067,1,0,0,0,79,79,17,1,LightGreen,LightGreen.jpg,LightGreen,LightGreen.jpg,,
,,,,,,,,,,,,,,,,,,1,,,,,,,,,,,,,,,,,,,,,,,,,,,6164280eaf0c4e12bf0a66df,001,2021-12-17_01h07.14.256,jm_natural_scene_simialrity_2-12-2021_version2,2021.2.3,Win32,58.8373735,6164280eaf0c4e12bf0a66df,61bbc5c79a1c66460f44041e,61bbc664bdfa68bcf085fb5f,,,,,,53.333354,-108.3333462,1,0,0,response3disk,1.4544,7.333393315,-15.0000101,1,0,0,rectangle,7.333393315,-15.0000101,1,0,0,2,-1,"[96,67,82,100,51,34,31,107,107,120]",7.333393315,-15.0000101,1,0,0,0,80,80,14,1,Yellow,Yellow.jpg,DarkBlue,DarkBlue.jpg,,
,,,,,,,,,,,,,,,,,,4,,,,,,,,,,,,,,,,,,,,,,,,,,,6164280eaf0c4e12bf0a66df,001,2021-12-17_01h07.14.256,jm_natural_scene_simialrity_2-12-2021_version2,2021.2.3,Win32,58.8373735,6164280eaf0c4e12bf0a66df,61bbc5c79a1c66460f44041e,61bbc664bdfa68bcf085fb5f,,,,,,29.33339397,53.66665861,1,0,0,response1disk,1.1165,6.000019252,-4.333343118,1,0,0,rectangle,50.00002056,77.66665933,1,0,0,4,-4,"[96,67,82,100,51,34,31,107,107,120]",-5.333314419,6.333303521,1,0,0,1,0,81,44,1,Purple,Purple.jpg,Purple,Purple.jpg,response1disk_3,rectangle
,,,,,,,,,,,,,,,,,,-2,,,,,,,,,,,,,,,,,,,,,,,,,,,6164280eaf0c4e12bf0a66df,001,2021-12-17_01h07.14.256,jm_natural_scene_simialrity_2-12-2021_version2,2021.2.3,Win32,58.8373735,6164280eaf0c4e12bf0a66df,61bbc5c79a1c66460f44041e,61bbc664bdfa68bcf085fb5f,,,,,,-97.99998385,-45.000011,1,0,0,response5disk,1.0044,-12.66660728,5.66665718,1,0,0,rectangle,-12.66660728,5.66665718,1,0,0,4,3,"[96,67,82,100,51,34,31,107,107,120]",-12.66660728,5.66665718,1,0,0,1,1,82,55,1,Turquiose,Turquiose.jpg,Yellow,Yellow.jpg,,
,,,,,,,,,,,,,,,,,,-4,,,,,,,,,,,,,,,,,,,,,,,,,,,6164280eaf0c4e12bf0a66df,001,2021-12-17_01h07.14.256,jm_natural_scene_simialrity_2-12-2021_version2,2021.2.3,Win32,58.8373735,6164280eaf0c4e12bf0a66df,61bbc5c79a1c66460f44041e,61bbc664bdfa68bcf085fb5f,,,,,,-56.66660859,88.999993,1,0,0,response7disk,1.2884,14.00001949,16.33330382,1,0,0,rectangle,14.00001949,16.33330382,1,0,0,4,2,"[96,67,82,100,51,34,31,107,107,120]",14.00001949,16.33330382,1,0,0,1,2,83,12,1,Yellow,Yellow.jpg,Turquiose,Turquiose.jpg,,
,,,,,,,,,,,,,,,,,,4,,,,,,,,,,,,,,,,,,,,,,,,,,,6164280eaf0c4e12bf0a66df,001,2021-12-17_01h07.14.256,jm_natural_scene_simialrity_2-12-2021_version2,2021.2.3,Win32,58.8373735,6164280eaf0c4e12bf0a66df,61bbc5c79a1c66460f44041e,61bbc664bdfa68bcf085fb5f,,,,,,36.00002015,92.33330608,1,0,0,response1disk,25.3778,2.66668582,19.6666576,1,0,0,rectangle,2.66668582,19.6666576,1,0,0,4,-2,"[96,67,82,100,51,34,31,107,107,120]",2.66668582,19.6666576,1,0,0,1,3,84,20,1,LightGreen,LightGreen.jpg,LightBlue,LightBlue.jpg,,
,,,,,,,,,,,,,,,,,,-4,,,,,,,,,,,,,,,,,,,,,,,,,,,6164280eaf0c4e12bf0a66df,001,2021-12-17_01h07.14.256,jm_natural_scene_simialrity_2-12-2021_version2,2021.2.3,Win32,58.8373735,6164280eaf0c4e12bf0a66df,61bbc5c79a1c66460f44041e,61bbc664bdfa68bcf085fb5f,,,,,,-51.33331579,92.33330608,1,0,0,response7disk,0.8685,4.666685879,5.66665718,1,0,0,rectangle,4.666685879,5.66665718,1,0,0,4,-2,"[96,67,82,100,51,34,31,107,107,120]",4.666685879,5.66665718,1,0,0,1,4,85,21,1,LightGreen,LightGreen.jpg,DarkBlue,DarkBlue.jpg,,
,,,,,,,,,,,,,,,,,,-2,,,,,,,,,,,,,,,,,,,,,,,,,,,6164280eaf0c4e12bf0a66df,001,2021-12-17_01h07.14.256,jm_natural_scene_simialrity_2-12-2021_version2,2021.2.3,Win32,58.8373735,6164280eaf0c4e12bf0a66df,61bbc5c79a1c66460f44041e,61bbc664bdfa68bcf085fb5f,,,,,,-118.6666104,-42.33334425,1,0,0,response5disk,1.5353,-19.99998152,12.99999073,1,0,0,rectangle,-19.99998152,12.99999073,1,0,0,4,3,"[96,67,82,100,51,34,31,107,107,120]",-19.99998152,12.99999073,1,0,0,1,5,86,5,1,Red,Red.jpg,LightBlue,LightBlue.jpg,,
,,,,,,,,,,,,,,,,,,-3,,,,,,,,,,,,,,,,,,,,,,,,,,,6164280eaf0c4e12bf0a66df,001,2021-12-17_01h07.14.256,jm_natural_scene_simialrity_2-12-2021_version2,2021.2.3,Win32,58.8373735,6164280eaf0c4e12bf0a66df,61bbc5c79a1c66460f44041e,61bbc664bdfa68bcf085fb5f,,,,,,-90.66660961,83.6666595,1,0,0,response7disk,0.7692,-14.66660734,12.3333037,1,0,0,rectangle,-14.66660734,12.3333037,1,0,0,4,3,"[96,67,82,100,51,34,31,107,107,120]",-14.66660734,12.3333037,1,0,0,1,6,87,19,1,LightGreen,LightGreen.jpg,Turquiose,Turquiose.jpg,,
,,,,,,,,,,,,,,,,,,2,,,,,,,,,,,,,,,,,,,,,,,,,,,6164280eaf0c4e12bf0a66df,001,2021-12-17_01h07.14.256,jm_natural_scene_simialrity_2-12-2021_version2,2021.2.3,Win32,58.8373735,6164280eaf0c4e12bf0a66df,61bbc5c79a1c66460f44041e,61bbc664bdfa68bcf085fb5f,,,,,,101.3333554,-55.66667798,1,0,0,response3disk,1.8201,-15.33331472,-0.333342999,1,0,0,rectangle,-15.33331472,-0.333342999,1,0,0,4,-3,"[96,67,82,100,51,34,31,107,107,120]",-15.33331472,-0.333342999,1,0,0,1,7,88,43,1,Pink,Pink.jpg,Purple,Purple.jpg,,
,,,,,,,,,,,,,,,,,,1,,,,,,,,,,,,,,,,,,,,,,,,,,,6164280eaf0c4e12bf0a66df,001,2021-12-17_01h07.14.256,jm_natural_scene_simialrity_2-12-2021_version2,2021.2.3,Win32,58.8373735,6164280eaf0c4e12bf0a66df,61bbc5c79a1c66460f44041e,61bbc664bdfa68bcf085fb5f,,,,,,40.66668695,-71.00001177,1,0,0,response3disk,1.0673,-9.999981225,-15.0000101,1,0,0,rectangle,-9.999981225,-15.0000101,1,0,0,4,3,"[96,67,82,100,51,34,31,107,107,120]",-9.999981225,-15.0000101,1,0,0,1,8,89,47,1,DarkGreen,DarkGreen.jpg,Red,Red.jpg,,
,,,,,,,,,,,,,,,,,,1,,,,,,,,,,,,,,,,,,,,,,,,,,,6164280eaf0c4e12bf0a66df,001,2021-12-17_01h07.14.256,jm_natural_scene_simialrity_2-12-2021_version2,2021.2.3,Win32,58.8373735,6164280eaf0c4e12bf0a66df,61bbc5c79a1c66460f44041e,61bbc664bdfa68bcf085fb5f,,,,,,21.33339373,-77.00001195,1,0,0,response3disk,0.8851,-16.6666074,1.66665706,1,0,0,rectangle,-16.6666074,1.66665706,1,0,0,4,-2,"[96,67,82,100,51,34,31,107,107,120]",-16.6666074,1.66665706,1,0,0,1,9,90,26,1,DarkGreen,DarkGreen.jpg,LightBlue,LightBlue.jpg,,
,,,,,,,,,,,,,,,,,,2,,,,,,,,,,,,,,,,,,,,,,,,,,,6164280eaf0c4e12bf0a66df,001,2021-12-17_01h07.14.256,jm_natural_scene_simialrity_2-12-2021_version2,2021.2.3,Win32,58.8373735,6164280eaf0c4e12bf0a66df,61bbc5c79a1c66460f44041e,61bbc664bdfa68bcf085fb5f,,,,,,100.0000221,-61.00001147,1,0,0,response3disk,1.7496,1.333393137,-9.666696956,1,0,0,rectangle,1.333393137,-9.666696956,1,0,0,4,-2,"[96,67,82,100,51,34,31,107,107,120]",1.333393137,-9.666696956,1,0,0,1,10,91,38,1,LightBlue,LightBlue.jpg,Purple,Purple.jpg,,
,,,,,,,,,,,,,,,,,,3,,,,,,,,,,,,,,,,,,,,,,,,,,,6164280eaf0c4e12bf0a66df,001,2021-12-17_01h07.14.256,jm_natural_scene_simialrity_2-12-2021_version2,2021.2.3,Win32,58.8373735,6164280eaf0c4e12bf0a66df,61bbc5c79a1c66460f44041e,61bbc664bdfa68bcf085fb5f,,,,,,55.33335406,40.99999157,1,0,0,response1disk,1.2359,10.00001937,6.333303521,1,0,0,rectangle,10.00001937,6.333303521,1,0,0,4,-3,"[96,67,82,100,51,34,31,107,107,120]",10.00001937,6.333303521,1,0,0,1,11,92,76,1,Pink,Pink.jpg,LightBlue,LightBlue.jpg,,
,,,,,,,,,,,,,,,,,,2,,,,,,,,,,,,,,,,,,,,,,,,,,,6164280eaf0c4e12bf0a66df,001,2021-12-17_01h07.14.256,jm_natural_scene_simialrity_2-12-2021_version2,2021.2.3,Win32,58.8373735,6164280eaf0c4e12bf0a66df,61bbc5c79a1c66460f44041e,61bbc664bdfa68bcf085fb5f,,,,,,96.00002193,-54.33334461,1,0,0,response3disk,0.9862,-2.666606983,12.3333037,1,0,0,rectangle,-2.666606983,12.3333037,1,0,0,4,2,"[96,67,82,100,51,34,31,107,107,120]",-2.666606983,12.3333037,1,0,0,1,12,93,70,1,Purple,Purple.jpg,DarkGreen,DarkGreen.jpg,,
,,,,,,,,,,,,,,,,,,1,,,,,,,,,,,,,,,,,,,,,,,,,,,6164280eaf0c4e12bf0a66df,001,2021-12-17_01h07.14.256,jm_natural_scene_simialrity_2-12-2021_version2,2021.2.3,Win32,58.8373735,6164280eaf0c4e12bf0a66df,61bbc5c79a1c66460f44041e,61bbc664bdfa68bcf085fb5f,,,,,,52.66668731,-125.0000134,1,0,0,response3disk,1.3721,2.66668582,-15.66669713,1,0,0,rectangle,2.66668582,-15.66669713,1,0,0,4,-1,"[96,67,82,100,51,34,31,107,107,120]",2.66668582,-15.66669713,1,0,0,1,13,94,4,1,Red,Red.jpg,Turquiose,Turquiose.jpg,,
,,,,,,,,,,,,,,,,,,-1,,,,,,,,,,,,,,,,,,,,,,,,,,,6164280eaf0c4e12bf0a66df,001,2021-12-17_01h07.14.256,jm_natural_scene_simialrity_2-12-2021_version2,2021.2.3,Win32,58.8373735,6164280eaf0c4e12bf0a66df,61bbc5c79a1c66460f44041e,61bbc664bdfa68bcf085fb5f,,,,,,-26.6666077,-74.3333452,1,0,0,response5disk,1.0165,-9.333314538,-13.66669707,1,0,0,rectangle,-33.33331525,-92.33334574,1,0,0,-1,-3,"[96,67,82,100,51,34,31,107,107,120]",-4.666607042,-5.666696837,1,0,0,1,14,95,1,1,Red,Red.jpg,Yellow,Yellow.jpg,response5disk_3,rectangle
,,,,,,,,,,,,,,,,,,1,,,,,,,,,,,,,,,,,,,,,,,,,,,6164280eaf0c4e12bf0a66df,001,2021-12-17_01h07.14.256,jm_natural_scene_simialrity_2-12-2021_version2,2021.2.3,Win32,58.8373735,6164280eaf0c4e12bf0a66df,61bbc5c79a1c66460f44041e,61bbc664bdfa68bcf085fb5f,,,,,,40.00002027,-81.00001207,1,0,0,response3disk,0.8281,2.66668582,-23.66667703,1,0,0,rectangle,2.66668582,-23.66667703,1,0,0,-1,-2,"[96,67,82,100,51,34,31,107,107,120]",2.66668582,-23.66667703,1,0,0,1,15,96,41,1,DarkBlue,DarkBlue.jpg,Purple,Purple.jpg,,
,,,,,,,,,,,,,,,,,,4,,,,,,,,,,,,,,,,,,,,,,,,,,,6164280eaf0c4e12bf0a66df,001,2021-12-17_01h07.14.256,jm_natural_scene_simialrity_2-12-2021_version2,2021.2.3,Win32,58.8373735,6164280eaf0c4e12bf0a66df,61bbc5c79a1c66460f44041e,61bbc664bdfa68bcf085fb5f,,,,,,29.33339397,72.33330549,1,0,0,response1disk,1.1831,-2.666606983,17.66665754,1,0,0,rectangle,-2.666606983,17.66665754,1,0,0,-1,3,"[96,67,82,100,51,34,31,107,107,120]",-2.666606983,17.66665754,1,0,0,1,16,97,39,1,DarkBlue,DarkBlue.jpg,DarkBlue,DarkBlue.jpg,,
,,,,,,,,,,,,,,,,,,1,,,,,,,,,,,,,,,,,,,,,,,,,,,6164280eaf0c4e12bf0a66df,001,2021-12-17_01h07.14.256,jm_natural_scene_simialrity_2-12-2021_version2,2021.2.3,Win32,58.8373735,6164280eaf0c4e12bf0a66df,61bbc5c79a1c66460f44041e,61bbc664bdfa68bcf085fb5f,,,,,,59.33335418,-102.333346,1,0,0,response3disk,1.6756,6.000019252,9.666657299,1,0,0,rectangle,6.000019252,9.666657299,1,0,0,-1,-1,"[96,67,82,100,51,34,31,107,107,120]",6.000019252,9.666657299,1,0,0,1,17,98,53,1,LightGreen,LightGreen.jpg,Yellow,Yellow.jpg,,
,,,,,,,,,,,,,,,,,,-1,,,,,,,,,,,,,,,,,,,,,,,,,,,6164280eaf0c4e12bf0a66df,001,2021-12-17_01h07.14.256,jm_natural_scene_simialrity_2-12-2021_version2,2021.2.3,Win32,58.8373735,6164280eaf0c4e12bf0a66df,61bbc5c79a1c66460f44041e,61bbc664bdfa68bcf085fb5f,,,,,,-45.9999823,-89.66667899,1,0,0,response5disk,1.7106,-18.66660746,0.333303342,1,0,0,rectangle,116.6666892,69.66665909,1,0,0,3,-2,"[96,67,82,100,51,34,31,107,107,120]",12.66668612,12.99999073,1,0,0,1,18,99,74,1,Purple,Purple.jpg,Turquiose,Turquiose.jpg,response1disk_3,rectangle
,,,,,,,,,,,,,,,,,,-1,,,,,,,,,,,,,,,,,,,,,,,,,,,6164280eaf0c4e12bf0a66df,001,2021-12-17_01h07.14.256,jm_natural_scene_simialrity_2-12-2021_version2,2021.2.3,Win32,58.8373735,6164280eaf0c4e12bf0a66df,61bbc5c79a1c66460f44041e,61bbc664bdfa68bcf085fb5f,,,,,,-42.66660817,-78.33334532,1,0,0,response5disk,1.13,-23.33331496,-1.000009686,1,0,0,rectangle,-23.33331496,-1.000009686,1,0,0,3,3,"[96,67,82,100,51,34,31,107,107,120]",-23.33331496,-1.000009686,1,0,0,1,19,100,49,1,LightBlue,LightBlue.jpg,Red,Red.jpg,,
,,,,,,,,,,,,,,,,,,1,,,,,,,,,,,,,,,,,,,,,,,,,,,6164280eaf0c4e12bf0a66df,001,2021-12-17_01h07.14.256,jm_natural_scene_simialrity_2-12-2021_version2,2021.2.3,Win32,58.8373735,6164280eaf0c4e12bf0a66df,61bbc5c79a1c66460f44041e,61bbc664bdfa68bcf085fb5f,,,,,,33.33339409,-92.33334574,1,0,0,response3disk,1.1009,6.666685939,4.333303461,1,0,0,rectangle,6.666685939,4.333303461,1,0,0,3,3,"[96,67,82,100,51,34,31,107,107,120]",6.666685939,4.333303461,1,0,0,1,20,101,45,1,Yellow,Yellow.jpg,Red,Red.jpg,,
,,,,,,,,,,,,,,,,,,1,,,,,,,,,,,,,,,,,,,,,,,,,,,6164280eaf0c4e12bf0a66df,001,2021-12-17_01h07.14.256,jm_natural_scene_simialrity_2-12-2021_version2,2021.2.3,Win32,58.8373735,6164280eaf0c4e12bf0a66df,61bbc5c79a1c66460f44041e,61bbc664bdfa68bcf085fb5f,,,,,,53.333354,-89.00001231,1,0,0,response3disk,1.8375,-11.99998128,-3.666696777,1,0,0,rectangle,-11.99998128,-3.666696777,1,0,0,3,-3,"[96,67,82,100,51,34,31,107,107,120]",-11.99998128,-3.666696777,1,0,0,1,21,102,56,1,LightBlue,LightBlue.jpg,Yellow,Yellow.jpg,,
,,,,,,,,,,,,,,,,,,4,,,,,,,,,,,,,,,,,,,,,,,,,,,6164280eaf0c4e12bf0a66df,001,2021-12-17_01h07.14.256,jm_natural_scene_simialrity_2-12-2021_version2,2021.2.3,Win32,58.8373735,6164280eaf0c4e12bf0a66df,61bbc5c79a1c66460f44041e,61bbc664bdfa68bcf085fb5f,,,,,,35.33339415,78.9999927,1,0,0,response1disk,1.3816,-13.33331466,0.333303342,1,0,0,rectangle,-13.33331466,0.333303342,1,0,0,3,-4,"[96,67,82,100,51,34,31,107,107,120]",-13.33331466,0.333303342,1,0,0,1,22,103,42,1,Pink,Pink.jpg,Pink,Pink.jpg,,
,,,,,,,,,,,,,,,,,,1,,,,,,,,,,,,,,,,,,,,,,,,,,,6164280eaf0c4e12bf0a66df,001,2021-12-17_01h07.14.256,jm_natural_scene_simialrity_2-12-2021_version2,2021.2.3,Win32,58.8373735,6164280eaf0c4e12bf0a66df,61bbc5c79a1c66460f44041e,61bbc664bdfa68bcf085fb5f,,,,,,76.00002134,-127.0000134,1,0,0,response3disk,1.7185,-2.666606983,0.999990374,1,0,0,rectangle,-2.666606983,0.999990374,1,0,0,3,-2,"[96,67,82,100,51,34,31,107,107,120]",-2.666606983,0.999990374,1,0,0,1,23,104,13,1,Yellow,Yellow.jpg,LightBlue,LightBlue.jpg,,
,,,,,,,,,,,,,,,,,,4,,,,,,,,,,,,,,,,,,,,,,,,,,,6164280eaf0c4e12bf0a66df,001,2021-12-17_01h07.14.256,jm_natural_scene_simialrity_2-12-2021_version2,2021.2.3,Win32,58.8373735,6164280eaf0c4e12bf0a66df,61bbc5c79a1c66460f44041e,61bbc664bdfa68bcf085fb5f,,,,,,17.33339361,102.3333064,1,0,0,response1disk,1.8749,-7.333314478,0.333303342,1,0,0,rectangle,-7.333314478,0.333303342,1,0,0,3,2,"[96,67,82,100,51,34,31,107,107,120]",-7.333314478,0.333303342,1,0,0,1,24,105,35,1,LightBlue,LightBlue.jpg,LightBlue,LightBlue.jpg,,
,,,,,,,,,,,,,,,,,,1,,,,,,,,,,,,,,,,,,,,,,,,,,,6164280eaf0c4e12bf0a66df,001,2021-12-17_01h07.14.256,jm_natural_scene_simialrity_2-12-2021_version2,2021.2.3,Win32,58.8373735,6164280eaf0c4e12bf0a66df,61bbc5c79a1c66460f44041e,61bbc664bdfa68bcf085fb5f,,,,,,78.0000214,-93.66667911,1,0,0,response3disk,2.0461,14.66668618,12.99999073,1,0,0,rectangle,26.66668653,69.66665909,1,0,0,4,2,"[96,67,82,100,51,34,31,107,107,120]",-6.666607102,-12.33334336,1,0,0,1,25,106,18,1,LightGreen,LightGreen.jpg,DarkGreen,DarkGreen.jpg,response1disk_3,rectangle
,,,,,,,,,,,,,,,,,,-1,,,,,,,,,,,,,,,,,,,,,,,,,,,6164280eaf0c4e12bf0a66df,001,2021-12-17_01h07.14.256,jm_natural_scene_simialrity_2-12-2021_version2,2021.2.3,Win32,58.8373735,6164280eaf0c4e12bf0a66df,61bbc5c79a1c66460f44041e,61bbc664bdfa68bcf085fb5f,,,,,,-57.33331597,-95.00001249,1,0,0,response5disk,1.9488,-20.66660752,-2.333343059,1,0,0,rectangle,-20.66660752,-2.333343059,1,0,0,4,-4,"[96,67,82,100,51,34,31,107,107,120]",-20.66660752,-2.333343059,1,0,0,1,26,107,27,1,DarkGreen,DarkGreen.jpg,DarkBlue,DarkBlue.jpg,,
,,,,,,,,,,,,,,,,,,1,,,,,,,,,,,,,,,,,,,,,,,,,,,6164280eaf0c4e12bf0a66df,001,2021-12-17_01h07.14.256,jm_natural_scene_simialrity_2-12-2021_version2,2021.2.3,Win32,58.8373735,6164280eaf0c4e12bf0a66df,61bbc5c79a1c66460f44041e,61bbc664bdfa68bcf085fb5f,,,,,,52.00002062,-119.0000132,1,0,0,response3disk,0.8682,12.66668612,-14.33334342,1,0,0,rectangle,12.66668612,-14.33334342,1,0,0,4,-4,"[96,67,82,100,51,34,31,107,107,120]",12.66668612,-14.33334342,1,0,0,1,27,108,57,1,DarkBlue,DarkBlue.jpg,Yellow,Yellow.jpg,,
,,,,,,,,,,,,,,,,,,1,,,,,,,,,,,,,,,,,,,,,,,,,,,6164280eaf0c4e12bf0a66df,001,2021-12-17_01h07.14.256,jm_natural_scene_simialrity_2-12-2021_version2,2021.2.3,Win32,58.8373735,6164280eaf0c4e12bf0a66df,61bbc5c79a1c66460f44041e,61bbc664bdfa68bcf085fb5f,,,,,,35.33339415,-69.00001171,1,0,0,response3disk,1.1161,16.66668624,-9.000009924,1,0,0,rectangle,16.66668624,-9.000009924,1,0,0,4,2,"[96,67,82,100,51,34,31,107,107,120]",16.66668624,-9.000009924,1,0,0,1,28,109,28,1,DarkGreen,DarkGreen.jpg,Pink,Pink.jpg,,
,,,,,,,,,,,,,,,,,,2,,,,,,,,,,,,,,,,,,,,,,,,,,,6164280eaf0c4e12bf0a66df,001,2021-12-17_01h07.14.256,jm_natural_scene_simialrity_2-12-2021_version2,2021.2.3,Win32,58.8373735,6164280eaf0c4e12bf0a66df,61bbc5c79a1c66460f44041e,61bbc664bdfa68bcf085fb5f,,,,,,110.666689,-81.66667876,1,0,0,response3disk,0.8877,18.6666863,3.66665712,1,0,0,rectangle,18.6666863,3.66665712,1,0,0,4,3,"[96,67,82,100,51,34,31,107,107,120]",18.6666863,3.66665712,1,0,0,1,29,110,51,1,Pink,Pink.jpg,Red,Red.jpg,,
,,,,,,,,,,,,,,,,,,1,,,,,,,,,,,,,,,,,,,,,,,,,,,6164280eaf0c4e12bf0a66df,001,2021-12-17_01h07.14.256,jm_natural_scene_simialrity_2-12-2021_version2,2021.2.3,Win32,58.8373735,6164280eaf0c4e12bf0a66df,61bbc5c79a1c66460f44041e,61bbc664bdfa68bcf085fb5f,,,,,,19.33339367,-52.33334455,1,0,0,response3disk,0.9072,-3.333314359,-11.00000998,1,0,0,rectangle,-3.333314359,-11.00000998,1,0,0,4,-4,"[96,67,82,100,51,34,31,107,107,120]",-3.333314359,-11.00000998,1,0,0,1,30,111,80,1,Purple,Purple.jpg,Pink,Pink.jpg,,
,,,,,,,,,,,,,,,,,,-1,,,,,,,,,,,,,,,,,,,,,,,,,,,6164280eaf0c4e12bf0a66df,001,2021-12-17_01h07.14.256,jm_natural_scene_simialrity_2-12-2021_version2,2021.2.3,Win32,58.8373735,6164280eaf0c4e12bf0a66df,61bbc5c79a1c66460f44041e,61bbc664bdfa68bcf085fb5f,,,,,,-25.9999817,-106.3333462,1,0,0,response5disk,1.4456,1.90735E-05,17.66665754,1,0,0,rectangle,1.90735E-05,17.66665754,1,0,0,4,-1,"[96,67,82,100,51,34,31,107,107,120]",1.90735E-05,17.66665754,1,0,0,1,31,112,34,1,Turquiose,Turquiose.jpg,Purple,Purple.jpg,,
,,,,,,,,,,,,,,,,,,-2,,,,,,,,,,,,,,,,,,,,,,,,,,,6164280eaf0c4e12bf0a66df,001,2021-12-17_01h07.14.256,jm_natural_scene_simialrity_2-12-2021_version2,2021.2.3,Win32,58.8373735,6164280eaf0c4e12bf0a66df,61bbc5c79a1c66460f44041e,61bbc664bdfa68bcf085fb5f,,,,,,-64.66660883,-41.66667756,1,0,0,response5disk,1.8651,6.666685939,9.666657299,1,0,0,rectangle,6.666685939,9.666657299,1,0,0,4,-4,"[96,67,82,100,51,34,31,107,107,120]",6.666685939,9.666657299,1,0,0,1,32,113,36,1,LightBlue,LightBlue.jpg,DarkBlue,DarkBlue.jpg,,
,,,,,,,,,,,,,,,,,,2,,,,,,,,,,,,,,,,,,,,,,,,,,,6164280eaf0c4e12bf0a66df,001,2021-12-17_01h07.14.256,jm_natural_scene_simialrity_2-12-2021_version2,2021.2.3,Win32,58.8373735,6164280eaf0c4e12bf0a66df,61bbc5c79a1c66460f44041e,61bbc664bdfa68bcf085fb5f,,,,,,110.666689,-21.00001028,1,0,0,response3disk,1.6978,19.33339367,10.99999067,1,0,0,rectangle,19.33339367,10.99999067,1,0,0,4,2,"[96,67,82,100,51,34,31,107,107,120]",19.33339367,10.99999067,1,0,0,1,33,114,32,1,Turquiose,Turquiose.jpg,DarkBlue,DarkBlue.jpg,,
,,,,,,,,,,,,,,,,,,4,,,,,,,,,,,,,,,,,,,,,,,,,,,6164280eaf0c4e12bf0a66df,001,2021-12-17_01h07.14.256,jm_natural_scene_simialrity_2-12-2021_version2,2021.2.3,Win32,58.8373735,6164280eaf0c4e12bf0a66df,61bbc5c79a1c66460f44041e,61bbc664bdfa68bcf085fb5f,,,,,,56.00002074,116.3333068,1,0,0,response1disk,0.9934,-5.999981105,18.33330388,1,0,0,rectangle,-5.999981105,18.33330388,1,0,0,4,2,"[96,67,82,100,51,34,31,107,107,120]",-5.999981105,18.33330388,1,0,0,1,34,115,9,1,Yellow,Yellow.jpg,Yellow,Yellow.jpg,,
,,,,,,,,,,,,,,,,,,1,,,,,,,,,,,,,,,,,,,,,,,,,,,6164280eaf0c4e12bf0a66df,001,2021-12-17_01h07.14.256,jm_natural_scene_simialrity_2-12-2021_version2,2021.2.3,Win32,58.8373735,6164280eaf0c4e12bf0a66df,61bbc5c79a1c66460f44041e,61bbc664bdfa68bcf085fb5f,,,,,,44.00002038,-85.00001219,1,0,0,response3disk,1.0691,24.00001979,0.999990374,1,0,0,rectangle,24.00001979,0.999990374,1,0,0,4,-1,"[96,67,82,100,51,34,31,107,107,120]",24.00001979,0.999990374,1,0,0,1,35,116,2,1,Red,Red.jpg,LightGreen,LightGreen.jpg,,
,,,,,,,,,,,,,,,,,,-1,,,,,,,,,,,,,,,,,,,,,,,,,,,6164280eaf0c4e12bf0a66df,001,2021-12-17_01h07.14.256,jm_natural_scene_simialrity_2-12-2021_version2,2021.2.3,Win32,58.8373735,6164280eaf0c4e12bf0a66df,61bbc5c79a1c66460f44041e,61bbc664bdfa68bcf085fb5f,,,,,,-20.66660752,-61.66667816,1,0,0,response5disk,0.8842,-3.999981046,-9.666696956,1,0,0,rectangle,-3.999981046,-9.666696956,1,0,0,4,-1,"[96,67,82,100,51,34,31,107,107,120]",-3.999981046,-9.666696956,1,0,0,1,36,117,14,1,Yellow,Yellow.jpg,DarkBlue,DarkBlue.jpg,,
,,,,,,,,,,,,,,,,,,1,,,,,,,,,,,,,,,,,,,,,,,,,,,6164280eaf0c4e12bf0a66df,001,2021-12-17_01h07.14.256,jm_natural_scene_simialrity_2-12-2021_version2,2021.2.3,Win32,58.8373735,6164280eaf0c4e12bf0a66df,61bbc5c79a1c66460f44041e,61bbc664bdfa68bcf085fb5f,,,,,,34.66668677,-71.66667846,1,0,0,response3disk,0.8211,7.333393315,4.333303461,1,0,0,rectangle,7.333393315,4.333303461,1,0,0,4,2,"[96,67,82,100,51,34,31,107,107,120]",7.333393315,4.333303461,1,0,0,1,37,118,78,1,Pink,Pink.jpg,DarkBlue,DarkBlue.jpg,,
,,,,,,,,,,,,,,,,,,-1,,,,,,,,,,,,,,,,,,,,,,,,,,,6164280eaf0c4e12bf0a66df,001,2021-12-17_01h07.14.256,jm_natural_scene_simialrity_2-12-2021_version2,2021.2.3,Win32,58.8373735,6164280eaf0c4e12bf0a66df,61bbc5c79a1c66460f44041e,61bbc664bdfa68bcf085fb5f,,,,,,-21.3333149,-29.66667721,1,0,0,response5disk,0.8014,-13.99998134,11.66665736,1,0,0,rectangle,-43.99998224,-63.00001153,1,0,0,-1,-4,"[96,67,82,100,51,34,31,107,107,120]",-13.99998134,-11.00000998,1,0,0,1,38,119,68,1,DarkBlue,DarkBlue.jpg,DarkGreen,DarkGreen.jpg,response5disk_3,rectangle
,,,,,,,,,,,,,,,,,,1,,,,,,,,,,,,,,,,,,,,,,,,,,,6164280eaf0c4e12bf0a66df,001,2021-12-17_01h07.14.256,jm_natural_scene_simialrity_2-12-2021_version2,2021.2.3,Win32,58.8373735,6164280eaf0c4e12bf0a66df,61bbc5c79a1c66460f44041e,61bbc664bdfa68bcf085fb5f,,,,,,30.00001997,-67.00001165,1,0,0,response3disk,0.8084,-24.66660764,1.66665706,1,0,0,rectangle,-24.66660764,1.66665706,1,0,0,-1,-3,"[96,67,82,100,51,34,31,107,107,120]",-24.66660764,1.66665706,1,0,0,1,39,120,22,1,LightGreen,LightGreen.jpg,Pink,Pink.jpg,,
,,,,,,,,,,,,,,,,,,3,,,,,,,,,,,,,,,,,,,,,,,,,,,6164280eaf0c4e12bf0a66df,001,2021-12-17_01h07.14.256,jm_natural_scene_simialrity_2-12-2021_version2,2021.2.3,Win32,58.8373735,6164280eaf0c4e12bf0a66df,61bbc5c79a1c66460f44041e,61bbc664bdfa68bcf085fb5f,,,,,,103.3333555,34.33330436,1,0,0,response1disk,106.2879,-9.333314538,2.999990433,1,0,0,rectangle,-9.333314538,2.999990433,1,0,0,-1,1,"[96,67,82,100,51,34,31,107,107,120]",-9.333314538,2.999990433,1,0,0,1,40,121,58,1,Pink,Pink.jpg,Yellow,Yellow.jpg,,
,,,,,,,,,,,,,,,,,,2,,,,,,,,,,,,,,,,,,,,,,,,,,,6164280eaf0c4e12bf0a66df,001,2021-12-17_01h07.14.256,jm_natural_scene_simialrity_2-12-2021_version2,2021.2.3,Win32,58.8373735,6164280eaf0c4e12bf0a66df,61bbc5c79a1c66460f44041e,61bbc664bdfa68bcf085fb5f,,,,,,142.66669,-23.00001034,1,0,0,response3disk,1.429,2.000019133,-14.33334342,1,0,0,rectangle,2.000019133,-14.33334342,1,0,0,-1,3,"[96,67,82,100,51,34,31,107,107,120]",2.000019133,-14.33334342,1,0,0,1,41,122,10,1,Yellow,Yellow.jpg,LightGreen,LightGreen.jpg,,
,,,,,,,,,,,,,,,,,,1,,,,,,,,,,,,,,,,,,,,,,,,,,,6164280eaf0c4e12bf0a66df,001,2021-12-17_01h07.14.256,jm_natural_scene_simialrity_2-12-2021_version2,2021.2.3,Win32,58.8373735,6164280eaf0c4e12bf0a66df,61bbc5c79a1c66460f44041e,61bbc664bdfa68bcf085fb5f,,,,,,50.66668725,-75.00001189,1,0,0,response3disk,0.8219,4.666685879,-13.00001004,1,0,0,rectangle,4.666685879,-13.00001004,1,0,0,-1,2,"[96,67,82,100,51,34,31,107,107,120]",4.666685879,-13.00001004,1,0,0,1,42,123,67,1,LightBlue,LightBlue.jpg,DarkGreen,DarkGreen.jpg,,
,,,,,,,,,,,,,,,,,,1,,,,,,,,,,,,,,,,,,,,,,,,,,,6164280eaf0c4e12bf0a66df,001,2021-12-17_01h07.14.256,jm_natural_scene_simialrity_2-12-2021_version2,2021.2.3,Win32,58.8373735,6164280eaf0c4e12bf0a66df,61bbc5c79a1c66460f44041e,61bbc664bdfa68bcf085fb5f,,,,,,46.66668713,-68.33334503,1,0,0,response3disk,0.709,6.000019252,-8.333343238,1,0,0,rectangle,6.000019252,-8.333343238,1,0,0,-1,2,"[96,67,82,100,51,34,31,107,107,120]",6.000019252,-8.333343238,1,0,0,1,43,124,15,1,Yellow,Yellow.jpg,Pink,Pink.jpg,,
,,,,,,,,,,,,,,,,,,1,,,,,,,,,,,,,,,,,,,,,,,,,,,6164280eaf0c4e12bf0a66df,001,2021-12-17_01h07.14.256,jm_natural_scene_simialrity_2-12-2021_version2,2021.2.3,Win32,58.8373735,6164280eaf0c4e12bf0a66df,61bbc5c79a1c66460f44041e,61bbc664bdfa68bcf085fb5f,,,,,,63.33335429,-92.33334574,1,0,0,response3disk,0.7056,-7.999981165,-13.66669707,1,0,0,rectangle,-7.999981165,-13.66669707,1,0,0,-1,-4,"[96,67,82,100,51,34,31,107,107,120]",-7.999981165,-13.66669707,1,0,0,1,44,125,25,1,DarkGreen,DarkGreen.jpg,Turquiose,Turquiose.jpg,,
,,,,,,,,,,,,,,,,,,1,,,,,,,,,,,,,,,,,,,,,,,,,,,6164280eaf0c4e12bf0a66df,001,2021-12-17_01h07.14.256,jm_natural_scene_simialrity_2-12-2021_version2,2021.2.3,Win32,58.8373735,6164280eaf0c4e12bf0a66df,61bbc5c79a1c66460f44041e,61bbc664bdfa68bcf085fb5f,,,,,,35.33339415,-80.33334538,1,0,0,response3disk,0.6508,-2.666606983,-9.666696956,1,0,0,rectangle,-2.666606983,-9.666696956,1,0,0,-1,-3,"[96,67,82,100,51,34,31,107,107,120]",-2.666606983,-9.666696956,1,0,0,1,45,126,66,1,Turquiose,Turquiose.jpg,DarkGreen,DarkGreen.jpg,,
,,,,,,,,,,,,,,,,,,-1,,,,,,,,,,,,,,,,,,,,,,,,,,,6164280eaf0c4e12bf0a66df,001,2021-12-17_01h07.14.256,jm_natural_scene_simialrity_2-12-2021_version2,2021.2.3,Win32,58.8373735,6164280eaf0c4e12bf0a66df,61bbc5c79a1c66460f44041e,61bbc664bdfa68bcf085fb5f,,,,,,-31.33331519,-104.3333461,1,0,0,response5disk,1.863,-10.66660722,-9.000009924,1,0,0,rectangle,-10.66660722,-9.000009924,1,0,0,-1,-2,"[96,67,82,100,51,34,31,107,107,120]",-10.66660722,-9.000009924,1,0,0,1,46,127,31,1,Turquiose,Turquiose.jpg,LightBlue,LightBlue.jpg,,
,,,,,,,,,,,,,,,,,,1,,,,,,,,,,,,,,,,,,,,,,,,,,,6164280eaf0c4e12bf0a66df,001,2021-12-17_01h07.14.256,jm_natural_scene_simialrity_2-12-2021_version2,2021.2.3,Win32,58.8373735,6164280eaf0c4e12bf0a66df,61bbc5c79a1c66460f44041e,61bbc664bdfa68bcf085fb5f,,,,,,34.00002009,-89.66667899,1,0,0,response3disk,1.1512,-19.99998152,1.66665706,1,0,0,rectangle,-19.99998152,1.66665706,1,0,0,-1,-1,"[96,67,82,100,51,34,31,107,107,120]",-19.99998152,1.66665706,1,0,0,1,47,128,37,1,LightBlue,LightBlue.jpg,Pink,Pink.jpg,,
,,,,,,,,,,,,,,,,,,1,,,,,,,,,,,,,,,,,,,,,,,,,,,6164280eaf0c4e12bf0a66df,001,2021-12-17_01h07.14.256,jm_natural_scene_simialrity_2-12-2021_version2,2021.2.3,Win32,58.8373735,6164280eaf0c4e12bf0a66df,61bbc5c79a1c66460f44041e,61bbc664bdfa68bcf085fb5f,,,,,,33.33339409,-70.33334509,1,0,0,response3disk,0.9505,-6.666607102,10.33330364,1,0,0,rectangle,-6.666607102,10.33330364,1,0,0,-1,-4,"[96,67,82,100,51,34,31,107,107,120]",-6.666607102,10.33330364,1,0,0,1,48,129,64,1,Pink,Pink.jpg,LightGreen,LightGreen.jpg,,
,,,,,,,,,,,,,,,,,,-1,,,,,,,,,,,,,,,,,,,,,,,,,,,6164280eaf0c4e12bf0a66df,001,2021-12-17_01h07.14.256,jm_natural_scene_simialrity_2-12-2021_version2,2021.2.3,Win32,58.8373735,6164280eaf0c4e12bf0a66df,61bbc5c79a1c66460f44041e,61bbc664bdfa68bcf085fb5f,,,,,,-37.99998206,-91.00001237,1,0,0,response5disk,0.9855,-6.666607102,-19.00001022,1,0,0,rectangle,-6.666607102,-19.00001022,1,0,0,-1,1,"[96,67,82,100,51,34,31,107,107,120]",-6.666607102,-19.00001022,1,0,0,1,49,130,46,1,LightGreen,LightGreen.jpg,Red,Red.jpg,,
,,,,,,,,,,,,,,,,,,4,,,,,,,,,,,,,,,,,,,,,,,,,,,6164280eaf0c4e12bf0a66df,001,2021-12-17_01h07.14.256,jm_natural_scene_simialrity_2-12-2021_version2,2021.2.3,Win32,58.8373735,6164280eaf0c4e12bf0a66df,61bbc5c79a1c66460f44041e,61bbc664bdfa68bcf085fb5f,,,,,,24.66668648,82.33330579,1,0,0,response1disk,1.4179,12.66668612,-16.33334348,1,0,0,rectangle,12.66668612,-16.33334348,1,0,0,-1,1,"[96,67,82,100,51,34,31,107,107,120]",12.66668612,-16.33334348,1,0,0,1,50,131,30,1,Turquiose,Turquiose.jpg,Turquiose,Turquiose.jpg,,
,,,,,,,,,,,,,,,,,,4,,,,,,,,,,,,,,,,,,,,,,,,,,,6164280eaf0c4e12bf0a66df,001,2021-12-17_01h07.14.256,jm_natural_scene_simialrity_2-12-2021_version2,2021.2.3,Win32,58.8373735,6164280eaf0c4e12bf0a66df,61bbc5c79a1c66460f44041e,61bbc664bdfa68bcf085fb5f,,,,,,28.66668659,75.66665927,1,0,0,response1disk,1.1013,11.33339343,-3.000009745,1,0,0,rectangle,11.33339343,-3.000009745,1,0,0,-1,-4,"[96,67,82,100,51,34,31,107,107,120]",11.33339343,-3.000009745,1,0,0,1,51,132,24,1,DarkGreen,DarkGreen.jpg,DarkGreen,DarkGreen.jpg,,
,,,,,,,,,,,,,,,,,,-2,,,,,,,,,,,,,,,,,,,,,,,,,,,6164280eaf0c4e12bf0a66df,001,2021-12-17_01h07.14.256,jm_natural_scene_simialrity_2-12-2021_version2,2021.2.3,Win32,58.8373735,6164280eaf0c4e12bf0a66df,61bbc5c79a1c66460f44041e,61bbc664bdfa68bcf085fb5f,,,,,,-80.66660931,-42.33334425,1,0,0,response5disk,1.6163,-0.666606923,-9.000009924,1,0,0,rectangle,-0.666606923,-9.000009924,1,0,0,-1,-2,"[96,67,82,100,51,34,31,107,107,120]",-0.666606923,-9.000009924,1,0,0,1,52,133,79,1,Purple,Purple.jpg,DarkBlue,DarkBlue.jpg,,
,,,,,,,,,,,,,,,,,,-1,,,,,,,,,,,,,,,,,,,,,,,,,,,6164280eaf0c4e12bf0a66df,001,2021-12-17_01h07.14.256,jm_natural_scene_simialrity_2-12-2021_version2,2021.2.3,Win32,58.8373735,6164280eaf0c4e12bf0a66df,61bbc5c79a1c66460f44041e,61bbc664bdfa68bcf085fb5f,,,,,,-38.66660806,-97.00001255,1,0,0,response5disk,1.3881,1.333393137,2.333303402,1,0,0,rectangle,1.333393137,2.333303402,1,0,0,-1,-2,"[96,67,82,100,51,34,31,107,107,120]",1.333393137,2.333303402,1,0,0,1,53,134,54,1,DarkGreen,DarkGreen.jpg,Yellow,Yellow.jpg,,
,,,,,,,,,,,,,,,,,,-3,,,,,,,,,,,,,,,,,,,,,,,,,,,6164280eaf0c4e12bf0a66df,001,2021-12-17_01h07.14.256,jm_natural_scene_simialrity_2-12-2021_version2,2021.2.3,Win32,58.8373735,6164280eaf0c4e12bf0a66df,61bbc5c79a1c66460f44041e,61bbc664bdfa68bcf085fb5f,,,,,,-93.99998373,40.99999157,1,0,0,response7disk,1.5676,-16.6666074,10.33330364,1,0,0,rectangle,-16.6666074,10.33330364,1,0,0,-1,-2,"[96,67,82,100,51,34,31,107,107,120]",-16.6666074,10.33330364,1,0,0,1,54,135,3,1,Red,Red.jpg,DarkGreen,DarkGreen.jpg,,
,,,,,,,,,,,,,,,,,,-3,,,,,,,,,,,,,,,,,,,,,,,,,,,6164280eaf0c4e12bf0a66df,001,2021-12-17_01h07.14.256,jm_natural_scene_simialrity_2-12-2021_version2,2021.2.3,Win32,58.8373735,6164280eaf0c4e12bf0a66df,61bbc5c79a1c66460f44041e,61bbc664bdfa68bcf085fb5f,,,,,,-67.33331627,26.33330412,1,0,0,response7disk,1.2722,5.333393256,2.333303402,1,0,0,rectangle,5.333393256,2.333303402,1,0,0,-1,-2,"[96,67,82,100,51,34,31,107,107,120]",5.333393256,2.333303402,1,0,0,1,55,136,73,1,Pink,Pink.jpg,Turquiose,Turquiose.jpg,,
,,,,,,,,,,,,,,,,,,-4,,,,,,,,,,,,,,,,,,,,,,,,,,,6164280eaf0c4e12bf0a66df,001,2021-12-17_01h07.14.256,jm_natural_scene_simialrity_2-12-2021_version2,2021.2.3,Win32,58.8373735,6164280eaf0c4e12bf0a66df,61bbc5c79a1c66460f44041e,61bbc664bdfa68bcf085fb5f,,,,,,-59.99998271,74.33330555,1,0,0,response7disk,0.8179,4.000019193,-3.000009745,1,0,0,rectangle,4.000019193,-3.000009745,1,0,0,-1,-1,"[96,67,82,100,51,34,31,107,107,120]",4.000019193,-3.000009745,1,0,0,1,56,137,29,1,DarkGreen,DarkGreen.jpg,Purple,Purple.jpg,,
,,,,,,,,,,,,,,,,,,-2,,,,,,,,,,,,,,,,,,,,,,,,,,,6164280eaf0c4e12bf0a66df,001,2021-12-17_01h07.14.256,jm_natural_scene_simialrity_2-12-2021_version2,2021.2.3,Win32,58.8373735,6164280eaf0c4e12bf0a66df,61bbc5c79a1c66460f44041e,61bbc664bdfa68bcf085fb5f,,,,,,-53.99998254,-29.66667721,1,0,0,response5disk,1.0687,-20.66660752,-7.000009865,1,0,0,rectangle,-20.66660752,-7.000009865,1,0,0,-1,2,"[96,67,82,100,51,34,31,107,107,120]",-20.66660752,-7.000009865,1,0,0,1,57,138,69,1,Pink,Pink.jpg,DarkGreen,DarkGreen.jpg,,
,,,,,,,,,,,,,,,,,,4,,,,,,,,,,,,,,,,,,,,,,,,,,,6164280eaf0c4e12bf0a66df,001,2021-12-17_01h07.14.256,jm_natural_scene_simialrity_2-12-2021_version2,2021.2.3,Win32,58.8373735,6164280eaf0c4e12bf0a66df,61bbc5c79a1c66460f44041e,61bbc664bdfa68bcf085fb5f,,,,,,27.33339391,62.33330519,1,0,0,response1disk,1.5743,-5.999981105,8.999990612,1,0,0,rectangle,-5.999981105,8.999990612,1,0,0,-1,3,"[96,67,82,100,51,34,31,107,107,120]",-5.999981105,8.999990612,1,0,0,1,58,139,17,1,LightGreen,LightGreen.jpg,LightGreen,LightGreen.jpg,,
,,,,,,,,,,,,,,,,,,-1,,,,,,,,,,,,,,,,,,,,,,,,,,,6164280eaf0c4e12bf0a66df,001,2021-12-17_01h07.14.256,jm_natural_scene_simialrity_2-12-2021_version2,2021.2.3,Win32,58.8373735,6164280eaf0c4e12bf0a66df,61bbc5c79a1c66460f44041e,61bbc664bdfa68bcf085fb5f,,,,,,-45.9999823,-79.00001201,1,0,0,response5disk,1.0182,4.000019193,12.99999073,1,0,0,rectangle,4.000019193,12.99999073,1,0,0,-1,2,"[96,67,82,100,51,34,31,107,107,120]",4.000019193,12.99999073,1,0,0,1,59,140,59,1,Purple,Purple.jpg,Yellow,Yellow.jpg,,
,,,,,,,,,,,,,,,,,,2,,,,,,,,,,,,,,,,,,,,,,,,,,,6164280eaf0c4e12bf0a66df,001,2021-12-17_01h07.14.256,jm_natural_scene_simialrity_2-12-2021_version2,2021.2.3,Win32,58.8373735,6164280eaf0c4e12bf0a66df,61bbc5c79a1c66460f44041e,61bbc664bdfa68bcf085fb5f,,,,,,115.3333558,-34.33334401,1,0,0,response3disk,1.432,1.90735E-05,-7.000009865,1,0,0,rectangle,1.90735E-05,-7.000009865,1,0,0,-1,-2,"[96,67,82,100,51,34,31,107,107,120]",1.90735E-05,-7.000009865,1,0,0,1,60,141,65,1,Purple,Purple.jpg,LightGreen,LightGreen.jpg,,
,,,,,,,,,,,,,,,,,,-4,,,,,,,,,,,,,,,,,,,,,,,,,,,6164280eaf0c4e12bf0a66df,001,2021-12-17_01h07.14.256,jm_natural_scene_simialrity_2-12-2021_version2,2021.2.3,Win32,58.8373735,6164280eaf0c4e12bf0a66df,61bbc5c79a1c66460f44041e,61bbc664bdfa68bcf085fb5f,,,,,,-55.33331591,104.3333064,1,0,0,response7disk,1.3638,23.33339379,-3.000009745,1,0,0,rectangle,23.33339379,-3.000009745,1,0,0,-1,1,"[96,67,82,100,51,34,31,107,107,120]",23.33339379,-3.000009745,1,0,0,1,61,142,48,1,Turquiose,Turquiose.jpg,Red,Red.jpg,,
,,,,,,,,,,,,,,,,,,-4,,,,,,,,,,,,,,,,,,,,,,,,,,,6164280eaf0c4e12bf0a66df,001,2021-12-17_01h07.14.256,jm_natural_scene_simialrity_2-12-2021_version2,2021.2.3,Win32,58.8373735,6164280eaf0c4e12bf0a66df,61bbc5c79a1c66460f44041e,61bbc664bdfa68bcf085fb5f,,,,,,-30.66660782,110.9999937,1,0,0,response7disk,1.3094,20.00001967,5.66665718,1,0,0,rectangle,20.00001967,5.66665718,1,0,0,-1,1,"[96,67,82,100,51,34,31,107,107,120]",20.00001967,5.66665718,1,0,0,1,62,143,71,1,LightBlue,LightBlue.jpg,Turquiose,Turquiose.jpg,,
,,,,,,,,,,,,,,,,,,-3,,,,,,,,,,,,,,,,,,,,,,,,,,,6164280eaf0c4e12bf0a66df,001,2021-12-17_01h07.14.256,jm_natural_scene_simialrity_2-12-2021_version2,2021.2.3,Win32,58.8373735,6164280eaf0c4e12bf0a66df,61bbc5c79a1c66460f44041e,61bbc664bdfa68bcf085fb5f,,,,,,-50.66660841,28.33330418,1,0,0,response7disk,0.8168,8.000019312,-5.666696837,1,0,0,rectangle,8.000019312,-5.666696837,1,0,0,-1,2,"[96,67,82,100,51,34,31,107,107,120]",8.000019312,-5.666696837,1,0,0,1,63,144,72,1,DarkBlue,DarkBlue.jpg,Turquiose,Turquiose.jpg,,
,,,,,,,,,,,,,,,,,,-2,,,,,,,,,,,,,,,,,,,,,,,,,,,6164280eaf0c4e12bf0a66df,001,2021-12-17_01h07.14.256,jm_natural_scene_simialrity_2-12-2021_version2,2021.2.3,Win32,58.8373735,6164280eaf0c4e12bf0a66df,61bbc5c79a1c66460f44041e,61bbc664bdfa68bcf085fb5f,,,,,,-79.33331662,-45.000011,1,0,0,response5disk,1.5238,0.66668576,-10.3333433,1,0,0,rectangle,0.66668576,-10.3333433,1,0,0,-1,-4,"[96,67,82,100,51,34,31,107,107,120]",0.66668576,-10.3333433,1,0,0,1,64,145,11,1,Yellow,Yellow.jpg,DarkGreen,DarkGreen.jpg,,
,,,,,,,,,,,,,,,,,,-4,,,,,,,,,,,,,,,,,,,,,,,,,,,6164280eaf0c4e12bf0a66df,001,2021-12-17_01h07.14.256,jm_natural_scene_simialrity_2-12-2021_version2,2021.2.3,Win32,58.8373735,6164280eaf0c4e12bf0a66df,61bbc5c79a1c66460f44041e,61bbc664bdfa68bcf085fb5f,,,,,,-35.33331531,116.3333068,1,0,0,response7disk,19.6021,11.33339343,22.99999103,1,0,0,rectangle,11.33339343,22.99999103,1,0,0,-1,-2,"[96,67,82,100,51,34,31,107,107,120]",11.33339343,22.99999103,1,0,0,1,65,146,6,1,Red,Red.jpg,DarkBlue,DarkBlue.jpg,,
,,,,,,,,,,,,,,,,,,-3,,,,,,,,,,,,,,,,,,,,,,,,,,,6164280eaf0c4e12bf0a66df,001,2021-12-17_01h07.14.256,jm_natural_scene_simialrity_2-12-2021_version2,2021.2.3,Win32,58.8373735,6164280eaf0c4e12bf0a66df,61bbc5c79a1c66460f44041e,61bbc664bdfa68bcf085fb5f,,,,,,-77.99998325,32.3333043,1,0,0,response7disk,0.9189,-4.666607042,6.999990553,1,0,0,rectangle,-4.666607042,6.999990553,1,0,0,-1,-4,"[96,67,82,100,51,34,31,107,107,120]",-4.666607042,6.999990553,1,0,0,1,66,147,33,1,Turquiose,Turquiose.jpg,Pink,Pink.jpg,,
,,,,,,,,,,,,,,,,,,2,,,,,,,,,,,,,,,,,,,,,,,,,,,6164280eaf0c4e12bf0a66df,001,2021-12-17_01h07.14.256,jm_natural_scene_simialrity_2-12-2021_version2,2021.2.3,Win32,58.8373735,6164280eaf0c4e12bf0a66df,61bbc5c79a1c66460f44041e,61bbc664bdfa68bcf085fb5f,,,,,,72.66668791,-54.33334461,1,0,0,response3disk,1.2175,2.000019133,-9.666696956,1,0,0,rectangle,2.000019133,-9.666696956,1,0,0,-1,1,"[96,67,82,100,51,34,31,107,107,120]",2.000019133,-9.666696956,1,0,0,1,67,148,77,1,Purple,Purple.jpg,LightBlue,LightBlue.jpg,,
,,,,,,,,,,,,,,,,,,4,,,,,,,,,,,,,,,,,,,,,,,,,,,6164280eaf0c4e12bf0a66df,001,2021-12-17_01h07.14.256,jm_natural_scene_simialrity_2-12-2021_version2,2021.2.3,Win32,58.8373735,6164280eaf0c4e12bf0a66df,61bbc5c79a1c66460f44041e,61bbc664bdfa68bcf085fb5f,,,,,,74.00002128,118.3333069,1,0,0,response1disk,1.3381,4.000019193,14.33330376,1,0,0,rectangle,4.000019193,14.33330376,1,0,0,-1,-1,"[96,67,82,100,51,34,31,107,107,120]",4.000019193,14.33330376,1,0,0,1,68,149,0,1,Red,Red.jpg,Red,Red.jpg,,
,,,,,,,,,,,,,,,,,,-3,,,,,,,,,,,,,,,,,,,,,,,,,,,6164280eaf0c4e12bf0a66df,001,2021-12-17_01h07.14.256,jm_natural_scene_simialrity_2-12-2021_version2,2021.2.3,Win32,58.8373735,6164280eaf0c4e12bf0a66df,61bbc5c79a1c66460f44041e,61bbc664bdfa68bcf085fb5f,,,,,,-98.66660984,35.66665807,1,0,0,response7disk,1.0524,-1.999980986,6.999990553,1,0,0,rectangle,-1.999980986,6.999990553,1,0,0,-1,3,"[96,67,82,100,51,34,31,107,107,120]",-1.999980986,6.999990553,1,0,0,1,69,150,50,1,DarkBlue,DarkBlue.jpg,Red,Red.jpg,,
,,,,,,,,,,,,,,,,,,-2,,,,,,,,,,,,,,,,,,,,,,,,,,,6164280eaf0c4e12bf0a66df,001,2021-12-17_01h07.14.256,jm_natural_scene_simialrity_2-12-2021_version2,2021.2.3,Win32,58.8373735,6164280eaf0c4e12bf0a66df,61bbc5c79a1c66460f44041e,61bbc664bdfa68bcf085fb5f,,,,,,-30.66660782,-23.66667703,1,0,0,response5disk,1.2838,1.90735E-05,6.999990553,1,0,0,rectangle,1.90735E-05,6.999990553,1,0,0,-1,1,"[96,67,82,100,51,34,31,107,107,120]",1.90735E-05,6.999990553,1,0,0,1,70,151,52,1,Purple,Purple.jpg,Red,Red.jpg,,
,,,,,,,,,,,,,,,,,,-2,,,,,,,,,,,,,,,,,,,,,,,,,,,6164280eaf0c4e12bf0a66df,001,2021-12-17_01h07.14.256,jm_natural_scene_simialrity_2-12-2021_version2,2021.2.3,Win32,58.8373735,6164280eaf0c4e12bf0a66df,61bbc5c79a1c66460f44041e,61bbc664bdfa68bcf085fb5f,,,,,,-93.99998373,-41.00001088,1,0,0,response5disk,1.0453,-17.33331478,20.33330394,1,0,0,rectangle,-17.33331478,20.33330394,1,0,0,-4,-2,"[96,67,82,100,51,34,31,107,107,120]",-17.33331478,20.33330394,1,0,0,1,71,152,40,1,DarkBlue,DarkBlue.jpg,Pink,Pink.jpg,,
,,,,,,,,,,,,,,,,,,-3,,,,,,,,,,,,,,,,,,,,,,,,,,,6164280eaf0c4e12bf0a66df,001,2021-12-17_01h07.14.256,jm_natural_scene_simialrity_2-12-2021_version2,2021.2.3,Win32,58.8373735,6164280eaf0c4e12bf0a66df,61bbc5c79a1c66460f44041e,61bbc664bdfa68bcf085fb5f,,,,,,-89.33331692,53.66665861,1,0,0,response7disk,13.1601,-8.666607161,24.99999109,1,0,0,rectangle,-8.666607161,24.99999109,1,0,0,-4,-1,"[96,67,82,100,51,34,31,107,107,120]",-8.666607161,24.99999109,1,0,0,1,72,153,61,1,Turquiose,Turquiose.jpg,LightGreen,LightGreen.jpg,,
,,,,,,,,,,,,,,,,,,3,,,,,,,,,,,,,,,,,,,,,,,,,,,6164280eaf0c4e12bf0a66df,001,2021-12-17_01h07.14.256,jm_natural_scene_simialrity_2-12-2021_version2,2021.2.3,Win32,58.8373735,6164280eaf0c4e12bf0a66df,61bbc5c79a1c66460f44041e,61bbc664bdfa68bcf085fb5f,,,,,,128.0000229,55.66665867,1,0,0,response1disk,14.1629,6.666685939,2.333303402,1,0,0,rectangle,6.666685939,2.333303402,1,0,0,-4,1,"[96,67,82,100,51,34,31,107,107,120]",6.666685939,2.333303402,1,0,0,1,73,154,62,1,LightBlue,LightBlue.jpg,LightGreen,LightGreen.jpg,,
,,,,,,,,,,,,,,,,,,-1,,,,,,,,,,,,,,,,,,,,,,,,,,,6164280eaf0c4e12bf0a66df,001,2021-12-17_01h07.14.256,jm_natural_scene_simialrity_2-12-2021_version2,2021.2.3,Win32,58.8373735,6164280eaf0c4e12bf0a66df,61bbc5c79a1c66460f44041e,61bbc664bdfa68bcf085fb5f,,,,,,-67.99998295,-76.33334526,1,0,0,response5disk,1.4999,-23.99998164,10.99999067,1,0,0,rectangle,-23.99998164,10.99999067,1,0,0,-4,1,"[96,67,82,100,51,34,31,107,107,120]",-23.99998164,10.99999067,1,0,0,1,74,155,63,1,DarkBlue,DarkBlue.jpg,LightGreen,LightGreen.jpg,,
,,,,,,,,,,,,,,,,,,1,,,,,,,,,,,,,,,,,,,,,,,,,,,6164280eaf0c4e12bf0a66df,001,2021-12-17_01h07.14.256,jm_natural_scene_simialrity_2-12-2021_version2,2021.2.3,Win32,58.8373735,6164280eaf0c4e12bf0a66df,61bbc5c79a1c66460f44041e,61bbc664bdfa68bcf085fb5f,,,,,,38.00002021,-102.333346,1,0,0,response3disk,1.0834,-3.999981046,2.333303402,1,0,0,rectangle,-3.999981046,2.333303402,1,0,0,-4,2,"[96,67,82,100,51,34,31,107,107,120]",-3.999981046,2.333303402,1,0,0,1,75,156,8,1,Red,Red.jpg,Purple,Purple.jpg,,
,,,,,,,,,,,,,,,,,,2,,,,,,,,,,,,,,,,,,,,,,,,,,,6164280eaf0c4e12bf0a66df,001,2021-12-17_01h07.14.256,jm_natural_scene_simialrity_2-12-2021_version2,2021.2.3,Win32,58.8373735,6164280eaf0c4e12bf0a66df,61bbc5c79a1c66460f44041e,61bbc664bdfa68bcf085fb5f,,,,,,80.00002146,-31.00001058,1,0,0,response3disk,1.3501,24.66668648,-5.000009805,1,0,0,rectangle,24.66668648,-5.000009805,1,0,0,-4,-2,"[96,67,82,100,51,34,31,107,107,120]",24.66668648,-5.000009805,1,0,0,1,76,157,23,1,LightGreen,LightGreen.jpg,Purple,Purple.jpg,,
,,,,,,,,,,,,,,,,,,-1,,,,,,,,,,,,,,,,,,,,,,,,,,,6164280eaf0c4e12bf0a66df,001,2021-12-17_01h07.14.256,jm_natural_scene_simialrity_2-12-2021_version2,2021.2.3,Win32,58.8373735,6164280eaf0c4e12bf0a66df,61bbc5c79a1c66460f44041e,61bbc664bdfa68bcf085fb5f,,,,,,-52.66660847,-76.33334526,1,0,0,response5disk,1.2678,-5.333314419,8.999990612,1,0,0,rectangle,-5.333314419,8.999990612,1,0,0,-4,-2,"[96,67,82,100,51,34,31,107,107,120]",-5.333314419,8.999990612,1,0,0,1,77,158,75,1,DarkBlue,DarkBlue.jpg,LightBlue,LightBlue.jpg,,
,,,,,,,,,,,,,,,,,,4,,,,,,,,,,,,,,,,,,,,,,,,,,,6164280eaf0c4e12bf0a66df,001,2021-12-17_01h07.14.256,jm_natural_scene_simialrity_2-12-2021_version2,2021.2.3,Win32,58.8373735,6164280eaf0c4e12bf0a66df,61bbc5c79a1c66460f44041e,61bbc664bdfa68bcf085fb5f,,,,,,64.66668767,112.9999937,1,0,0,response1disk,0.9872,19.33339367,-1.000009686,1,0,0,rectangle,19.33339367,-1.000009686,1,0,0,-4,-2,"[96,67,82,100,51,34,31,107,107,120]",19.33339367,-1.000009686,1,0,0,1,78,159,60,1,DarkGreen,DarkGreen.jpg,LightGreen,LightGreen.jpg,,
,,,,,,,,,,,,,,,,,,2,,,,,,,,,,,,,,,,,,,,,,,,,,,6164280eaf0c4e12bf0a66df,001,2021-12-17_01h07.14.256,jm_natural_scene_simialrity_2-12-2021_version2,2021.2.3,Win32,58.8373735,6164280eaf0c4e12bf0a66df,61bbc5c79a1c66460f44041e,61bbc664bdfa68bcf085fb5f,,,,,,94.00002187,-37.00001076,1,0,0,response3disk,1.2524,-18.66660746,-1.666696717,1,0,0,rectangle,-18.66660746,-1.666696717,1,0,0,-4,-2,"[96,67,82,100,51,34,31,107,107,120]",-18.66660746,-1.666696717,1,0,0,1,79,160,7,1,Red,Red.jpg,Pink,Pink.jpg,,
,,,,,,,,,,,,,,,,,,1,,,,,,,,,,,,,,,,,,,,,,,,,,,6164280eaf0c4e12bf0a66df,001,2021-12-17_01h07.14.256,jm_natural_scene_simialrity_2-12-2021_version2,2021.2.3,Win32,58.8373735,6164280eaf0c4e12bf0a66df,61bbc5c79a1c66460f44041e,61bbc664bdfa68bcf085fb5f,,,,,,20.66668636,-58.33334473,1,0,0,response3disk,0.9812,-19.99998152,-11.66669702,1,0,0,rectangle,-19.99998152,-11.66669702,1,0,0,-4,-4,"[96,67,82,100,51,34,31,107,107,120]",-19.99998152,-11.66669702,1,0,0,1,80,161,16,1,Yellow,Yellow.jpg,Purple,Purple.jpg,,
