key_resp.keys,key_resp.rt,key_resp_16.keys,key_resp_16.rt,key_resp_2.keys,key_resp_2.rt,key_resp_3.keys,key_resp_3.rt,key_resp_19.keys,key_resp_19.rt,key_resp_10.keys,key_resp_10.rt,mouse_prac.x,mouse_prac.y,mouse_prac.leftButton,mouse_prac.midButton,mouse_prac.rightButton,mouse_prac.clicked_name,similarity,mouse_10.x,mouse_10.y,mouse_10.leftButton,mouse_10.midButton,mouse_10.rightButton,mouse_10.clicked_name,mouse_catch_prac.x,mouse_catch_prac.y,mouse_catch_prac.leftButton,mouse_catch_prac.midButton,mouse_catch_prac.rightButton,catchnumberprac,mouse_6.x,mouse_6.y,mouse_6.leftButton,mouse_6.midButton,mouse_6.rightButton,during_prac.thisRepN,during_prac.thisTrialN,during_prac.thisN,during_prac.thisIndex,during_prac.ran,trailimage1,trial1adress,trailimage2,trial2adress,participant,session,date,expName,psychopyVersion,OS,frameRate,PROLIFIC_PID,STUDY_ID,SESSION_ID,mouse_catch_prac.clicked_name,catchprac,mouse_6.clicked_name,key_resp_22.keys,key_resp_22.rt,mouse.x,mouse.y,mouse.leftButton,mouse.midButton,mouse.rightButton,mouse.clicked_name,response_time,mouse_2.x,mouse_2.y,mouse_2.leftButton,mouse_2.midButton,mouse_2.rightButton,mouse_2.clicked_name,mouse_3.x,mouse_3.y,mouse_3.leftButton,mouse_3.midButton,mouse_3.rightButton,catchresponse,catchnumber,catchtrialorder,mouse_11.x,mouse_11.y,mouse_11.leftButton,mouse_11.midButton,mouse_11.rightButton,trials_2.thisRepN,trials_2.thisTrialN,trials_2.thisN,trials_2.thisIndex,trials_2.ran,image1,image1adress,image2,image2adress,mouse_3.clicked_name,mouse_11.clicked_name
space,2.4762,space,18.287,space,6.5626,space,26.5186,space,28.5142,space,9.5615,-50.66660841,99.33330522,1,0,0,response7disk_5,-4,-0.666606923,-2.666677475,1,0,0,rectangle_8,-0.666606923,-2.666677475,1,0,0,-4,-0.666606923,-2.666677475,1,0,0,0,0,0,4,1,trail2,trail2.jpg,trail3,trail3.jpg,6166012a41328d4db80950d0,001,2021-12-16_23h05.18.046,jm_natural_scene_simialrity_2-12-2021_version2,2021.2.3,Win32,60.03121623,6166012a41328d4db80950d0,61bbc5c79a1c66460f44041e,61bbc611b6193492b9382bfc,,,,,,,,,,,,,,,,,,,,,,,,,,,,,,,,,,,,,,,,,,
,,,,,,,,,,,,52.66668731,92.6666587,1,0,0,response1disk_5,4,5.333393256,-0.666677415,1,0,0,rectangle_8,-61.99998277,127.9999931,1,0,0,-4,-5.333314419,6.666656137,1,0,0,0,1,1,3,1,trail2,trail2.jpg,trail2,trail2.jpg,6166012a41328d4db80950d0,001,2021-12-16_23h05.18.046,jm_natural_scene_simialrity_2-12-2021_version2,2021.2.3,Win32,60.03121623,6166012a41328d4db80950d0,61bbc5c79a1c66460f44041e,61bbc611b6193492b9382bfc,response7disk_7,-4,rectangle_4,,,,,,,,,,,,,,,,,,,,,,,,,,,,,,,,,,,,,,,
,,,,,,,,,,,,-64.66660883,105.9999924,1,0,0,response7disk_5,-4,-4.666607042,-8.000010967,1,0,0,rectangle_8,-4.666607042,-8.000010967,1,0,0,-4,-4.666607042,-8.000010967,1,0,0,0,2,2,1,1,trail1,trail1.jpg,trail2,trail2.jpg,6166012a41328d4db80950d0,001,2021-12-16_23h05.18.046,jm_natural_scene_simialrity_2-12-2021_version2,2021.2.3,Win32,60.03121623,6166012a41328d4db80950d0,61bbc5c79a1c66460f44041e,61bbc611b6193492b9382bfc,,,,,,,,,,,,,,,,,,,,,,,,,,,,,,,,,,,,,,,,,,
,,,,,,,,,,,,52.00002062,93.99999207,1,0,0,response1disk_5,4,-0.666606923,-1.333344102,1,0,0,rectangle_8,-0.666606923,-1.333344102,1,0,0,-4,-0.666606923,-1.333344102,1,0,0,0,3,3,5,1,trail3,trail3.jpg,trail3,trail3.jpg,6166012a41328d4db80950d0,001,2021-12-16_23h05.18.046,jm_natural_scene_simialrity_2-12-2021_version2,2021.2.3,Win32,60.03121623,6166012a41328d4db80950d0,61bbc5c79a1c66460f44041e,61bbc611b6193492b9382bfc,,,,,,,,,,,,,,,,,,,,,,,,,,,,,,,,,,,,,,,,,,
,,,,,,,,,,,,44.66668707,97.33330516,1,0,0,response1disk_5,4,7.333393315,1.333322644,1,0,0,rectangle_8,7.333393315,1.333322644,1,0,0,-4,7.333393315,1.333322644,1,0,0,0,4,4,0,1,trail1,trail1.jpg,trail1,trail1.jpg,6166012a41328d4db80950d0,001,2021-12-16_23h05.18.046,jm_natural_scene_simialrity_2-12-2021_version2,2021.2.3,Win32,60.03121623,6166012a41328d4db80950d0,61bbc5c79a1c66460f44041e,61bbc611b6193492b9382bfc,,,,,,,,,,,,,,,,,,,,,,,,,,,,,,,,,,,,,,,,,,
,,,,,,,,,,,,-72.66660907,-39.33334523,1,0,0,response5disk_5,-2,-6.666607102,3.333322704,1,0,0,rectangle_8,-6.666607102,3.333322704,1,0,0,-4,-6.666607102,3.333322704,1,0,0,0,5,5,2,1,trail1,trail1.jpg,trail3,trail3.jpg,6166012a41328d4db80950d0,001,2021-12-16_23h05.18.046,jm_natural_scene_simialrity_2-12-2021_version2,2021.2.3,Win32,60.03121623,6166012a41328d4db80950d0,61bbc5c79a1c66460f44041e,61bbc611b6193492b9382bfc,,,,,,,,,,,,,,,,,,,,,,,,,,,,,,,,,,,,,,,,,,
,,,,,,,,,,,,,,,,,,-4,,,,,,,,,,,,,,,,,,,,,,,,,,,6166012a41328d4db80950d0,001,2021-12-16_23h05.18.046,jm_natural_scene_simialrity_2-12-2021_version2,2021.2.3,Win32,60.03121623,6166012a41328d4db80950d0,61bbc5c79a1c66460f44041e,61bbc611b6193492b9382bfc,,,,space,2.5007,-73.99998313,118.6666595,1,0,0,response7disk,1.3331,-1.3333143,7.333322823,1,0,0,rectangle,-1.3333143,7.333322823,1,0,0,,2,"[21,128,93,38,149,94,113,75,30,25]",-1.3333143,7.333322823,1,0,0,0,0,0,61,1,Turquiose,Turquiose.jpg,LightGreen,LightGreen.jpg,,
,,,,,,,,,,,,,,,,,,-4,,,,,,,,,,,,,,,,,,,,,,,,,,,6166012a41328d4db80950d0,001,2021-12-16_23h05.18.046,jm_natural_scene_simialrity_2-12-2021_version2,2021.2.3,Win32,60.03121623,6166012a41328d4db80950d0,61bbc5c79a1c66460f44041e,61bbc611b6193492b9382bfc,,,,,,-45.9999823,87.33330486,1,0,0,response7disk,0.9827,-1.999980986,-5.333344221,1,0,0,rectangle,-1.999980986,-5.333344221,1,0,0,,3,"[21,128,93,38,149,94,113,75,30,25]",-1.999980986,-5.333344221,1,0,0,0,1,1,54,1,DarkGreen,DarkGreen.jpg,Yellow,Yellow.jpg,,
,,,,,,,,,,,,,,,,,,-4,,,,,,,,,,,,,,,,,,,,,,,,,,,6166012a41328d4db80950d0,001,2021-12-16_23h05.18.046,jm_natural_scene_simialrity_2-12-2021_version2,2021.2.3,Win32,60.03121623,6166012a41328d4db80950d0,61bbc5c79a1c66460f44041e,61bbc611b6193492b9382bfc,,,,,,-49.99998242,91.33330498,1,0,0,response7disk,1.1504,2.000019133,-1.333344102,1,0,0,rectangle,2.000019133,-1.333344102,1,0,0,,1,"[21,128,93,38,149,94,113,75,30,25]",2.000019133,-1.333344102,1,0,0,0,2,2,16,1,Yellow,Yellow.jpg,Purple,Purple.jpg,,
,,,,,,,,,,,,,,,,,,1,,,,,,,,,,,,,,,,,,,,,,,,,,,6166012a41328d4db80950d0,001,2021-12-16_23h05.18.046,jm_natural_scene_simialrity_2-12-2021_version2,2021.2.3,Win32,60.03121623,6166012a41328d4db80950d0,61bbc5c79a1c66460f44041e,61bbc611b6193492b9382bfc,,,,,,32.66668671,-94.00001353,1,0,0,response3disk,1.6132,5.333393256,3.333322704,1,0,0,rectangle,5.333393256,3.333322704,1,0,0,,-1,"[21,128,93,38,149,94,113,75,30,25]",5.333393256,3.333322704,1,0,0,0,3,3,77,1,Purple,Purple.jpg,LightBlue,LightBlue.jpg,,
,,,,,,,,,,,,,,,,,,-4,,,,,,,,,,,,,,,,,,,,,,,,,,,6166012a41328d4db80950d0,001,2021-12-16_23h05.18.046,jm_natural_scene_simialrity_2-12-2021_version2,2021.2.3,Win32,60.03121623,6166012a41328d4db80950d0,61bbc5c79a1c66460f44041e,61bbc611b6193492b9382bfc,,,,,,-57.99998266,93.33330504,1,0,0,response7disk,0.9811,5.333393256,3.333322704,1,0,0,rectangle,5.333393256,3.333322704,1,0,0,,-3,"[21,128,93,38,149,94,113,75,30,25]",5.333393256,3.333322704,1,0,0,0,4,4,26,1,DarkGreen,DarkGreen.jpg,LightBlue,LightBlue.jpg,,
,,,,,,,,,,,,,,,,,,-4,,,,,,,,,,,,,,,,,,,,,,,,,,,6166012a41328d4db80950d0,001,2021-12-16_23h05.18.046,jm_natural_scene_simialrity_2-12-2021_version2,2021.2.3,Win32,60.03121623,6166012a41328d4db80950d0,61bbc5c79a1c66460f44041e,61bbc611b6193492b9382bfc,,,,,,-23.33331496,91.33330498,1,0,0,response7disk,1.0355,2.66668582,1.999989331,1,0,0,rectangle,2.66668582,1.999989331,1,0,0,,-3,"[21,128,93,38,149,94,113,75,30,25]",2.66668582,1.999989331,1,0,0,0,5,5,69,1,Pink,Pink.jpg,DarkGreen,DarkGreen.jpg,,
,,,,,,,,,,,,,,,,,,-4,,,,,,,,,,,,,,,,,,,,,,,,,,,6166012a41328d4db80950d0,001,2021-12-16_23h05.18.046,jm_natural_scene_simialrity_2-12-2021_version2,2021.2.3,Win32,60.03121623,6166012a41328d4db80950d0,61bbc5c79a1c66460f44041e,61bbc611b6193492b9382bfc,,,,,,-45.33331561,91.33330498,1,0,0,response7disk,0.8034,2.000019133,-8.000010967,1,0,0,rectangle,2.000019133,-8.000010967,1,0,0,,2,"[21,128,93,38,149,94,113,75,30,25]",2.000019133,-8.000010967,1,0,0,0,6,6,5,1,Red,Red.jpg,LightBlue,LightBlue.jpg,,
,,,,,,,,,,,,,,,,,,-4,,,,,,,,,,,,,,,,,,,,,,,,,,,6166012a41328d4db80950d0,001,2021-12-16_23h05.18.046,jm_natural_scene_simialrity_2-12-2021_version2,2021.2.3,Win32,60.03121623,6166012a41328d4db80950d0,61bbc5c79a1c66460f44041e,61bbc611b6193492b9382bfc,,,,,,-24.66660764,89.33330492,1,0,0,response7disk,0.8644,1.90735E-05,-12.66667777,1,0,0,rectangle,1.90735E-05,-12.66667777,1,0,0,,-3,"[21,128,93,38,149,94,113,75,30,25]",1.90735E-05,-12.66667777,1,0,0,0,7,7,43,1,Pink,Pink.jpg,Purple,Purple.jpg,,
,,,,,,,,,,,,,,,,,,4,,,,,,,,,,,,,,,,,,,,,,,,,,,6166012a41328d4db80950d0,001,2021-12-16_23h05.18.046,jm_natural_scene_simialrity_2-12-2021_version2,2021.2.3,Win32,60.03121623,6166012a41328d4db80950d0,61bbc5c79a1c66460f44041e,61bbc611b6193492b9382bfc,,,,,,69.33335447,129.3333265,1,0,0,response1disk,0.9702,-1.3333143,-12.00001109,1,0,0,rectangle,-1.3333143,-12.00001109,1,0,0,,-1,"[21,128,93,38,149,94,113,75,30,25]",-1.3333143,-12.00001109,1,0,0,0,8,8,0,1,Red,Red.jpg,Red,Red.jpg,,
,,,,,,,,,,,,,,,,,,-4,,,,,,,,,,,,,,,,,,,,,,,,,,,6166012a41328d4db80950d0,001,2021-12-16_23h05.18.046,jm_natural_scene_simialrity_2-12-2021_version2,2021.2.3,Win32,60.03121623,6166012a41328d4db80950d0,61bbc5c79a1c66460f44041e,61bbc611b6193492b9382bfc,,,,,,-36.666608,64.66665787,1,0,0,response7disk,0.8164,-1.999980986,-0.666677415,1,0,0,rectangle,-1.999980986,-0.666677415,1,0,0,,2,"[21,128,93,38,149,94,113,75,30,25]",-1.999980986,-0.666677415,1,0,0,0,9,9,28,1,DarkGreen,DarkGreen.jpg,Pink,Pink.jpg,,
,,,,,,,,,,,,,,,,,,-2,,,,,,,,,,,,,,,,,,,,,,,,,,,6166012a41328d4db80950d0,001,2021-12-16_23h05.18.046,jm_natural_scene_simialrity_2-12-2021_version2,2021.2.3,Win32,60.03121623,6166012a41328d4db80950d0,61bbc5c79a1c66460f44041e,61bbc611b6193492b9382bfc,,,,,,-93.33331704,-44.00001204,1,0,0,response5disk,1.4699,1.333393137,-3.333344162,1,0,0,rectangle,1.333393137,-3.333344162,1,0,0,,1,"[21,128,93,38,149,94,113,75,30,25]",1.333393137,-3.333344162,1,0,0,0,10,10,32,1,Turquiose,Turquiose.jpg,DarkBlue,DarkBlue.jpg,,
,,,,,,,,,,,,,,,,,,-4,,,,,,,,,,,,,,,,,,,,,,,,,,,6166012a41328d4db80950d0,001,2021-12-16_23h05.18.046,jm_natural_scene_simialrity_2-12-2021_version2,2021.2.3,Win32,60.03121623,6166012a41328d4db80950d0,61bbc5c79a1c66460f44041e,61bbc611b6193492b9382bfc,,,,,,-29.99998182,77.9999916,1,0,0,response7disk,1.1677,-9.333314538,-12.00001109,1,0,0,rectangle,-9.333314538,-12.00001109,1,0,0,,-4,"[21,128,93,38,149,94,113,75,30,25]",-9.333314538,-12.00001109,1,0,0,0,11,11,33,1,Turquiose,Turquiose.jpg,Pink,Pink.jpg,,
,,,,,,,,,,,,,,,,,,-2,,,,,,,,,,,,,,,,,,,,,,,,,,,6166012a41328d4db80950d0,001,2021-12-16_23h05.18.046,jm_natural_scene_simialrity_2-12-2021_version2,2021.2.3,Win32,60.03121623,6166012a41328d4db80950d0,61bbc5c79a1c66460f44041e,61bbc611b6193492b9382bfc,,,,,,-95.3333171,-32.00001168,1,0,0,response5disk,2.1336,-9.999981225,0.666655958,1,0,0,rectangle,-9.999981225,0.666655958,1,0,0,,1,"[21,128,93,38,149,94,113,75,30,25]",-9.999981225,0.666655958,1,0,0,0,12,12,52,1,Purple,Purple.jpg,Red,Red.jpg,,
,,,,,,,,,,,,,,,,,,-4,,,,,,,,,,,,,,,,,,,,,,,,,,,6166012a41328d4db80950d0,001,2021-12-16_23h05.18.046,jm_natural_scene_simialrity_2-12-2021_version2,2021.2.3,Win32,60.03121623,6166012a41328d4db80950d0,61bbc5c79a1c66460f44041e,61bbc611b6193492b9382bfc,,,,,,-32.66660788,79.99999166,1,0,0,response7disk,0.8036,-9.333314538,7.99998951,1,0,0,rectangle,-9.333314538,7.99998951,1,0,0,,3,"[21,128,93,38,149,94,113,75,30,25]",-9.333314538,7.99998951,1,0,0,0,13,13,76,1,Pink,Pink.jpg,LightBlue,LightBlue.jpg,,
,,,,,,,,,,,,,,,,,,-1,,,,,,,,,,,,,,,,,,,,,,,,,,,6166012a41328d4db80950d0,001,2021-12-16_23h05.18.046,jm_natural_scene_simialrity_2-12-2021_version2,2021.2.3,Win32,60.03121623,6166012a41328d4db80950d0,61bbc5c79a1c66460f44041e,61bbc611b6193492b9382bfc,,,,,,-59.99998271,-94.66668022,1,0,0,response5disk,2.3184,-0.666606923,0.666655958,1,0,0,rectangle,-0.666606923,0.666655958,1,0,0,,2,"[21,128,93,38,149,94,113,75,30,25]",-0.666606923,0.666655958,1,0,0,0,14,14,71,1,LightBlue,LightBlue.jpg,Turquiose,Turquiose.jpg,,
,,,,,,,,,,,,,,,,,,-4,,,,,,,,,,,,,,,,,,,,,,,,,,,6166012a41328d4db80950d0,001,2021-12-16_23h05.18.046,jm_natural_scene_simialrity_2-12-2021_version2,2021.2.3,Win32,60.03121623,6166012a41328d4db80950d0,61bbc5c79a1c66460f44041e,61bbc611b6193492b9382bfc,,,,,,-45.33331561,102.666659,1,0,0,response7disk,1.3311,0.66668576,-8.666677654,1,0,0,rectangle,0.66668576,-8.666677654,1,0,0,,3,"[21,128,93,38,149,94,113,75,30,25]",0.66668576,-8.666677654,1,0,0,0,15,15,59,1,Purple,Purple.jpg,Yellow,Yellow.jpg,,
,,,,,,,,,,,,,,,,,,4,,,,,,,,,,,,,,,,,,,,,,,,,,,6166012a41328d4db80950d0,001,2021-12-16_23h05.18.046,jm_natural_scene_simialrity_2-12-2021_version2,2021.2.3,Win32,60.03121623,6166012a41328d4db80950d0,61bbc5c79a1c66460f44041e,61bbc611b6193492b9382bfc,,,,,,40.66668695,83.33330474,1,0,0,response1disk,0.9336,-3.333314359,-9.33334434,1,0,0,rectangle,-3.333314359,-9.33334434,1,0,0,,-1,"[21,128,93,38,149,94,113,75,30,25]",-3.333314359,-9.33334434,1,0,0,0,16,16,24,1,DarkGreen,DarkGreen.jpg,DarkGreen,DarkGreen.jpg,,
,,,,,,,,,,,,,,,,,,1,,,,,,,,,,,,,,,,,,,,,,,,,,,6166012a41328d4db80950d0,001,2021-12-16_23h05.18.046,jm_natural_scene_simialrity_2-12-2021_version2,2021.2.3,Win32,60.03121623,6166012a41328d4db80950d0,61bbc5c79a1c66460f44041e,61bbc611b6193492b9382bfc,,,,,,67.33335441,-93.33334684,1,0,0,response3disk,2.1984,-8.666607161,-2.000010788,1,0,0,rectangle,-8.666607161,-2.000010788,1,0,0,,-1,"[21,128,93,38,149,94,113,75,30,25]",-8.666607161,-2.000010788,1,0,0,0,17,17,38,1,LightBlue,LightBlue.jpg,Purple,Purple.jpg,,
,,,,,,,,,,,,,,,,,,-4,,,,,,,,,,,,,,,,,,,,,,,,,,,6166012a41328d4db80950d0,001,2021-12-16_23h05.18.046,jm_natural_scene_simialrity_2-12-2021_version2,2021.2.3,Win32,60.03121623,6166012a41328d4db80950d0,61bbc5c79a1c66460f44041e,61bbc611b6193492b9382bfc,,,,,,-28.66660776,51.99999082,1,0,0,response7disk,0.8199,-1.999980986,0.666655958,1,0,0,rectangle,-1.999980986,0.666655958,1,0,0,,-1,"[21,128,93,38,149,94,113,75,30,25]",-1.999980986,0.666655958,1,0,0,0,18,18,55,1,Turquiose,Turquiose.jpg,Yellow,Yellow.jpg,,
,,,,,,,,,,,,,,,,,,-4,,,,,,,,,,,,,,,,,,,,,,,,,,,6166012a41328d4db80950d0,001,2021-12-16_23h05.18.046,jm_natural_scene_simialrity_2-12-2021_version2,2021.2.3,Win32,60.03121623,6166012a41328d4db80950d0,61bbc5c79a1c66460f44041e,61bbc611b6193492b9382bfc,,,,,,-30.66660782,73.33330444,1,0,0,response7disk,0.8668,-0.666606923,1.999989331,1,0,0,rectangle,-0.666606923,1.999989331,1,0,0,,2,"[21,128,93,38,149,94,113,75,30,25]",-0.666606923,1.999989331,1,0,0,0,19,19,64,1,Pink,Pink.jpg,LightGreen,LightGreen.jpg,,
,,,,,,,,,,,,,,,,,,-4,,,,,,,,,,,,,,,,,,,,,,,,,,,6166012a41328d4db80950d0,001,2021-12-16_23h05.18.046,jm_natural_scene_simialrity_2-12-2021_version2,2021.2.3,Win32,60.03121623,6166012a41328d4db80950d0,61bbc5c79a1c66460f44041e,61bbc611b6193492b9382bfc,,,,,,-51.99998248,71.99999142,1,0,0,response7disk,0.8987,0.66668576,1.999989331,1,0,0,rectangle,-99.33331722,56.66665763,1,0,0,-3,-3,"[21,128,93,38,149,94,113,75,30,25]",4.666685879,-2.666677475,1,0,0,0,20,20,8,1,Red,Red.jpg,Purple,Purple.jpg,response7disk_3,rectangle
,,,,,,,,,,,,,,,,,,2,,,,,,,,,,,,,,,,,,,,,,,,,,,6166012a41328d4db80950d0,001,2021-12-16_23h05.18.046,jm_natural_scene_simialrity_2-12-2021_version2,2021.2.3,Win32,60.03121623,6166012a41328d4db80950d0,61bbc5c79a1c66460f44041e,61bbc611b6193492b9382bfc,,,,,,66.00002104,-53.33334565,1,0,0,response3disk,3.9157,-5.333314419,1.333322644,1,0,0,rectangle,-5.333314419,1.333322644,1,0,0,-3,-2,"[21,128,93,38,149,94,113,75,30,25]",-5.333314419,1.333322644,1,0,0,0,21,21,36,1,LightBlue,LightBlue.jpg,DarkBlue,DarkBlue.jpg,,
,,,,,,,,,,,,,,,,,,3,,,,,,,,,,,,,,,,,,,,,,,,,,,6166012a41328d4db80950d0,001,2021-12-16_23h05.18.046,jm_natural_scene_simialrity_2-12-2021_version2,2021.2.3,Win32,60.03121623,6166012a41328d4db80950d0,61bbc5c79a1c66460f44041e,61bbc611b6193492b9382bfc,,,,,,94.00002187,49.99999076,1,0,0,response1disk,1.4502,-2.666606983,-1.333344102,1,0,0,rectangle,-2.666606983,-1.333344102,1,0,0,-3,-2,"[21,128,93,38,149,94,113,75,30,25]",-2.666606983,-1.333344102,1,0,0,0,22,22,60,1,DarkGreen,DarkGreen.jpg,LightGreen,LightGreen.jpg,,
,,,,,,,,,,,,,,,,,,-3,,,,,,,,,,,,,,,,,,,,,,,,,,,6166012a41328d4db80950d0,001,2021-12-16_23h05.18.046,jm_natural_scene_simialrity_2-12-2021_version2,2021.2.3,Win32,60.03121623,6166012a41328d4db80950d0,61bbc5c79a1c66460f44041e,61bbc611b6193492b9382bfc,,,,,,-72.66660907,49.33330373,1,0,0,response7disk,2.4663,8.666685998,-0.666677415,1,0,0,rectangle,8.666685998,-0.666677415,1,0,0,-3,-1,"[21,128,93,38,149,94,113,75,30,25]",8.666685998,-0.666677415,1,0,0,0,23,23,29,1,DarkGreen,DarkGreen.jpg,Purple,Purple.jpg,,
,,,,,,,,,,,,,,,,,,3,,,,,,,,,,,,,,,,,,,,,,,,,,,6166012a41328d4db80950d0,001,2021-12-16_23h05.18.046,jm_natural_scene_simialrity_2-12-2021_version2,2021.2.3,Win32,60.03121623,6166012a41328d4db80950d0,61bbc5c79a1c66460f44041e,61bbc611b6193492b9382bfc,,,,,,105.3333555,53.99999088,1,0,0,response1disk,1.4,4.666685879,-2.000010788,1,0,0,rectangle,-101.999984,49.99999076,1,0,0,-3,-3,"[21,128,93,38,149,94,113,75,30,25]",2.66668582,-1.07288E-05,1,0,0,0,24,24,15,1,Yellow,Yellow.jpg,Pink,Pink.jpg,response7disk_3,rectangle
,,,,,,,,,,,,,,,,,,-1,,,,,,,,,,,,,,,,,,,,,,,,,,,6166012a41328d4db80950d0,001,2021-12-16_23h05.18.046,jm_natural_scene_simialrity_2-12-2021_version2,2021.2.3,Win32,60.03121623,6166012a41328d4db80950d0,61bbc5c79a1c66460f44041e,61bbc611b6193492b9382bfc,,,,,,-27.33331507,-94.00001353,1,0,0,response5disk,1.9504,3.333393196,5.99998945,1,0,0,rectangle,3.333393196,5.99998945,1,0,0,-3,-4,"[21,128,93,38,149,94,113,75,30,25]",3.333393196,5.99998945,1,0,0,0,25,25,74,1,Purple,Purple.jpg,Turquiose,Turquiose.jpg,,
,,,,,,,,,,,,,,,,,,4,,,,,,,,,,,,,,,,,,,,,,,,,,,6166012a41328d4db80950d0,001,2021-12-16_23h05.18.046,jm_natural_scene_simialrity_2-12-2021_version2,2021.2.3,Win32,60.03121623,6166012a41328d4db80950d0,61bbc5c79a1c66460f44041e,61bbc611b6193492b9382bfc,,,,,,46.00002044,104.6666591,1,0,0,response1disk,0.8005,-8.666607161,-4.666677535,1,0,0,rectangle,-8.666607161,-4.666677535,1,0,0,-3,-4,"[21,128,93,38,149,94,113,75,30,25]",-8.666607161,-4.666677535,1,0,0,0,26,26,44,1,Purple,Purple.jpg,Purple,Purple.jpg,,
,,,,,,,,,,,,,,,,,,-4,,,,,,,,,,,,,,,,,,,,,,,,,,,6166012a41328d4db80950d0,001,2021-12-16_23h05.18.046,jm_natural_scene_simialrity_2-12-2021_version2,2021.2.3,Win32,60.03121623,6166012a41328d4db80950d0,61bbc5c79a1c66460f44041e,61bbc611b6193492b9382bfc,,,,,,-35.33331531,63.33330415,1,0,0,response7disk,1.0169,0.66668576,-6.666677594,1,0,0,rectangle,0.66668576,-6.666677594,1,0,0,-3,3,"[21,128,93,38,149,94,113,75,30,25]",0.66668576,-6.666677594,1,0,0,0,27,27,37,1,LightBlue,LightBlue.jpg,Pink,Pink.jpg,,
,,,,,,,,,,,,,,,,,,-1,,,,,,,,,,,,,,,,,,,,,,,,,,,6166012a41328d4db80950d0,001,2021-12-16_23h05.18.046,jm_natural_scene_simialrity_2-12-2021_version2,2021.2.3,Win32,60.03121623,6166012a41328d4db80950d0,61bbc5c79a1c66460f44041e,61bbc611b6193492b9382bfc,,,,,,-33.33331525,-81.33334649,1,0,0,response5disk,1.5172,5.333393256,-4.000010848,1,0,0,rectangle,5.333393256,-4.000010848,1,0,0,-3,2,"[21,128,93,38,149,94,113,75,30,25]",5.333393256,-4.000010848,1,0,0,0,28,28,31,1,Turquiose,Turquiose.jpg,LightBlue,LightBlue.jpg,,
,,,,,,,,,,,,,,,,,,-1,,,,,,,,,,,,,,,,,,,,,,,,,,,6166012a41328d4db80950d0,001,2021-12-16_23h05.18.046,jm_natural_scene_simialrity_2-12-2021_version2,2021.2.3,Win32,60.03121623,6166012a41328d4db80950d0,61bbc5c79a1c66460f44041e,61bbc611b6193492b9382bfc,,,,,,-50.66660841,-82.00001317,1,0,0,response5disk,1.533,-12.66660728,-4.666677535,1,0,0,rectangle,-113.3333176,-35.33334512,1,0,0,-3,-2,"[21,128,93,38,149,94,113,75,30,25]",0.66668576,-10.66667771,1,0,0,0,29,29,75,1,DarkBlue,DarkBlue.jpg,LightBlue,LightBlue.jpg,response5disk_3,rectangle
,,,,,,,,,,,,,,,,,,2,,,,,,,,,,,,,,,,,,,,,,,,,,,6166012a41328d4db80950d0,001,2021-12-16_23h05.18.046,jm_natural_scene_simialrity_2-12-2021_version2,2021.2.3,Win32,60.03121623,6166012a41328d4db80950d0,61bbc5c79a1c66460f44041e,61bbc611b6193492b9382bfc,,,,,,100.0000221,-32.66667837,1,0,0,response3disk,1.6996,6.666685939,4.666656077,1,0,0,rectangle,6.666685939,4.666656077,1,0,0,-3,1,"[21,128,93,38,149,94,113,75,30,25]",6.666685939,4.666656077,1,0,0,0,30,30,58,1,Pink,Pink.jpg,Yellow,Yellow.jpg,,
,,,,,,,,,,,,,,,,,,-4,,,,,,,,,,,,,,,,,,,,,,,,,,,6166012a41328d4db80950d0,001,2021-12-16_23h05.18.046,jm_natural_scene_simialrity_2-12-2021_version2,2021.2.3,Win32,60.03121623,6166012a41328d4db80950d0,61bbc5c79a1c66460f44041e,61bbc611b6193492b9382bfc,,,,,,-47.33331567,78.66665828,1,0,0,response7disk,0.9036,-3.333314359,-2.666677475,1,0,0,rectangle,-3.333314359,-2.666677475,1,0,0,-3,-2,"[21,128,93,38,149,94,113,75,30,25]",-3.333314359,-2.666677475,1,0,0,0,31,31,57,1,DarkBlue,DarkBlue.jpg,Yellow,Yellow.jpg,,
,,,,,,,,,,,,,,,,,,1,,,,,,,,,,,,,,,,,,,,,,,,,,,6166012a41328d4db80950d0,001,2021-12-16_23h05.18.046,jm_natural_scene_simialrity_2-12-2021_version2,2021.2.3,Win32,60.03121623,6166012a41328d4db80950d0,61bbc5c79a1c66460f44041e,61bbc611b6193492b9382bfc,,,,,,27.33339391,-73.33334625,1,0,0,response3disk,1.9194,6.000019252,-15.33334452,1,0,0,rectangle,6.000019252,-15.33334452,1,0,0,-3,-2,"[21,128,93,38,149,94,113,75,30,25]",6.000019252,-15.33334452,1,0,0,0,32,32,34,1,Turquiose,Turquiose.jpg,Purple,Purple.jpg,,
,,,,,,,,,,,,,,,,,,-2,,,,,,,,,,,,,,,,,,,,,,,,,,,6166012a41328d4db80950d0,001,2021-12-16_23h05.18.046,jm_natural_scene_simialrity_2-12-2021_version2,2021.2.3,Win32,60.03121623,6166012a41328d4db80950d0,61bbc5c79a1c66460f44041e,61bbc611b6193492b9382bfc,,,,,,-69.33331633,-45.33334541,1,0,0,response5disk,1.384,10.00001937,5.99998945,1,0,0,rectangle,10.00001937,5.99998945,1,0,0,-3,-2,"[21,128,93,38,149,94,113,75,30,25]",10.00001937,5.99998945,1,0,0,0,33,33,63,1,DarkBlue,DarkBlue.jpg,LightGreen,LightGreen.jpg,,
,,,,,,,,,,,,,,,,,,-4,,,,,,,,,,,,,,,,,,,,,,,,,,,6166012a41328d4db80950d0,001,2021-12-16_23h05.18.046,jm_natural_scene_simialrity_2-12-2021_version2,2021.2.3,Win32,60.03121623,6166012a41328d4db80950d0,61bbc5c79a1c66460f44041e,61bbc611b6193492b9382bfc,,,,,,-41.99998218,91.99999201,1,0,0,response7disk,0.7465,-5.333314419,7.333322823,1,0,0,rectangle,-5.333314419,7.333322823,1,0,0,-3,-2,"[21,128,93,38,149,94,113,75,30,25]",-5.333314419,7.333322823,1,0,0,0,34,34,73,1,Pink,Pink.jpg,Turquiose,Turquiose.jpg,,
,,,,,,,,,,,,,,,,,,-4,,,,,,,,,,,,,,,,,,,,,,,,,,,6166012a41328d4db80950d0,001,2021-12-16_23h05.18.046,jm_natural_scene_simialrity_2-12-2021_version2,2021.2.3,Win32,60.03121623,6166012a41328d4db80950d0,61bbc5c79a1c66460f44041e,61bbc611b6193492b9382bfc,,,,,,-57.33331597,93.99999207,1,0,0,response7disk,1.2487,4.000019193,9.999989569,1,0,0,rectangle,4.000019193,9.999989569,1,0,0,-3,-1,"[21,128,93,38,149,94,113,75,30,25]",4.000019193,9.999989569,1,0,0,0,35,35,70,1,Purple,Purple.jpg,DarkGreen,DarkGreen.jpg,,
,,,,,,,,,,,,,,,,,,-1,,,,,,,,,,,,,,,,,,,,,,,,,,,6166012a41328d4db80950d0,001,2021-12-16_23h05.18.046,jm_natural_scene_simialrity_2-12-2021_version2,2021.2.3,Win32,60.03121623,6166012a41328d4db80950d0,61bbc5c79a1c66460f44041e,61bbc611b6193492b9382bfc,,,,,,-47.99998236,-58.66667914,1,0,0,response5disk,1.8159,6.666685939,3.99998939,1,0,0,rectangle,6.666685939,3.99998939,1,0,0,-3,-3,"[21,128,93,38,149,94,113,75,30,25]",6.666685939,3.99998939,1,0,0,0,36,36,21,1,LightGreen,LightGreen.jpg,DarkBlue,DarkBlue.jpg,,
,,,,,,,,,,,,,,,,,,3,,,,,,,,,,,,,,,,,,,,,,,,,,,6166012a41328d4db80950d0,001,2021-12-16_23h05.18.046,jm_natural_scene_simialrity_2-12-2021_version2,2021.2.3,Win32,60.03121623,6166012a41328d4db80950d0,61bbc5c79a1c66460f44041e,61bbc611b6193492b9382bfc,,,,,,80.00002146,50.66665745,1,0,0,response1disk,1.1997,-18.66660746,-3.333344162,1,0,0,rectangle,38.66668689,-96.00001359,1,0,0,1,1,"[21,128,93,38,149,94,113,75,30,25]",-8.666607161,-0.666677415,1,0,0,0,37,37,51,1,Pink,Pink.jpg,Red,Red.jpg,response3disk_3,rectangle
,,,,,,,,,,,,,,,,,,-4,,,,,,,,,,,,,,,,,,,,,,,,,,,6166012a41328d4db80950d0,001,2021-12-16_23h05.18.046,jm_natural_scene_simialrity_2-12-2021_version2,2021.2.3,Win32,60.03121623,6166012a41328d4db80950d0,61bbc5c79a1c66460f44041e,61bbc611b6193492b9382bfc,,,,,,-70.66660901,121.3333262,1,0,0,response7disk,0.8843,-14.66660734,11.99998963,1,0,0,rectangle,-14.66660734,11.99998963,1,0,0,1,-4,"[21,128,93,38,149,94,113,75,30,25]",-14.66660734,11.99998963,1,0,0,0,38,38,2,1,Red,Red.jpg,LightGreen,LightGreen.jpg,,
,,,,,,,,,,,,,,,,,,4,,,,,,,,,,,,,,,,,,,,,,,,,,,6166012a41328d4db80950d0,001,2021-12-16_23h05.18.046,jm_natural_scene_simialrity_2-12-2021_version2,2021.2.3,Win32,60.03121623,6166012a41328d4db80950d0,61bbc5c79a1c66460f44041e,61bbc611b6193492b9382bfc,,,,,,61.33335423,87.33330486,1,0,0,response1disk,0.7636,14.00001949,-5.333344221,1,0,0,rectangle,14.00001949,-5.333344221,1,0,0,1,-4,"[21,128,93,38,149,94,113,75,30,25]",14.00001949,-5.333344221,1,0,0,0,39,39,35,1,LightBlue,LightBlue.jpg,LightBlue,LightBlue.jpg,,
,,,,,,,,,,,,,,,,,,-4,,,,,,,,,,,,,,,,,,,,,,,,,,,6166012a41328d4db80950d0,001,2021-12-16_23h05.18.046,jm_natural_scene_simialrity_2-12-2021_version2,2021.2.3,Win32,60.03121623,6166012a41328d4db80950d0,61bbc5c79a1c66460f44041e,61bbc611b6193492b9382bfc,,,,,,-35.33331531,60.66665775,1,0,0,response7disk,1.8529,-3.999981046,-6.000010908,1,0,0,rectangle,-3.999981046,-6.000010908,1,0,0,1,-4,"[21,128,93,38,149,94,113,75,30,25]",-3.999981046,-6.000010908,1,0,0,0,40,40,10,1,Yellow,Yellow.jpg,LightGreen,LightGreen.jpg,,
,,,,,,,,,,,,,,,,,,-4,,,,,,,,,,,,,,,,,,,,,,,,,,,6166012a41328d4db80950d0,001,2021-12-16_23h05.18.046,jm_natural_scene_simialrity_2-12-2021_version2,2021.2.3,Win32,60.03121623,6166012a41328d4db80950d0,61bbc5c79a1c66460f44041e,61bbc611b6193492b9382bfc,,,,,,-47.33331567,75.99999154,1,0,0,response7disk,0.9466,-3.999981046,1.333322644,1,0,0,rectangle,-3.999981046,1.333322644,1,0,0,1,-2,"[21,128,93,38,149,94,113,75,30,25]",-3.999981046,1.333322644,1,0,0,0,41,41,40,1,DarkBlue,DarkBlue.jpg,Pink,Pink.jpg,,
,,,,,,,,,,,,,,,,,,-4,,,,,,,,,,,,,,,,,,,,,,,,,,,6166012a41328d4db80950d0,001,2021-12-16_23h05.18.046,jm_natural_scene_simialrity_2-12-2021_version2,2021.2.3,Win32,60.03121623,6166012a41328d4db80950d0,61bbc5c79a1c66460f44041e,61bbc611b6193492b9382bfc,,,,,,-29.99998182,90.66665864,1,0,0,response7disk,0.7532,10.00001937,3.333322704,1,0,0,rectangle,10.00001937,3.333322704,1,0,0,1,1,"[21,128,93,38,149,94,113,75,30,25]",10.00001937,3.333322704,1,0,0,0,42,42,4,1,Red,Red.jpg,Turquiose,Turquiose.jpg,,
,,,,,,,,,,,,,,,,,,-4,,,,,,,,,,,,,,,,,,,,,,,,,,,6166012a41328d4db80950d0,001,2021-12-16_23h05.18.046,jm_natural_scene_simialrity_2-12-2021_version2,2021.2.3,Win32,60.03121623,6166012a41328d4db80950d0,61bbc5c79a1c66460f44041e,61bbc611b6193492b9382bfc,,,,,,-42.66660817,96.66665882,1,0,0,response7disk,0.9843,-7.333314478,-2.000010788,1,0,0,rectangle,-7.333314478,-2.000010788,1,0,0,1,3,"[21,128,93,38,149,94,113,75,30,25]",-7.333314478,-2.000010788,1,0,0,0,43,43,11,1,Yellow,Yellow.jpg,DarkGreen,DarkGreen.jpg,,
,,,,,,,,,,,,,,,,,,2,,,,,,,,,,,,,,,,,,,,,,,,,,,6166012a41328d4db80950d0,001,2021-12-16_23h05.18.046,jm_natural_scene_simialrity_2-12-2021_version2,2021.2.3,Win32,60.03121623,6166012a41328d4db80950d0,61bbc5c79a1c66460f44041e,61bbc611b6193492b9382bfc,,,,,,89.33335507,-42.00001198,1,0,0,response3disk,1.7332,-7.333314478,-3.333344162,1,0,0,rectangle,-7.333314478,-3.333344162,1,0,0,1,3,"[21,128,93,38,149,94,113,75,30,25]",-7.333314478,-3.333344162,1,0,0,0,44,44,1,1,Red,Red.jpg,Yellow,Yellow.jpg,,
,,,,,,,,,,,,,,,,,,1,,,,,,,,,,,,,,,,,,,,,,,,,,,6166012a41328d4db80950d0,001,2021-12-16_23h05.18.046,jm_natural_scene_simialrity_2-12-2021_version2,2021.2.3,Win32,60.03121623,6166012a41328d4db80950d0,61bbc5c79a1c66460f44041e,61bbc611b6193492b9382bfc,,,,,,44.00002038,-79.33334643,1,0,0,response3disk,1.8171,-3.333314359,15.33332306,1,0,0,rectangle,-3.333314359,15.33332306,1,0,0,1,-2,"[21,128,93,38,149,94,113,75,30,25]",-3.333314359,15.33332306,1,0,0,0,45,45,19,1,LightGreen,LightGreen.jpg,Turquiose,Turquiose.jpg,,
,,,,,,,,,,,,,,,,,,-4,,,,,,,,,,,,,,,,,,,,,,,,,,,6166012a41328d4db80950d0,001,2021-12-16_23h05.18.046,jm_natural_scene_simialrity_2-12-2021_version2,2021.2.3,Win32,60.03121623,6166012a41328d4db80950d0,61bbc5c79a1c66460f44041e,61bbc611b6193492b9382bfc,,,,,,-34.66660794,53.99999088,1,0,0,response7disk,0.7008,2.66668582,-7.333344281,1,0,0,rectangle,2.66668582,-7.333344281,1,0,0,1,2,"[21,128,93,38,149,94,113,75,30,25]",2.66668582,-7.333344281,1,0,0,0,46,46,56,1,LightBlue,LightBlue.jpg,Yellow,Yellow.jpg,,
,,,,,,,,,,,,,,,,,,-4,,,,,,,,,,,,,,,,,,,,,,,,,,,6166012a41328d4db80950d0,001,2021-12-16_23h05.18.046,jm_natural_scene_simialrity_2-12-2021_version2,2021.2.3,Win32,60.03121623,6166012a41328d4db80950d0,61bbc5c79a1c66460f44041e,61bbc611b6193492b9382bfc,,,,,,-50.66660841,65.99999124,1,0,0,response7disk,2.1695,1.90735E-05,-12.00001109,1,0,0,rectangle,1.90735E-05,-12.00001109,1,0,0,1,3,"[21,128,93,38,149,94,113,75,30,25]",1.90735E-05,-12.00001109,1,0,0,0,47,47,80,1,Purple,Purple.jpg,Pink,Pink.jpg,,
,,,,,,,,,,,,,,,,,,4,,,,,,,,,,,,,,,,,,,,,,,,,,,6166012a41328d4db80950d0,001,2021-12-16_23h05.18.046,jm_natural_scene_simialrity_2-12-2021_version2,2021.2.3,Win32,60.03121623,6166012a41328d4db80950d0,61bbc5c79a1c66460f44041e,61bbc611b6193492b9382bfc,,,,,,20.00001967,65.99999124,1,0,0,response1disk,0.7486,3.333393196,-10.66667771,1,0,0,rectangle,3.333393196,-10.66667771,1,0,0,1,-3,"[21,128,93,38,149,94,113,75,30,25]",3.333393196,-10.66667771,1,0,0,0,48,48,42,1,Pink,Pink.jpg,Pink,Pink.jpg,,
,,,,,,,,,,,,,,,,,,-4,,,,,,,,,,,,,,,,,,,,,,,,,,,6166012a41328d4db80950d0,001,2021-12-16_23h05.18.046,jm_natural_scene_simialrity_2-12-2021_version2,2021.2.3,Win32,60.03121623,6166012a41328d4db80950d0,61bbc5c79a1c66460f44041e,61bbc611b6193492b9382bfc,,,,,,-39.33331543,77.33330456,1,0,0,response7disk,1.0153,0.66668576,-13.33334446,1,0,0,rectangle,0.66668576,-13.33334446,1,0,0,1,3,"[21,128,93,38,149,94,113,75,30,25]",0.66668576,-13.33334446,1,0,0,0,49,49,12,1,Yellow,Yellow.jpg,Turquiose,Turquiose.jpg,,
,,,,,,,,,,,,,,,,,,-1,,,,,,,,,,,,,,,,,,,,,,,,,,,6166012a41328d4db80950d0,001,2021-12-16_23h05.18.046,jm_natural_scene_simialrity_2-12-2021_version2,2021.2.3,Win32,60.03121623,6166012a41328d4db80950d0,61bbc5c79a1c66460f44041e,61bbc611b6193492b9382bfc,,,,,,-26.6666077,-82.66667986,1,0,0,response5disk,1.8168,0.66668576,-0.666677415,1,0,0,rectangle,0.66668576,-0.666677415,1,0,0,1,2,"[21,128,93,38,149,94,113,75,30,25]",0.66668576,-0.666677415,1,0,0,0,50,50,66,1,Turquiose,Turquiose.jpg,DarkGreen,DarkGreen.jpg,,
,,,,,,,,,,,,,,,,,,-4,,,,,,,,,,,,,,,,,,,,,,,,,,,6166012a41328d4db80950d0,001,2021-12-16_23h05.18.046,jm_natural_scene_simialrity_2-12-2021_version2,2021.2.3,Win32,60.03121623,6166012a41328d4db80950d0,61bbc5c79a1c66460f44041e,61bbc611b6193492b9382bfc,,,,,,-35.999982,90.66665864,1,0,0,response7disk,0.9184,-1.999980986,-1.333344102,1,0,0,rectangle,-1.999980986,-1.333344102,1,0,0,1,1,"[21,128,93,38,149,94,113,75,30,25]",-1.999980986,-1.333344102,1,0,0,0,51,51,23,1,LightGreen,LightGreen.jpg,Purple,Purple.jpg,,
,,,,,,,,,,,,,,,,,,-3,,,,,,,,,,,,,,,,,,,,,,,,,,,6166012a41328d4db80950d0,001,2021-12-16_23h05.18.046,jm_natural_scene_simialrity_2-12-2021_version2,2021.2.3,Win32,60.03121623,6166012a41328d4db80950d0,61bbc5c79a1c66460f44041e,61bbc611b6193492b9382bfc,,,,,,-57.99998266,39.33330343,1,0,0,response7disk,4.295,2.66668582,9.333322883,1,0,0,rectangle,2.66668582,9.333322883,1,0,0,1,-3,"[21,128,93,38,149,94,113,75,30,25]",2.66668582,9.333322883,1,0,0,0,52,52,27,1,DarkGreen,DarkGreen.jpg,DarkBlue,DarkBlue.jpg,,
,,,,,,,,,,,,,,,,,,-4,,,,,,,,,,,,,,,,,,,,,,,,,,,6166012a41328d4db80950d0,001,2021-12-16_23h05.18.046,jm_natural_scene_simialrity_2-12-2021_version2,2021.2.3,Win32,60.03121623,6166012a41328d4db80950d0,61bbc5c79a1c66460f44041e,61bbc611b6193492b9382bfc,,,,,,-49.99998242,117.3333261,1,0,0,response7disk,0.7842,-1.3333143,-2.666677475,1,0,0,rectangle,-1.3333143,-2.666677475,1,0,0,1,-1,"[21,128,93,38,149,94,113,75,30,25]",-1.3333143,-2.666677475,1,0,0,0,53,53,22,1,LightGreen,LightGreen.jpg,Pink,Pink.jpg,,
,,,,,,,,,,,,,,,,,,3,,,,,,,,,,,,,,,,,,,,,,,,,,,6166012a41328d4db80950d0,001,2021-12-16_23h05.18.046,jm_natural_scene_simialrity_2-12-2021_version2,2021.2.3,Win32,60.03121623,6166012a41328d4db80950d0,61bbc5c79a1c66460f44041e,61bbc611b6193492b9382bfc,,,,,,87.33335501,56.66665763,1,0,0,response1disk,1.3504,7.333393315,9.999989569,1,0,0,rectangle,7.333393315,9.999989569,1,0,0,1,3,"[21,128,93,38,149,94,113,75,30,25]",7.333393315,9.999989569,1,0,0,0,54,54,18,1,LightGreen,LightGreen.jpg,DarkGreen,DarkGreen.jpg,,
,,,,,,,,,,,,,,,,,,-4,,,,,,,,,,,,,,,,,,,,,,,,,,,6166012a41328d4db80950d0,001,2021-12-16_23h05.18.046,jm_natural_scene_simialrity_2-12-2021_version2,2021.2.3,Win32,60.03121623,6166012a41328d4db80950d0,61bbc5c79a1c66460f44041e,61bbc611b6193492b9382bfc,,,,,,-43.99998224,89.33330492,1,0,0,response7disk,1.2837,0.66668576,-4.666677535,1,0,0,rectangle,0.66668576,-4.666677535,1,0,0,1,1,"[21,128,93,38,149,94,113,75,30,25]",0.66668576,-4.666677535,1,0,0,0,55,55,3,1,Red,Red.jpg,DarkGreen,DarkGreen.jpg,,
,,,,,,,,,,,,,,,,,,-1,,,,,,,,,,,,,,,,,,,,,,,,,,,6166012a41328d4db80950d0,001,2021-12-16_23h05.18.046,jm_natural_scene_simialrity_2-12-2021_version2,2021.2.3,Win32,60.03121623,6166012a41328d4db80950d0,61bbc5c79a1c66460f44041e,61bbc611b6193492b9382bfc,,,,,,-27.99998176,-68.00001276,1,0,0,response5disk,1.2005,8.000019312,10.66665626,1,0,0,rectangle,8.000019312,10.66665626,1,0,0,1,-3,"[21,128,93,38,149,94,113,75,30,25]",8.000019312,10.66665626,1,0,0,0,56,56,25,1,DarkGreen,DarkGreen.jpg,Turquiose,Turquiose.jpg,,
,,,,,,,,,,,,,,,,,,4,,,,,,,,,,,,,,,,,,,,,,,,,,,6166012a41328d4db80950d0,001,2021-12-16_23h05.18.046,jm_natural_scene_simialrity_2-12-2021_version2,2021.2.3,Win32,60.03121623,6166012a41328d4db80950d0,61bbc5c79a1c66460f44041e,61bbc611b6193492b9382bfc,,,,,,32.66668671,84.66665846,1,0,0,response1disk,0.8038,-2.666606983,-14.00001115,1,0,0,rectangle,-2.666606983,-14.00001115,1,0,0,1,-1,"[21,128,93,38,149,94,113,75,30,25]",-2.666606983,-14.00001115,1,0,0,0,57,57,39,1,DarkBlue,DarkBlue.jpg,DarkBlue,DarkBlue.jpg,,
,,,,,,,,,,,,,,,,,,3,,,,,,,,,,,,,,,,,,,,,,,,,,,6166012a41328d4db80950d0,001,2021-12-16_23h05.18.046,jm_natural_scene_simialrity_2-12-2021_version2,2021.2.3,Win32,60.03121623,6166012a41328d4db80950d0,61bbc5c79a1c66460f44041e,61bbc611b6193492b9382bfc,,,,,,96.66668862,47.9999907,1,0,0,response1disk,1.2172,-3.999981046,-11.3333444,1,0,0,rectangle,-3.999981046,-11.3333444,1,0,0,1,-3,"[21,128,93,38,149,94,113,75,30,25]",-3.999981046,-11.3333444,1,0,0,0,58,58,7,1,Red,Red.jpg,Pink,Pink.jpg,,
,,,,,,,,,,,,,,,,,,-4,,,,,,,,,,,,,,,,,,,,,,,,,,,6166012a41328d4db80950d0,001,2021-12-16_23h05.18.046,jm_natural_scene_simialrity_2-12-2021_version2,2021.2.3,Win32,60.03121623,6166012a41328d4db80950d0,61bbc5c79a1c66460f44041e,61bbc611b6193492b9382bfc,,,,,,-70.66660901,102.666659,1,0,0,response7disk,0.9008,0.66668576,-8.000010967,1,0,0,rectangle,0.66668576,-8.000010967,1,0,0,1,-1,"[21,128,93,38,149,94,113,75,30,25]",0.66668576,-8.000010967,1,0,0,0,59,59,49,1,LightBlue,LightBlue.jpg,Red,Red.jpg,,
,,,,,,,,,,,,,,,,,,-4,,,,,,,,,,,,,,,,,,,,,,,,,,,6166012a41328d4db80950d0,001,2021-12-16_23h05.18.046,jm_natural_scene_simialrity_2-12-2021_version2,2021.2.3,Win32,60.03121623,6166012a41328d4db80950d0,61bbc5c79a1c66460f44041e,61bbc611b6193492b9382bfc,,,,,,-51.99998248,118.6666595,1,0,0,response7disk,1.0787,3.333393196,5.333322763,1,0,0,rectangle,3.333393196,5.333322763,1,0,0,1,-1,"[21,128,93,38,149,94,113,75,30,25]",3.333393196,5.333322763,1,0,0,0,60,60,6,1,Red,Red.jpg,DarkBlue,DarkBlue.jpg,,
,,,,,,,,,,,,,,,,,,-4,,,,,,,,,,,,,,,,,,,,,,,,,,,6166012a41328d4db80950d0,001,2021-12-16_23h05.18.046,jm_natural_scene_simialrity_2-12-2021_version2,2021.2.3,Win32,60.03121623,6166012a41328d4db80950d0,61bbc5c79a1c66460f44041e,61bbc611b6193492b9382bfc,,,,,,-24.66660764,106.6666591,1,0,0,response7disk,0.9518,2.66668582,-2.666677475,1,0,0,rectangle,2.66668582,-2.666677475,1,0,0,1,2,"[21,128,93,38,149,94,113,75,30,25]",2.66668582,-2.666677475,1,0,0,0,61,61,53,1,LightGreen,LightGreen.jpg,Yellow,Yellow.jpg,,
,,,,,,,,,,,,,,,,,,-4,,,,,,,,,,,,,,,,,,,,,,,,,,,6166012a41328d4db80950d0,001,2021-12-16_23h05.18.046,jm_natural_scene_simialrity_2-12-2021_version2,2021.2.3,Win32,60.03121623,6166012a41328d4db80950d0,61bbc5c79a1c66460f44041e,61bbc611b6193492b9382bfc,,,,,,-47.33331567,100.6666589,1,0,0,response7disk,0.8,16.00001955,-12.66667777,1,0,0,rectangle,16.00001955,-12.66667777,1,0,0,1,1,"[21,128,93,38,149,94,113,75,30,25]",16.00001955,-12.66667777,1,0,0,0,62,62,62,1,LightBlue,LightBlue.jpg,LightGreen,LightGreen.jpg,,
,,,,,,,,,,,,,,,,,,1,,,,,,,,,,,,,,,,,,,,,,,,,,,6166012a41328d4db80950d0,001,2021-12-16_23h05.18.046,jm_natural_scene_simialrity_2-12-2021_version2,2021.2.3,Win32,60.03121623,6166012a41328d4db80950d0,61bbc5c79a1c66460f44041e,61bbc611b6193492b9382bfc,,,,,,34.66668677,-72.66667956,1,0,0,response3disk,1.6996,-11.99998128,3.99998939,1,0,0,rectangle,-11.99998128,3.99998939,1,0,0,1,3,"[21,128,93,38,149,94,113,75,30,25]",-11.99998128,3.99998939,1,0,0,0,63,63,72,1,DarkBlue,DarkBlue.jpg,Turquiose,Turquiose.jpg,,
,,,,,,,,,,,,,,,,,,-4,,,,,,,,,,,,,,,,,,,,,,,,,,,6166012a41328d4db80950d0,001,2021-12-16_23h05.18.046,jm_natural_scene_simialrity_2-12-2021_version2,2021.2.3,Win32,60.03121623,6166012a41328d4db80950d0,61bbc5c79a1c66460f44041e,61bbc611b6193492b9382bfc,,,,,,-47.33331567,93.33330504,1,0,0,response7disk,1.9332,-9.999981225,2.666656017,1,0,0,rectangle,-9.999981225,2.666656017,1,0,0,1,1,"[21,128,93,38,149,94,113,75,30,25]",-9.999981225,2.666656017,1,0,0,0,64,64,67,1,LightBlue,LightBlue.jpg,DarkGreen,DarkGreen.jpg,,
,,,,,,,,,,,,,,,,,,4,,,,,,,,,,,,,,,,,,,,,,,,,,,6166012a41328d4db80950d0,001,2021-12-16_23h05.18.046,jm_natural_scene_simialrity_2-12-2021_version2,2021.2.3,Win32,60.03121623,6166012a41328d4db80950d0,61bbc5c79a1c66460f44041e,61bbc611b6193492b9382bfc,,,,,,40.00002027,109.3333259,1,0,0,response1disk,0.733,4.666685879,5.99998945,1,0,0,rectangle,4.666685879,5.99998945,1,0,0,1,-4,"[21,128,93,38,149,94,113,75,30,25]",4.666685879,5.99998945,1,0,0,0,65,65,9,1,Yellow,Yellow.jpg,Yellow,Yellow.jpg,,
,,,,,,,,,,,,,,,,,,-1,,,,,,,,,,,,,,,,,,,,,,,,,,,6166012a41328d4db80950d0,001,2021-12-16_23h05.18.046,jm_natural_scene_simialrity_2-12-2021_version2,2021.2.3,Win32,60.03121623,6166012a41328d4db80950d0,61bbc5c79a1c66460f44041e,61bbc611b6193492b9382bfc,,,,,,-37.33331537,-60.6666792,1,0,0,response5disk,1.2165,-1.3333143,7.99998951,1,0,0,rectangle,-1.3333143,7.99998951,1,0,0,1,-4,"[21,128,93,38,149,94,113,75,30,25]",-1.3333143,7.99998951,1,0,0,0,66,66,68,1,DarkBlue,DarkBlue.jpg,DarkGreen,DarkGreen.jpg,,
,,,,,,,,,,,,,,,,,,-4,,,,,,,,,,,,,,,,,,,,,,,,,,,6166012a41328d4db80950d0,001,2021-12-16_23h05.18.046,jm_natural_scene_simialrity_2-12-2021_version2,2021.2.3,Win32,60.03121623,6166012a41328d4db80950d0,61bbc5c79a1c66460f44041e,61bbc611b6193492b9382bfc,,,,,,-51.99998248,85.3333048,1,0,0,response7disk,0.8663,8.666685998,0.666655958,1,0,0,rectangle,8.666685998,0.666655958,1,0,0,1,-2,"[21,128,93,38,149,94,113,75,30,25]",8.666685998,0.666655958,1,0,0,0,67,67,65,1,Purple,Purple.jpg,LightGreen,LightGreen.jpg,,
,,,,,,,,,,,,,,,,,,-3,,,,,,,,,,,,,,,,,,,,,,,,,,,6166012a41328d4db80950d0,001,2021-12-16_23h05.18.046,jm_natural_scene_simialrity_2-12-2021_version2,2021.2.3,Win32,60.03121623,6166012a41328d4db80950d0,61bbc5c79a1c66460f44041e,61bbc611b6193492b9382bfc,,,,,,-69.99998301,31.99999022,1,0,0,response7disk,1.27,7.333393315,1.999989331,1,0,0,rectangle,7.333393315,1.999989331,1,0,0,1,-4,"[21,128,93,38,149,94,113,75,30,25]",7.333393315,1.999989331,1,0,0,0,68,68,79,1,Purple,Purple.jpg,DarkBlue,DarkBlue.jpg,,
,,,,,,,,,,,,,,,,,,-4,,,,,,,,,,,,,,,,,,,,,,,,,,,6166012a41328d4db80950d0,001,2021-12-16_23h05.18.046,jm_natural_scene_simialrity_2-12-2021_version2,2021.2.3,Win32,60.03121623,6166012a41328d4db80950d0,61bbc5c79a1c66460f44041e,61bbc611b6193492b9382bfc,,,,,,-63.33331615,122.6666596,1,0,0,response7disk,0.8337,-0.666606923,3.99998939,1,0,0,rectangle,-0.666606923,3.99998939,1,0,0,1,-3,"[21,128,93,38,149,94,113,75,30,25]",-0.666606923,3.99998939,1,0,0,0,69,69,46,1,LightGreen,LightGreen.jpg,Red,Red.jpg,,
,,,,,,,,,,,,,,,,,,4,,,,,,,,,,,,,,,,,,,,,,,,,,,6166012a41328d4db80950d0,001,2021-12-16_23h05.18.046,jm_natural_scene_simialrity_2-12-2021_version2,2021.2.3,Win32,60.03121623,6166012a41328d4db80950d0,61bbc5c79a1c66460f44041e,61bbc611b6193492b9382bfc,,,,,,40.00002027,97.33330516,1,0,0,response1disk,0.7836,4.000019193,1.999989331,1,0,0,rectangle,4.000019193,1.999989331,1,0,0,1,2,"[21,128,93,38,149,94,113,75,30,25]",4.000019193,1.999989331,1,0,0,0,70,70,30,1,Turquiose,Turquiose.jpg,Turquiose,Turquiose.jpg,,
,,,,,,,,,,,,,,,,,,-4,,,,,,,,,,,,,,,,,,,,,,,,,,,6166012a41328d4db80950d0,001,2021-12-16_23h05.18.046,jm_natural_scene_simialrity_2-12-2021_version2,2021.2.3,Win32,60.03121623,6166012a41328d4db80950d0,61bbc5c79a1c66460f44041e,61bbc611b6193492b9382bfc,,,,,,-51.99998248,99.33330522,1,0,0,response7disk,0.8059,2.000019133,9.999989569,1,0,0,rectangle,2.000019133,9.999989569,1,0,0,1,3,"[21,128,93,38,149,94,113,75,30,25]",2.000019133,9.999989569,1,0,0,0,71,71,20,1,LightGreen,LightGreen.jpg,LightBlue,LightBlue.jpg,,
,,,,,,,,,,,,,,,,,,-4,,,,,,,,,,,,,,,,,,,,,,,,,,,6166012a41328d4db80950d0,001,2021-12-16_23h05.18.046,jm_natural_scene_simialrity_2-12-2021_version2,2021.2.3,Win32,60.03121623,6166012a41328d4db80950d0,61bbc5c79a1c66460f44041e,61bbc611b6193492b9382bfc,,,,,,-35.33331531,101.9999923,1,0,0,response7disk,0.7494,1.333393137,-10.66667771,1,0,0,rectangle,1.333393137,-10.66667771,1,0,0,1,3,"[21,128,93,38,149,94,113,75,30,25]",1.333393137,-10.66667771,1,0,0,0,72,72,50,1,DarkBlue,DarkBlue.jpg,Red,Red.jpg,,
,,,,,,,,,,,,,,,,,,3,,,,,,,,,,,,,,,,,,,,,,,,,,,6166012a41328d4db80950d0,001,2021-12-16_23h05.18.046,jm_natural_scene_simialrity_2-12-2021_version2,2021.2.3,Win32,60.03121623,6166012a41328d4db80950d0,61bbc5c79a1c66460f44041e,61bbc611b6193492b9382bfc,,,,,,86.00002164,40.66665715,1,0,0,response1disk,1.0337,-6.666607102,3.99998939,1,0,0,rectangle,-6.666607102,3.99998939,1,0,0,1,-1,"[21,128,93,38,149,94,113,75,30,25]",-6.666607102,3.99998939,1,0,0,0,73,73,45,1,Yellow,Yellow.jpg,Red,Red.jpg,,
,,,,,,,,,,,,,,,,,,-4,,,,,,,,,,,,,,,,,,,,,,,,,,,6166012a41328d4db80950d0,001,2021-12-16_23h05.18.046,jm_natural_scene_simialrity_2-12-2021_version2,2021.2.3,Win32,60.03121623,6166012a41328d4db80950d0,61bbc5c79a1c66460f44041e,61bbc611b6193492b9382bfc,,,,,,-31.33331519,77.33330456,1,0,0,response7disk,0.8698,8.000019312,1.333322644,1,0,0,rectangle,51.33335394,-82.00001317,1,0,0,1,1,"[21,128,93,38,149,94,113,75,30,25]",-5.333314419,-5.333344221,1,0,0,0,74,74,48,1,Turquiose,Turquiose.jpg,Red,Red.jpg,response3disk_3,rectangle
,,,,,,,,,,,,,,,,,,-4,,,,,,,,,,,,,,,,,,,,,,,,,,,6166012a41328d4db80950d0,001,2021-12-16_23h05.18.046,jm_natural_scene_simialrity_2-12-2021_version2,2021.2.3,Win32,60.03121623,6166012a41328d4db80950d0,61bbc5c79a1c66460f44041e,61bbc611b6193492b9382bfc,,,,,,-57.33331597,106.6666591,1,0,0,response7disk,0.6668,-5.333314419,-6.000010908,1,0,0,rectangle,-5.333314419,-6.000010908,1,0,0,1,-3,"[21,128,93,38,149,94,113,75,30,25]",-5.333314419,-6.000010908,1,0,0,0,75,75,78,1,Pink,Pink.jpg,DarkBlue,DarkBlue.jpg,,
,,,,,,,,,,,,,,,,,,-4,,,,,,,,,,,,,,,,,,,,,,,,,,,6166012a41328d4db80950d0,001,2021-12-16_23h05.18.046,jm_natural_scene_simialrity_2-12-2021_version2,2021.2.3,Win32,60.03121623,6166012a41328d4db80950d0,61bbc5c79a1c66460f44041e,61bbc611b6193492b9382bfc,,,,,,-59.99998271,124.6666597,1,0,0,response7disk,0.6206,-11.3333146,-2.000010788,1,0,0,rectangle,-11.3333146,-2.000010788,1,0,0,1,-2,"[21,128,93,38,149,94,113,75,30,25]",-11.3333146,-2.000010788,1,0,0,0,76,76,13,1,Yellow,Yellow.jpg,LightBlue,LightBlue.jpg,,
,,,,,,,,,,,,,,,,,,-4,,,,,,,,,,,,,,,,,,,,,,,,,,,6166012a41328d4db80950d0,001,2021-12-16_23h05.18.046,jm_natural_scene_simialrity_2-12-2021_version2,2021.2.3,Win32,60.03121623,6166012a41328d4db80950d0,61bbc5c79a1c66460f44041e,61bbc611b6193492b9382bfc,,,,,,-37.99998206,81.33330468,1,0,0,response7disk,0.7341,-13.33331466,-5.333344221,1,0,0,rectangle,-13.33331466,-5.333344221,1,0,0,1,2,"[21,128,93,38,149,94,113,75,30,25]",-13.33331466,-5.333344221,1,0,0,0,77,77,47,1,DarkGreen,DarkGreen.jpg,Red,Red.jpg,,
,,,,,,,,,,,,,,,,,,-1,,,,,,,,,,,,,,,,,,,,,,,,,,,6166012a41328d4db80950d0,001,2021-12-16_23h05.18.046,jm_natural_scene_simialrity_2-12-2021_version2,2021.2.3,Win32,60.03121623,6166012a41328d4db80950d0,61bbc5c79a1c66460f44041e,61bbc611b6193492b9382bfc,,,,,,-37.99998206,-112.6666808,1,0,0,response5disk,1.8651,6.000019252,-8.666677654,1,0,0,rectangle,6.000019252,-8.666677654,1,0,0,1,-4,"[21,128,93,38,149,94,113,75,30,25]",6.000019252,-8.666677654,1,0,0,0,78,78,41,1,DarkBlue,DarkBlue.jpg,Purple,Purple.jpg,,
,,,,,,,,,,,,,,,,,,4,,,,,,,,,,,,,,,,,,,,,,,,,,,6166012a41328d4db80950d0,001,2021-12-16_23h05.18.046,jm_natural_scene_simialrity_2-12-2021_version2,2021.2.3,Win32,60.03121623,6166012a41328d4db80950d0,61bbc5c79a1c66460f44041e,61bbc611b6193492b9382bfc,,,,,,52.66668731,103.9999924,1,0,0,response1disk,1.3824,-1.3333143,-5.333344221,1,0,0,rectangle,-1.3333143,-5.333344221,1,0,0,1,-4,"[21,128,93,38,149,94,113,75,30,25]",-1.3333143,-5.333344221,1,0,0,0,79,79,17,1,LightGreen,LightGreen.jpg,LightGreen,LightGreen.jpg,,
,,,,,,,,,,,,,,,,,,-4,,,,,,,,,,,,,,,,,,,,,,,,,,,6166012a41328d4db80950d0,001,2021-12-16_23h05.18.046,jm_natural_scene_simialrity_2-12-2021_version2,2021.2.3,Win32,60.03121623,6166012a41328d4db80950d0,61bbc5c79a1c66460f44041e,61bbc611b6193492b9382bfc,,,,,,-45.9999823,87.33330486,1,0,0,response7disk,2.6366,-9.999981225,9.999989569,1,0,0,rectangle,-9.999981225,9.999989569,1,0,0,1,2,"[21,128,93,38,149,94,113,75,30,25]",-9.999981225,9.999989569,1,0,0,0,80,80,14,1,Yellow,Yellow.jpg,DarkBlue,DarkBlue.jpg,,
,,,,,,,,,,,,,,,,,,4,,,,,,,,,,,,,,,,,,,,,,,,,,,6166012a41328d4db80950d0,001,2021-12-16_23h05.18.046,jm_natural_scene_simialrity_2-12-2021_version2,2021.2.3,Win32,60.03121623,6166012a41328d4db80950d0,61bbc5c79a1c66460f44041e,61bbc611b6193492b9382bfc,,,,,,33.33339409,67.33330427,1,0,0,response1disk,0.7509,9.333393375,-4.666677535,1,0,0,rectangle,9.333393375,-4.666677535,1,0,0,1,1,"[21,128,93,38,149,94,113,75,30,25]",9.333393375,-4.666677535,1,0,0,1,0,81,44,1,Purple,Purple.jpg,Purple,Purple.jpg,,
,,,,,,,,,,,,,,,,,,-4,,,,,,,,,,,,,,,,,,,,,,,,,,,6166012a41328d4db80950d0,001,2021-12-16_23h05.18.046,jm_natural_scene_simialrity_2-12-2021_version2,2021.2.3,Win32,60.03121623,6166012a41328d4db80950d0,61bbc5c79a1c66460f44041e,61bbc611b6193492b9382bfc,,,,,,-42.66660817,81.99999171,1,0,0,response7disk,0.8205,-9.333314538,7.99998951,1,0,0,rectangle,-9.333314538,7.99998951,1,0,0,1,3,"[21,128,93,38,149,94,113,75,30,25]",-9.333314538,7.99998951,1,0,0,1,1,82,55,1,Turquiose,Turquiose.jpg,Yellow,Yellow.jpg,,
,,,,,,,,,,,,,,,,,,-4,,,,,,,,,,,,,,,,,,,,,,,,,,,6166012a41328d4db80950d0,001,2021-12-16_23h05.18.046,jm_natural_scene_simialrity_2-12-2021_version2,2021.2.3,Win32,60.03121623,6166012a41328d4db80950d0,61bbc5c79a1c66460f44041e,61bbc611b6193492b9382bfc,,,,,,-35.999982,98.66665888,1,0,0,response7disk,0.7009,0.66668576,17.33332312,1,0,0,rectangle,0.66668576,17.33332312,1,0,0,1,-1,"[21,128,93,38,149,94,113,75,30,25]",0.66668576,17.33332312,1,0,0,1,2,83,12,1,Yellow,Yellow.jpg,Turquiose,Turquiose.jpg,,
,,,,,,,,,,,,,,,,,,-4,,,,,,,,,,,,,,,,,,,,,,,,,,,6166012a41328d4db80950d0,001,2021-12-16_23h05.18.046,jm_natural_scene_simialrity_2-12-2021_version2,2021.2.3,Win32,60.03121623,6166012a41328d4db80950d0,61bbc5c79a1c66460f44041e,61bbc611b6193492b9382bfc,,,,,,-32.66660788,83.99999177,1,0,0,response7disk,0.8833,-1.999980986,7.99998951,1,0,0,rectangle,-1.999980986,7.99998951,1,0,0,1,2,"[21,128,93,38,149,94,113,75,30,25]",-1.999980986,7.99998951,1,0,0,1,3,84,20,1,LightGreen,LightGreen.jpg,LightBlue,LightBlue.jpg,,
,,,,,,,,,,,,,,,,,,-4,,,,,,,,,,,,,,,,,,,,,,,,,,,6166012a41328d4db80950d0,001,2021-12-16_23h05.18.046,jm_natural_scene_simialrity_2-12-2021_version2,2021.2.3,Win32,60.03121623,6166012a41328d4db80950d0,61bbc5c79a1c66460f44041e,61bbc611b6193492b9382bfc,,,,,,-29.33331513,57.999991,1,0,0,response7disk,1.5371,3.333393196,-14.66667783,1,0,0,rectangle,3.333393196,-14.66667783,1,0,0,1,2,"[21,128,93,38,149,94,113,75,30,25]",3.333393196,-14.66667783,1,0,0,1,4,85,21,1,LightGreen,LightGreen.jpg,DarkBlue,DarkBlue.jpg,,
,,,,,,,,,,,,,,,,,,-4,,,,,,,,,,,,,,,,,,,,,,,,,,,6166012a41328d4db80950d0,001,2021-12-16_23h05.18.046,jm_natural_scene_simialrity_2-12-2021_version2,2021.2.3,Win32,60.03121623,6166012a41328d4db80950d0,61bbc5c79a1c66460f44041e,61bbc611b6193492b9382bfc,,,,,,-47.99998236,96.66665882,1,0,0,response7disk,1.2336,4.666685879,-1.07288E-05,1,0,0,rectangle,4.666685879,-1.07288E-05,1,0,0,1,-3,"[21,128,93,38,149,94,113,75,30,25]",4.666685879,-1.07288E-05,1,0,0,1,5,86,5,1,Red,Red.jpg,LightBlue,LightBlue.jpg,,
,,,,,,,,,,,,,,,,,,1,,,,,,,,,,,,,,,,,,,,,,,,,,,6166012a41328d4db80950d0,001,2021-12-16_23h05.18.046,jm_natural_scene_simialrity_2-12-2021_version2,2021.2.3,Win32,60.03121623,6166012a41328d4db80950d0,61bbc5c79a1c66460f44041e,61bbc611b6193492b9382bfc,,,,,,28.66668659,-88.00001335,1,0,0,response3disk,2.4998,-2.666606983,5.333322763,1,0,0,rectangle,-2.666606983,5.333322763,1,0,0,1,-4,"[21,128,93,38,149,94,113,75,30,25]",-2.666606983,5.333322763,1,0,0,1,6,87,19,1,LightGreen,LightGreen.jpg,Turquiose,Turquiose.jpg,,
,,,,,,,,,,,,,,,,,,-4,,,,,,,,,,,,,,,,,,,,,,,,,,,6166012a41328d4db80950d0,001,2021-12-16_23h05.18.046,jm_natural_scene_simialrity_2-12-2021_version2,2021.2.3,Win32,60.03121623,6166012a41328d4db80950d0,61bbc5c79a1c66460f44041e,61bbc611b6193492b9382bfc,,,,,,-45.33331561,85.3333048,1,0,0,response7disk,1.1164,-2.666606983,-11.3333444,1,0,0,rectangle,-2.666606983,-11.3333444,1,0,0,1,1,"[21,128,93,38,149,94,113,75,30,25]",-2.666606983,-11.3333444,1,0,0,1,7,88,43,1,Pink,Pink.jpg,Purple,Purple.jpg,,
,,,,,,,,,,,,,,,,,,-4,,,,,,,,,,,,,,,,,,,,,,,,,,,6166012a41328d4db80950d0,001,2021-12-16_23h05.18.046,jm_natural_scene_simialrity_2-12-2021_version2,2021.2.3,Win32,60.03121623,6166012a41328d4db80950d0,61bbc5c79a1c66460f44041e,61bbc611b6193492b9382bfc,,,,,,-61.33331609,82.6666584,1,0,0,response7disk,0.8503,-7.999981165,-4.000010848,1,0,0,rectangle,-7.999981165,-4.000010848,1,0,0,1,3,"[21,128,93,38,149,94,113,75,30,25]",-7.999981165,-4.000010848,1,0,0,1,8,89,47,1,DarkGreen,DarkGreen.jpg,Red,Red.jpg,,
,,,,,,,,,,,,,,,,,,-4,,,,,,,,,,,,,,,,,,,,,,,,,,,6166012a41328d4db80950d0,001,2021-12-16_23h05.18.046,jm_natural_scene_simialrity_2-12-2021_version2,2021.2.3,Win32,60.03121623,6166012a41328d4db80950d0,61bbc5c79a1c66460f44041e,61bbc611b6193492b9382bfc,,,,,,-35.999982,79.99999166,1,0,0,response7disk,1.052,-13.33331466,-4.666677535,1,0,0,rectangle,-13.33331466,-4.666677535,1,0,0,1,-1,"[21,128,93,38,149,94,113,75,30,25]",-13.33331466,-4.666677535,1,0,0,1,9,90,26,1,DarkGreen,DarkGreen.jpg,LightBlue,LightBlue.jpg,,
,,,,,,,,,,,,,,,,,,3,,,,,,,,,,,,,,,,,,,,,,,,,,,6166012a41328d4db80950d0,001,2021-12-16_23h05.18.046,jm_natural_scene_simialrity_2-12-2021_version2,2021.2.3,Win32,60.03121623,6166012a41328d4db80950d0,61bbc5c79a1c66460f44041e,61bbc611b6193492b9382bfc,,,,,,72.66668791,25.33330301,1,0,0,response1disk,1.2867,14.00001949,-7.333344281,1,0,0,rectangle,14.00001949,-7.333344281,1,0,0,1,1,"[21,128,93,38,149,94,113,75,30,25]",14.00001949,-7.333344281,1,0,0,1,10,91,38,1,LightBlue,LightBlue.jpg,Purple,Purple.jpg,,
,,,,,,,,,,,,,,,,,,-4,,,,,,,,,,,,,,,,,,,,,,,,,,,6166012a41328d4db80950d0,001,2021-12-16_23h05.18.046,jm_natural_scene_simialrity_2-12-2021_version2,2021.2.3,Win32,60.03121623,6166012a41328d4db80950d0,61bbc5c79a1c66460f44041e,61bbc611b6193492b9382bfc,,,,,,-39.99998212,98.66665888,1,0,0,response7disk,0.8499,1.333393137,-2.666677475,1,0,0,rectangle,101.3333554,43.99999058,1,0,0,3,3,"[21,128,93,38,149,94,113,75,30,25]",8.666685998,-4.000010848,1,0,0,1,11,92,76,1,Pink,Pink.jpg,LightBlue,LightBlue.jpg,response1disk_3,rectangle
,,,,,,,,,,,,,,,,,,-4,,,,,,,,,,,,,,,,,,,,,,,,,,,6166012a41328d4db80950d0,001,2021-12-16_23h05.18.046,jm_natural_scene_simialrity_2-12-2021_version2,2021.2.3,Win32,60.03121623,6166012a41328d4db80950d0,61bbc5c79a1c66460f44041e,61bbc611b6193492b9382bfc,,,,,,-50.66660841,123.999993,1,0,0,response7disk,0.9665,-1.3333143,10.66665626,1,0,0,rectangle,-53.99998254,126.6666597,1,0,0,-4,-4,"[21,128,93,38,149,94,113,75,30,25]",-8.666607161,7.333322823,1,0,0,1,12,93,70,1,Purple,Purple.jpg,DarkGreen,DarkGreen.jpg,response7disk_3,rectangle
,,,,,,,,,,,,,,,,,,-4,,,,,,,,,,,,,,,,,,,,,,,,,,,6166012a41328d4db80950d0,001,2021-12-16_23h05.18.046,jm_natural_scene_simialrity_2-12-2021_version2,2021.2.3,Win32,60.03121623,6166012a41328d4db80950d0,61bbc5c79a1c66460f44041e,61bbc611b6193492b9382bfc,,,,,,-33.99998194,82.6666584,1,0,0,response7disk,0.7156,-3.333314359,-6.000010908,1,0,0,rectangle,-3.333314359,-6.000010908,1,0,0,-4,1,"[21,128,93,38,149,94,113,75,30,25]",-3.333314359,-6.000010908,1,0,0,1,13,94,4,1,Red,Red.jpg,Turquiose,Turquiose.jpg,,
,,,,,,,,,,,,,,,,,,3,,,,,,,,,,,,,,,,,,,,,,,,,,,6166012a41328d4db80950d0,001,2021-12-16_23h05.18.046,jm_natural_scene_simialrity_2-12-2021_version2,2021.2.3,Win32,60.03121623,6166012a41328d4db80950d0,61bbc5c79a1c66460f44041e,61bbc611b6193492b9382bfc,,,,,,114.6666892,35.33330331,1,0,0,response1disk,1.2364,6.000019252,7.333322823,1,0,0,rectangle,6.000019252,7.333322823,1,0,0,-4,3,"[21,128,93,38,149,94,113,75,30,25]",6.000019252,7.333322823,1,0,0,1,14,95,1,1,Red,Red.jpg,Yellow,Yellow.jpg,,
,,,,,,,,,,,,,,,,,,3,,,,,,,,,,,,,,,,,,,,,,,,,,,6166012a41328d4db80950d0,001,2021-12-16_23h05.18.046,jm_natural_scene_simialrity_2-12-2021_version2,2021.2.3,Win32,60.03121623,6166012a41328d4db80950d0,61bbc5c79a1c66460f44041e,61bbc611b6193492b9382bfc,,,,,,91.33335513,29.99999017,1,0,0,response1disk,1.2658,4.000019193,-16.66667789,1,0,0,rectangle,4.000019193,-16.66667789,1,0,0,-4,1,"[21,128,93,38,149,94,113,75,30,25]",4.000019193,-16.66667789,1,0,0,1,15,96,41,1,DarkBlue,DarkBlue.jpg,Purple,Purple.jpg,,
,,,,,,,,,,,,,,,,,,4,,,,,,,,,,,,,,,,,,,,,,,,,,,6166012a41328d4db80950d0,001,2021-12-16_23h05.18.046,jm_natural_scene_simialrity_2-12-2021_version2,2021.2.3,Win32,60.03121623,6166012a41328d4db80950d0,61bbc5c79a1c66460f44041e,61bbc611b6193492b9382bfc,,,,,,48.66668719,89.33330492,1,0,0,response1disk,0.7684,6.666685939,5.99998945,1,0,0,rectangle,6.666685939,5.99998945,1,0,0,-4,-3,"[21,128,93,38,149,94,113,75,30,25]",6.666685939,5.99998945,1,0,0,1,16,97,39,1,DarkBlue,DarkBlue.jpg,DarkBlue,DarkBlue.jpg,,
,,,,,,,,,,,,,,,,,,-4,,,,,,,,,,,,,,,,,,,,,,,,,,,6166012a41328d4db80950d0,001,2021-12-16_23h05.18.046,jm_natural_scene_simialrity_2-12-2021_version2,2021.2.3,Win32,60.03121623,6166012a41328d4db80950d0,61bbc5c79a1c66460f44041e,61bbc611b6193492b9382bfc,,,,,,-55.33331591,101.3333053,1,0,0,response7disk,0.9651,-6.666607102,3.333322704,1,0,0,rectangle,-6.666607102,3.333322704,1,0,0,-4,-4,"[21,128,93,38,149,94,113,75,30,25]",-6.666607102,3.333322704,1,0,0,1,17,98,53,1,LightGreen,LightGreen.jpg,Yellow,Yellow.jpg,,
,,,,,,,,,,,,,,,,,,-4,,,,,,,,,,,,,,,,,,,,,,,,,,,6166012a41328d4db80950d0,001,2021-12-16_23h05.18.046,jm_natural_scene_simialrity_2-12-2021_version2,2021.2.3,Win32,60.03121623,6166012a41328d4db80950d0,61bbc5c79a1c66460f44041e,61bbc611b6193492b9382bfc,,,,,,-40.66660812,99.99999225,1,0,0,response7disk,1.915,-19.99998152,5.99998945,1,0,0,rectangle,-19.99998152,5.99998945,1,0,0,-4,-2,"[21,128,93,38,149,94,113,75,30,25]",-19.99998152,5.99998945,1,0,0,1,18,99,74,1,Purple,Purple.jpg,Turquiose,Turquiose.jpg,,
,,,,,,,,,,,,,,,,,,-4,,,,,,,,,,,,,,,,,,,,,,,,,,,6166012a41328d4db80950d0,001,2021-12-16_23h05.18.046,jm_natural_scene_simialrity_2-12-2021_version2,2021.2.3,Win32,60.03121623,6166012a41328d4db80950d0,61bbc5c79a1c66460f44041e,61bbc611b6193492b9382bfc,,,,,,-53.99998254,116.6666594,1,0,0,response7disk,0.9832,0.66668576,-8.000010967,1,0,0,rectangle,0.66668576,-8.000010967,1,0,0,-4,-4,"[21,128,93,38,149,94,113,75,30,25]",0.66668576,-8.000010967,1,0,0,1,19,100,49,1,LightBlue,LightBlue.jpg,Red,Red.jpg,,
,,,,,,,,,,,,,,,,,,3,,,,,,,,,,,,,,,,,,,,,,,,,,,6166012a41328d4db80950d0,001,2021-12-16_23h05.18.046,jm_natural_scene_simialrity_2-12-2021_version2,2021.2.3,Win32,60.03121623,6166012a41328d4db80950d0,61bbc5c79a1c66460f44041e,61bbc611b6193492b9382bfc,,,,,,80.00002146,47.33330367,1,0,0,response1disk,1.1206,8.666685998,-1.07288E-05,1,0,0,rectangle,8.666685998,-1.07288E-05,1,0,0,-4,-2,"[21,128,93,38,149,94,113,75,30,25]",8.666685998,-1.07288E-05,1,0,0,1,20,101,45,1,Yellow,Yellow.jpg,Red,Red.jpg,,
,,,,,,,,,,,,,,,,,,-4,,,,,,,,,,,,,,,,,,,,,,,,,,,6166012a41328d4db80950d0,001,2021-12-16_23h05.18.046,jm_natural_scene_simialrity_2-12-2021_version2,2021.2.3,Win32,60.03121623,6166012a41328d4db80950d0,61bbc5c79a1c66460f44041e,61bbc611b6193492b9382bfc,,,,,,-71.33331639,118.6666595,1,0,0,response7disk,1.0001,-8.666607161,-12.00001109,1,0,0,rectangle,-8.666607161,-12.00001109,1,0,0,-4,2,"[21,128,93,38,149,94,113,75,30,25]",-8.666607161,-12.00001109,1,0,0,1,21,102,56,1,LightBlue,LightBlue.jpg,Yellow,Yellow.jpg,,
,,,,,,,,,,,,,,,,,,4,,,,,,,,,,,,,,,,,,,,,,,,,,,6166012a41328d4db80950d0,001,2021-12-16_23h05.18.046,jm_natural_scene_simialrity_2-12-2021_version2,2021.2.3,Win32,60.03121623,6166012a41328d4db80950d0,61bbc5c79a1c66460f44041e,61bbc611b6193492b9382bfc,,,,,,56.66668743,121.3333262,1,0,0,response1disk,0.8874,9.333393375,7.99998951,1,0,0,rectangle,9.333393375,7.99998951,1,0,0,-4,-4,"[21,128,93,38,149,94,113,75,30,25]",9.333393375,7.99998951,1,0,0,1,22,103,42,1,Pink,Pink.jpg,Pink,Pink.jpg,,
,,,,,,,,,,,,,,,,,,-4,,,,,,,,,,,,,,,,,,,,,,,,,,,6166012a41328d4db80950d0,001,2021-12-16_23h05.18.046,jm_natural_scene_simialrity_2-12-2021_version2,2021.2.3,Win32,60.03121623,6166012a41328d4db80950d0,61bbc5c79a1c66460f44041e,61bbc611b6193492b9382bfc,,,,,,-35.33331531,75.3333045,1,0,0,response7disk,4.8982,1.90735E-05,-6.666677594,1,0,0,rectangle,1.90735E-05,-6.666677594,1,0,0,-4,-1,"[21,128,93,38,149,94,113,75,30,25]",1.90735E-05,-6.666677594,1,0,0,1,23,104,13,1,Yellow,Yellow.jpg,LightBlue,LightBlue.jpg,,
,,,,,,,,,,,,,,,,,,4,,,,,,,,,,,,,,,,,,,,,,,,,,,6166012a41328d4db80950d0,001,2021-12-16_23h05.18.046,jm_natural_scene_simialrity_2-12-2021_version2,2021.2.3,Win32,60.03121623,6166012a41328d4db80950d0,61bbc5c79a1c66460f44041e,61bbc611b6193492b9382bfc,,,,,,58.66668749,127.3333264,1,0,0,response1disk,1.2007,-7.999981165,9.999989569,1,0,0,rectangle,-7.999981165,9.999989569,1,0,0,-4,-4,"[21,128,93,38,149,94,113,75,30,25]",-7.999981165,9.999989569,1,0,0,1,24,105,35,1,LightBlue,LightBlue.jpg,LightBlue,LightBlue.jpg,,
,,,,,,,,,,,,,,,,,,4,,,,,,,,,,,,,,,,,,,,,,,,,,,6166012a41328d4db80950d0,001,2021-12-16_23h05.18.046,jm_natural_scene_simialrity_2-12-2021_version2,2021.2.3,Win32,60.03121623,6166012a41328d4db80950d0,61bbc5c79a1c66460f44041e,61bbc611b6193492b9382bfc,,,,,,78.66668808,117.3333261,1,0,0,response1disk,1.0635,4.000019193,21.3333029,1,0,0,rectangle,4.000019193,21.3333029,1,0,0,-4,2,"[21,128,93,38,149,94,113,75,30,25]",4.000019193,21.3333029,1,0,0,1,25,106,18,1,LightGreen,LightGreen.jpg,DarkGreen,DarkGreen.jpg,,
,,,,,,,,,,,,,,,,,,3,,,,,,,,,,,,,,,,,,,,,,,,,,,6166012a41328d4db80950d0,001,2021-12-16_23h05.18.046,jm_natural_scene_simialrity_2-12-2021_version2,2021.2.3,Win32,60.03121623,6166012a41328d4db80950d0,61bbc5c79a1c66460f44041e,61bbc611b6193492b9382bfc,,,,,,94.00002187,34.66665697,1,0,0,response1disk,1.8833,4.666685879,-6.000010908,1,0,0,rectangle,4.666685879,-6.000010908,1,0,0,-4,-4,"[21,128,93,38,149,94,113,75,30,25]",4.666685879,-6.000010908,1,0,0,1,26,107,27,1,DarkGreen,DarkGreen.jpg,DarkBlue,DarkBlue.jpg,,
,,,,,,,,,,,,,,,,,,-4,,,,,,,,,,,,,,,,,,,,,,,,,,,6166012a41328d4db80950d0,001,2021-12-16_23h05.18.046,jm_natural_scene_simialrity_2-12-2021_version2,2021.2.3,Win32,60.03121623,6166012a41328d4db80950d0,61bbc5c79a1c66460f44041e,61bbc611b6193492b9382bfc,,,,,,-52.66660847,111.9999926,1,0,0,response7disk,1.7158,-6.666607102,7.333322823,1,0,0,rectangle,-6.666607102,7.333322823,1,0,0,-4,3,"[21,128,93,38,149,94,113,75,30,25]",-6.666607102,7.333322823,1,0,0,1,27,108,57,1,DarkBlue,DarkBlue.jpg,Yellow,Yellow.jpg,,
,,,,,,,,,,,,,,,,,,-4,,,,,,,,,,,,,,,,,,,,,,,,,,,6166012a41328d4db80950d0,001,2021-12-16_23h05.18.046,jm_natural_scene_simialrity_2-12-2021_version2,2021.2.3,Win32,60.03121623,6166012a41328d4db80950d0,61bbc5c79a1c66460f44041e,61bbc611b6193492b9382bfc,,,,,,-35.999982,113.9999927,1,0,0,response7disk,1.0662,5.333393256,-3.333344162,1,0,0,rectangle,5.333393256,-3.333344162,1,0,0,-4,-1,"[21,128,93,38,149,94,113,75,30,25]",5.333393256,-3.333344162,1,0,0,1,28,109,28,1,DarkGreen,DarkGreen.jpg,Pink,Pink.jpg,,
,,,,,,,,,,,,,,,,,,3,,,,,,,,,,,,,,,,,,,,,,,,,,,6166012a41328d4db80950d0,001,2021-12-16_23h05.18.046,jm_natural_scene_simialrity_2-12-2021_version2,2021.2.3,Win32,60.03121623,6166012a41328d4db80950d0,61bbc5c79a1c66460f44041e,61bbc611b6193492b9382bfc,,,,,,88.66668838,45.33330361,1,0,0,response1disk,2.5668,1.333393137,9.999989569,1,0,0,rectangle,1.333393137,9.999989569,1,0,0,-4,-1,"[21,128,93,38,149,94,113,75,30,25]",1.333393137,9.999989569,1,0,0,1,29,110,51,1,Pink,Pink.jpg,Red,Red.jpg,,
,,,,,,,,,,,,,,,,,,-2,,,,,,,,,,,,,,,,,,,,,,,,,,,6166012a41328d4db80950d0,001,2021-12-16_23h05.18.046,jm_natural_scene_simialrity_2-12-2021_version2,2021.2.3,Win32,60.03121623,6166012a41328d4db80950d0,61bbc5c79a1c66460f44041e,61bbc611b6193492b9382bfc,,,,,,-83.99998343,-35.33334512,1,0,0,response5disk,1.683,6.000019252,5.99998945,1,0,0,rectangle,6.000019252,5.99998945,1,0,0,-4,-4,"[21,128,93,38,149,94,113,75,30,25]",6.000019252,5.99998945,1,0,0,1,30,111,80,1,Purple,Purple.jpg,Pink,Pink.jpg,,
,,,,,,,,,,,,,,,,,,-4,,,,,,,,,,,,,,,,,,,,,,,,,,,6166012a41328d4db80950d0,001,2021-12-16_23h05.18.046,jm_natural_scene_simialrity_2-12-2021_version2,2021.2.3,Win32,60.03121623,6166012a41328d4db80950d0,61bbc5c79a1c66460f44041e,61bbc611b6193492b9382bfc,,,,,,-28.66660776,101.9999923,1,0,0,response7disk,0.8207,-7.999981165,-2.666677475,1,0,0,rectangle,-39.33331543,97.33330516,1,0,0,-4,-4,"[21,128,93,38,149,94,113,75,30,25]",1.333393137,3.333322704,1,0,0,1,31,112,34,1,Turquiose,Turquiose.jpg,Purple,Purple.jpg,response7disk_3,rectangle
,,,,,,,,,,,,,,,,,,2,,,,,,,,,,,,,,,,,,,,,,,,,,,6166012a41328d4db80950d0,001,2021-12-16_23h05.18.046,jm_natural_scene_simialrity_2-12-2021_version2,2021.2.3,Win32,60.03121623,6166012a41328d4db80950d0,61bbc5c79a1c66460f44041e,61bbc611b6193492b9382bfc,,,,,,92.00002182,-40.66667861,1,0,0,response3disk,1.8002,13.33339349,-2.000010788,1,0,0,rectangle,13.33339349,-2.000010788,1,0,0,-4,-2,"[21,128,93,38,149,94,113,75,30,25]",13.33339349,-2.000010788,1,0,0,1,32,113,36,1,LightBlue,LightBlue.jpg,DarkBlue,DarkBlue.jpg,,
,,,,,,,,,,,,,,,,,,2,,,,,,,,,,,,,,,,,,,,,,,,,,,6166012a41328d4db80950d0,001,2021-12-16_23h05.18.046,jm_natural_scene_simialrity_2-12-2021_version2,2021.2.3,Win32,60.03121623,6166012a41328d4db80950d0,61bbc5c79a1c66460f44041e,61bbc611b6193492b9382bfc,,,,,,94.00002187,-37.33334517,1,0,0,response3disk,1.4355,-0.666606923,7.333322823,1,0,0,rectangle,-0.666606923,7.333322823,1,0,0,-4,-4,"[21,128,93,38,149,94,113,75,30,25]",-0.666606923,7.333322823,1,0,0,1,33,114,32,1,Turquiose,Turquiose.jpg,DarkBlue,DarkBlue.jpg,,
,,,,,,,,,,,,,,,,,,4,,,,,,,,,,,,,,,,,,,,,,,,,,,6166012a41328d4db80950d0,001,2021-12-16_23h05.18.046,jm_natural_scene_simialrity_2-12-2021_version2,2021.2.3,Win32,60.03121623,6166012a41328d4db80950d0,61bbc5c79a1c66460f44041e,61bbc611b6193492b9382bfc,,,,,,28.66668659,109.9999925,1,0,0,response1disk,0.8184,-15.33331472,-8.666677654,1,0,0,rectangle,-15.33331472,-8.666677654,1,0,0,-4,-3,"[21,128,93,38,149,94,113,75,30,25]",-15.33331472,-8.666677654,1,0,0,1,34,115,9,1,Yellow,Yellow.jpg,Yellow,Yellow.jpg,,
,,,,,,,,,,,,,,,,,,-4,,,,,,,,,,,,,,,,,,,,,,,,,,,6166012a41328d4db80950d0,001,2021-12-16_23h05.18.046,jm_natural_scene_simialrity_2-12-2021_version2,2021.2.3,Win32,60.03121623,6166012a41328d4db80950d0,61bbc5c79a1c66460f44041e,61bbc611b6193492b9382bfc,,,,,,-39.99998212,111.9999926,1,0,0,response7disk,0.8174,3.333393196,0.666655958,1,0,0,rectangle,3.333393196,0.666655958,1,0,0,-4,1,"[21,128,93,38,149,94,113,75,30,25]",3.333393196,0.666655958,1,0,0,1,35,116,2,1,Red,Red.jpg,LightGreen,LightGreen.jpg,,
,,,,,,,,,,,,,,,,,,-4,,,,,,,,,,,,,,,,,,,,,,,,,,,6166012a41328d4db80950d0,001,2021-12-16_23h05.18.046,jm_natural_scene_simialrity_2-12-2021_version2,2021.2.3,Win32,60.03121623,6166012a41328d4db80950d0,61bbc5c79a1c66460f44041e,61bbc611b6193492b9382bfc,,,,,,-31.99998188,93.33330504,1,0,0,response7disk,1.0534,-1.3333143,5.333322763,1,0,0,rectangle,-1.3333143,5.333322763,1,0,0,-4,3,"[21,128,93,38,149,94,113,75,30,25]",-1.3333143,5.333322763,1,0,0,1,36,117,14,1,Yellow,Yellow.jpg,DarkBlue,DarkBlue.jpg,,
,,,,,,,,,,,,,,,,,,-4,,,,,,,,,,,,,,,,,,,,,,,,,,,6166012a41328d4db80950d0,001,2021-12-16_23h05.18.046,jm_natural_scene_simialrity_2-12-2021_version2,2021.2.3,Win32,60.03121623,6166012a41328d4db80950d0,61bbc5c79a1c66460f44041e,61bbc611b6193492b9382bfc,,,,,,-33.33331525,91.33330498,1,0,0,response7disk,0.7167,-1.3333143,3.99998939,1,0,0,rectangle,-1.3333143,3.99998939,1,0,0,-4,-4,"[21,128,93,38,149,94,113,75,30,25]",-1.3333143,3.99998939,1,0,0,1,37,118,78,1,Pink,Pink.jpg,DarkBlue,DarkBlue.jpg,,
,,,,,,,,,,,,,,,,,,2,,,,,,,,,,,,,,,,,,,,,,,,,,,6166012a41328d4db80950d0,001,2021-12-16_23h05.18.046,jm_natural_scene_simialrity_2-12-2021_version2,2021.2.3,Win32,60.03121623,6166012a41328d4db80950d0,61bbc5c79a1c66460f44041e,61bbc611b6193492b9382bfc,,,,,,94.00002187,-62.00001258,1,0,0,response3disk,1.3838,-5.999981105,14.66665637,1,0,0,rectangle,-5.999981105,14.66665637,1,0,0,-4,3,"[21,128,93,38,149,94,113,75,30,25]",-5.999981105,14.66665637,1,0,0,1,38,119,68,1,DarkBlue,DarkBlue.jpg,DarkGreen,DarkGreen.jpg,,
,,,,,,,,,,,,,,,,,,-4,,,,,,,,,,,,,,,,,,,,,,,,,,,6166012a41328d4db80950d0,001,2021-12-16_23h05.18.046,jm_natural_scene_simialrity_2-12-2021_version2,2021.2.3,Win32,60.03121623,6166012a41328d4db80950d0,61bbc5c79a1c66460f44041e,61bbc611b6193492b9382bfc,,,,,,-46.66660829,88.66665858,1,0,0,response7disk,0.7168,1.333393137,-11.3333444,1,0,0,rectangle,1.333393137,-11.3333444,1,0,0,-4,2,"[21,128,93,38,149,94,113,75,30,25]",1.333393137,-11.3333444,1,0,0,1,39,120,22,1,LightGreen,LightGreen.jpg,Pink,Pink.jpg,,
,,,,,,,,,,,,,,,,,,3,,,,,,,,,,,,,,,,,,,,,,,,,,,6166012a41328d4db80950d0,001,2021-12-16_23h05.18.046,jm_natural_scene_simialrity_2-12-2021_version2,2021.2.3,Win32,60.03121623,6166012a41328d4db80950d0,61bbc5c79a1c66460f44041e,61bbc611b6193492b9382bfc,,,,,,116.6666892,50.66665745,1,0,0,response1disk,2.7526,-6.666607102,-10.00001103,1,0,0,rectangle,-6.666607102,-10.00001103,1,0,0,-4,1,"[21,128,93,38,149,94,113,75,30,25]",-6.666607102,-10.00001103,1,0,0,1,40,121,58,1,Pink,Pink.jpg,Yellow,Yellow.jpg,,
,,,,,,,,,,,,,,,,,,-4,,,,,,,,,,,,,,,,,,,,,,,,,,,6166012a41328d4db80950d0,001,2021-12-16_23h05.18.046,jm_natural_scene_simialrity_2-12-2021_version2,2021.2.3,Win32,60.03121623,6166012a41328d4db80950d0,61bbc5c79a1c66460f44041e,61bbc611b6193492b9382bfc,,,,,,-45.33331561,115.9999927,1,0,0,response7disk,1.0667,-5.333314419,2.666656017,1,0,0,rectangle,-5.333314419,2.666656017,1,0,0,-4,2,"[21,128,93,38,149,94,113,75,30,25]",-5.333314419,2.666656017,1,0,0,1,41,122,10,1,Yellow,Yellow.jpg,LightGreen,LightGreen.jpg,,
,,,,,,,,,,,,,,,,,,-4,,,,,,,,,,,,,,,,,,,,,,,,,,,6166012a41328d4db80950d0,001,2021-12-16_23h05.18.046,jm_natural_scene_simialrity_2-12-2021_version2,2021.2.3,Win32,60.03121623,6166012a41328d4db80950d0,61bbc5c79a1c66460f44041e,61bbc611b6193492b9382bfc,,,,,,-47.33331567,133.3333266,1,0,0,response7disk,0.815,2.66668582,-13.33334446,1,0,0,rectangle,2.66668582,-13.33334446,1,0,0,-4,-1,"[21,128,93,38,149,94,113,75,30,25]",2.66668582,-13.33334446,1,0,0,1,42,123,67,1,LightBlue,LightBlue.jpg,DarkGreen,DarkGreen.jpg,,
,,,,,,,,,,,,,,,,,,3,,,,,,,,,,,,,,,,,,,,,,,,,,,6166012a41328d4db80950d0,001,2021-12-16_23h05.18.046,jm_natural_scene_simialrity_2-12-2021_version2,2021.2.3,Win32,60.03121623,6166012a41328d4db80950d0,61bbc5c79a1c66460f44041e,61bbc611b6193492b9382bfc,,,,,,110.666689,43.99999058,1,0,0,response1disk,0.9663,2.000019133,0.666655958,1,0,0,rectangle,2.000019133,0.666655958,1,0,0,-4,2,"[21,128,93,38,149,94,113,75,30,25]",2.000019133,0.666655958,1,0,0,1,43,124,15,1,Yellow,Yellow.jpg,Pink,Pink.jpg,,
,,,,,,,,,,,,,,,,,,2,,,,,,,,,,,,,,,,,,,,,,,,,,,6166012a41328d4db80950d0,001,2021-12-16_23h05.18.046,jm_natural_scene_simialrity_2-12-2021_version2,2021.2.3,Win32,60.03121623,6166012a41328d4db80950d0,61bbc5c79a1c66460f44041e,61bbc611b6193492b9382bfc,,,,,,97.33335531,-62.00001258,1,0,0,response3disk,1.3174,-0.666606923,0.666655958,1,0,0,rectangle,-0.666606923,0.666655958,1,0,0,-4,1,"[21,128,93,38,149,94,113,75,30,25]",-0.666606923,0.666655958,1,0,0,1,44,125,25,1,DarkGreen,DarkGreen.jpg,Turquiose,Turquiose.jpg,,
,,,,,,,,,,,,,,,,,,2,,,,,,,,,,,,,,,,,,,,,,,,,,,6166012a41328d4db80950d0,001,2021-12-16_23h05.18.046,jm_natural_scene_simialrity_2-12-2021_version2,2021.2.3,Win32,60.03121623,6166012a41328d4db80950d0,61bbc5c79a1c66460f44041e,61bbc611b6193492b9382bfc,,,,,,49.33335388,-22.66667807,1,0,0,response3disk,0.8674,-10.66660722,-4.000010848,1,0,0,rectangle,-10.66660722,-4.000010848,1,0,0,-4,2,"[21,128,93,38,149,94,113,75,30,25]",-10.66660722,-4.000010848,1,0,0,1,45,126,66,1,Turquiose,Turquiose.jpg,DarkGreen,DarkGreen.jpg,,
,,,,,,,,,,,,,,,,,,-1,,,,,,,,,,,,,,,,,,,,,,,,,,,6166012a41328d4db80950d0,001,2021-12-16_23h05.18.046,jm_natural_scene_simialrity_2-12-2021_version2,2021.2.3,Win32,60.03121623,6166012a41328d4db80950d0,61bbc5c79a1c66460f44041e,61bbc611b6193492b9382bfc,,,,,,-41.33331549,-72.00001287,1,0,0,response5disk,2.3997,-7.333314478,-6.000010908,1,0,0,rectangle,-85.99998349,41.99999052,1,0,0,-3,-3,"[21,128,93,38,149,94,113,75,30,25]",4.666685879,-4.000010848,1,0,0,1,46,127,31,1,Turquiose,Turquiose.jpg,LightBlue,LightBlue.jpg,response7disk_3,rectangle
,,,,,,,,,,,,,,,,,,-4,,,,,,,,,,,,,,,,,,,,,,,,,,,6166012a41328d4db80950d0,001,2021-12-16_23h05.18.046,jm_natural_scene_simialrity_2-12-2021_version2,2021.2.3,Win32,60.03121623,6166012a41328d4db80950d0,61bbc5c79a1c66460f44041e,61bbc611b6193492b9382bfc,,,,,,-57.99998266,109.9999925,1,0,0,response7disk,0.9159,12.00001943,2.666656017,1,0,0,rectangle,12.00001943,2.666656017,1,0,0,-3,-3,"[21,128,93,38,149,94,113,75,30,25]",12.00001943,2.666656017,1,0,0,1,47,128,37,1,LightBlue,LightBlue.jpg,Pink,Pink.jpg,,
,,,,,,,,,,,,,,,,,,-4,,,,,,,,,,,,,,,,,,,,,,,,,,,6166012a41328d4db80950d0,001,2021-12-16_23h05.18.046,jm_natural_scene_simialrity_2-12-2021_version2,2021.2.3,Win32,60.03121623,6166012a41328d4db80950d0,61bbc5c79a1c66460f44041e,61bbc611b6193492b9382bfc,,,,,,-42.66660817,115.333326,1,0,0,response7disk,0.7872,-7.333314478,-4.000010848,1,0,0,rectangle,-7.333314478,-4.000010848,1,0,0,-3,3,"[21,128,93,38,149,94,113,75,30,25]",-7.333314478,-4.000010848,1,0,0,1,48,129,64,1,Pink,Pink.jpg,LightGreen,LightGreen.jpg,,
,,,,,,,,,,,,,,,,,,-4,,,,,,,,,,,,,,,,,,,,,,,,,,,6166012a41328d4db80950d0,001,2021-12-16_23h05.18.046,jm_natural_scene_simialrity_2-12-2021_version2,2021.2.3,Win32,60.03121623,6166012a41328d4db80950d0,61bbc5c79a1c66460f44041e,61bbc611b6193492b9382bfc,,,,,,-67.99998295,121.3333262,1,0,0,response7disk,0.7338,-14.66660734,5.99998945,1,0,0,rectangle,-14.66660734,5.99998945,1,0,0,-3,-2,"[21,128,93,38,149,94,113,75,30,25]",-14.66660734,5.99998945,1,0,0,1,49,130,46,1,LightGreen,LightGreen.jpg,Red,Red.jpg,,
,,,,,,,,,,,,,,,,,,4,,,,,,,,,,,,,,,,,,,,,,,,,,,6166012a41328d4db80950d0,001,2021-12-16_23h05.18.046,jm_natural_scene_simialrity_2-12-2021_version2,2021.2.3,Win32,60.03121623,6166012a41328d4db80950d0,61bbc5c79a1c66460f44041e,61bbc611b6193492b9382bfc,,,,,,56.66668743,99.33330522,1,0,0,response1disk,0.886,8.666685998,-13.33334446,1,0,0,rectangle,8.666685998,-13.33334446,1,0,0,-3,-3,"[21,128,93,38,149,94,113,75,30,25]",8.666685998,-13.33334446,1,0,0,1,50,131,30,1,Turquiose,Turquiose.jpg,Turquiose,Turquiose.jpg,,
,,,,,,,,,,,,,,,,,,4,,,,,,,,,,,,,,,,,,,,,,,,,,,6166012a41328d4db80950d0,001,2021-12-16_23h05.18.046,jm_natural_scene_simialrity_2-12-2021_version2,2021.2.3,Win32,60.03121623,6166012a41328d4db80950d0,61bbc5c79a1c66460f44041e,61bbc611b6193492b9382bfc,,,,,,51.33335394,87.99999189,1,0,0,response1disk,0.767,-3.333314359,-6.666677594,1,0,0,rectangle,-3.333314359,-6.666677594,1,0,0,-3,2,"[21,128,93,38,149,94,113,75,30,25]",-3.333314359,-6.666677594,1,0,0,1,51,132,24,1,DarkGreen,DarkGreen.jpg,DarkGreen,DarkGreen.jpg,,
,,,,,,,,,,,,,,,,,,-2,,,,,,,,,,,,,,,,,,,,,,,,,,,6166012a41328d4db80950d0,001,2021-12-16_23h05.18.046,jm_natural_scene_simialrity_2-12-2021_version2,2021.2.3,Win32,60.03121623,6166012a41328d4db80950d0,61bbc5c79a1c66460f44041e,61bbc611b6193492b9382bfc,,,,,,-71.33331639,-39.33334523,1,0,0,response5disk,1.5691,6.666685939,4.666656077,1,0,0,rectangle,6.666685939,4.666656077,1,0,0,-3,-3,"[21,128,93,38,149,94,113,75,30,25]",6.666685939,4.666656077,1,0,0,1,52,133,79,1,Purple,Purple.jpg,DarkBlue,DarkBlue.jpg,,
,,,,,,,,,,,,,,,,,,-4,,,,,,,,,,,,,,,,,,,,,,,,,,,6166012a41328d4db80950d0,001,2021-12-16_23h05.18.046,jm_natural_scene_simialrity_2-12-2021_version2,2021.2.3,Win32,60.03121623,6166012a41328d4db80950d0,61bbc5c79a1c66460f44041e,61bbc611b6193492b9382bfc,,,,,,-65.99998289,133.3333266,1,0,0,response7disk,0.8382,-7.999981165,16.66665643,1,0,0,rectangle,-7.999981165,16.66665643,1,0,0,-3,-2,"[21,128,93,38,149,94,113,75,30,25]",-7.999981165,16.66665643,1,0,0,1,53,134,54,1,DarkGreen,DarkGreen.jpg,Yellow,Yellow.jpg,,
,,,,,,,,,,,,,,,,,,-4,,,,,,,,,,,,,,,,,,,,,,,,,,,6166012a41328d4db80950d0,001,2021-12-16_23h05.18.046,jm_natural_scene_simialrity_2-12-2021_version2,2021.2.3,Win32,60.03121623,6166012a41328d4db80950d0,61bbc5c79a1c66460f44041e,61bbc611b6193492b9382bfc,,,,,,-57.33331597,123.999993,1,0,0,response7disk,0.75,-5.999981105,1.333322644,1,0,0,rectangle,-5.999981105,1.333322644,1,0,0,-3,3,"[21,128,93,38,149,94,113,75,30,25]",-5.999981105,1.333322644,1,0,0,1,54,135,3,1,Red,Red.jpg,DarkGreen,DarkGreen.jpg,,
,,,,,,,,,,,,,,,,,,-4,,,,,,,,,,,,,,,,,,,,,,,,,,,6166012a41328d4db80950d0,001,2021-12-16_23h05.18.046,jm_natural_scene_simialrity_2-12-2021_version2,2021.2.3,Win32,60.03121623,6166012a41328d4db80950d0,61bbc5c79a1c66460f44041e,61bbc611b6193492b9382bfc,,,,,,-39.99998212,96.66665882,1,0,0,response7disk,0.7036,-12.66660728,3.333322704,1,0,0,rectangle,-12.66660728,3.333322704,1,0,0,-3,-2,"[21,128,93,38,149,94,113,75,30,25]",-12.66660728,3.333322704,1,0,0,1,55,136,73,1,Pink,Pink.jpg,Turquiose,Turquiose.jpg,,
,,,,,,,,,,,,,,,,,,-4,,,,,,,,,,,,,,,,,,,,,,,,,,,6166012a41328d4db80950d0,001,2021-12-16_23h05.18.046,jm_natural_scene_simialrity_2-12-2021_version2,2021.2.3,Win32,60.03121623,6166012a41328d4db80950d0,61bbc5c79a1c66460f44041e,61bbc611b6193492b9382bfc,,,,,,-33.33331525,100.6666589,1,0,0,response7disk,0.7697,4.666685879,-4.666677535,1,0,0,rectangle,4.666685879,-4.666677535,1,0,0,-3,-4,"[21,128,93,38,149,94,113,75,30,25]",4.666685879,-4.666677535,1,0,0,1,56,137,29,1,DarkGreen,DarkGreen.jpg,Purple,Purple.jpg,,
,,,,,,,,,,,,,,,,,,-4,,,,,,,,,,,,,,,,,,,,,,,,,,,6166012a41328d4db80950d0,001,2021-12-16_23h05.18.046,jm_natural_scene_simialrity_2-12-2021_version2,2021.2.3,Win32,60.03121623,6166012a41328d4db80950d0,61bbc5c79a1c66460f44041e,61bbc611b6193492b9382bfc,,,,,,-33.99998194,77.9999916,1,0,0,response7disk,0.7698,6.666685939,-8.000010967,1,0,0,rectangle,6.666685939,-8.000010967,1,0,0,-3,-3,"[21,128,93,38,149,94,113,75,30,25]",6.666685939,-8.000010967,1,0,0,1,57,138,69,1,Pink,Pink.jpg,DarkGreen,DarkGreen.jpg,,
,,,,,,,,,,,,,,,,,,4,,,,,,,,,,,,,,,,,,,,,,,,,,,6166012a41328d4db80950d0,001,2021-12-16_23h05.18.046,jm_natural_scene_simialrity_2-12-2021_version2,2021.2.3,Win32,60.03121623,6166012a41328d4db80950d0,61bbc5c79a1c66460f44041e,61bbc611b6193492b9382bfc,,,,,,44.00002038,75.99999154,1,0,0,response1disk,0.884,6.666685939,-8.000010967,1,0,0,rectangle,6.666685939,-8.000010967,1,0,0,-3,-1,"[21,128,93,38,149,94,113,75,30,25]",6.666685939,-8.000010967,1,0,0,1,58,139,17,1,LightGreen,LightGreen.jpg,LightGreen,LightGreen.jpg,,
,,,,,,,,,,,,,,,,,,-4,,,,,,,,,,,,,,,,,,,,,,,,,,,6166012a41328d4db80950d0,001,2021-12-16_23h05.18.046,jm_natural_scene_simialrity_2-12-2021_version2,2021.2.3,Win32,60.03121623,6166012a41328d4db80950d0,61bbc5c79a1c66460f44041e,61bbc611b6193492b9382bfc,,,,,,-45.9999823,123.3333263,1,0,0,response7disk,0.7492,-7.333314478,4.666656077,1,0,0,rectangle,-7.333314478,4.666656077,1,0,0,-3,2,"[21,128,93,38,149,94,113,75,30,25]",-7.333314478,4.666656077,1,0,0,1,59,140,59,1,Purple,Purple.jpg,Yellow,Yellow.jpg,,
,,,,,,,,,,,,,,,,,,-4,,,,,,,,,,,,,,,,,,,,,,,,,,,6166012a41328d4db80950d0,001,2021-12-16_23h05.18.046,jm_natural_scene_simialrity_2-12-2021_version2,2021.2.3,Win32,60.03121623,6166012a41328d4db80950d0,61bbc5c79a1c66460f44041e,61bbc611b6193492b9382bfc,,,,,,-37.99998206,71.99999142,1,0,0,response7disk,0.735,-10.66660722,13.99998969,1,0,0,rectangle,-10.66660722,13.99998969,1,0,0,-3,-2,"[21,128,93,38,149,94,113,75,30,25]",-10.66660722,13.99998969,1,0,0,1,60,141,65,1,Purple,Purple.jpg,LightGreen,LightGreen.jpg,,
,,,,,,,,,,,,,,,,,,-4,,,,,,,,,,,,,,,,,,,,,,,,,,,6166012a41328d4db80950d0,001,2021-12-16_23h05.18.046,jm_natural_scene_simialrity_2-12-2021_version2,2021.2.3,Win32,60.03121623,6166012a41328d4db80950d0,61bbc5c79a1c66460f44041e,61bbc611b6193492b9382bfc,,,,,,-56.66660859,129.9999931,1,0,0,response7disk,0.883,-9.999981225,7.333322823,1,0,0,rectangle,-9.999981225,7.333322823,1,0,0,-3,-4,"[21,128,93,38,149,94,113,75,30,25]",-9.999981225,7.333322823,1,0,0,1,61,142,48,1,Turquiose,Turquiose.jpg,Red,Red.jpg,,
,,,,,,,,,,,,,,,,,,-1,,,,,,,,,,,,,,,,,,,,,,,,,,,6166012a41328d4db80950d0,001,2021-12-16_23h05.18.046,jm_natural_scene_simialrity_2-12-2021_version2,2021.2.3,Win32,60.03121623,6166012a41328d4db80950d0,61bbc5c79a1c66460f44041e,61bbc611b6193492b9382bfc,,,,,,-44.66660823,-79.33334643,1,0,0,response5disk,1.4213,-0.666606923,21.99998993,1,0,0,rectangle,-0.666606923,21.99998993,1,0,0,-3,3,"[21,128,93,38,149,94,113,75,30,25]",-0.666606923,21.99998993,1,0,0,1,62,143,71,1,LightBlue,LightBlue.jpg,Turquiose,Turquiose.jpg,,
,,,,,,,,,,,,,,,,,,-1,,,,,,,,,,,,,,,,,,,,,,,,,,,6166012a41328d4db80950d0,001,2021-12-16_23h05.18.046,jm_natural_scene_simialrity_2-12-2021_version2,2021.2.3,Win32,60.03121623,6166012a41328d4db80950d0,61bbc5c79a1c66460f44041e,61bbc611b6193492b9382bfc,,,,,,-31.33331519,-101.3333471,1,0,0,response5disk,1.283,-4.666607042,23.99998999,1,0,0,rectangle,-4.666607042,23.99998999,1,0,0,-3,-4,"[21,128,93,38,149,94,113,75,30,25]",-4.666607042,23.99998999,1,0,0,1,63,144,72,1,DarkBlue,DarkBlue.jpg,Turquiose,Turquiose.jpg,,
,,,,,,,,,,,,,,,,,,-4,,,,,,,,,,,,,,,,,,,,,,,,,,,6166012a41328d4db80950d0,001,2021-12-16_23h05.18.046,jm_natural_scene_simialrity_2-12-2021_version2,2021.2.3,Win32,60.03121623,6166012a41328d4db80950d0,61bbc5c79a1c66460f44041e,61bbc611b6193492b9382bfc,,,,,,-32.66660788,98.66665888,1,0,0,response7disk,3.3893,1.333393137,1.333322644,1,0,0,rectangle,1.333393137,1.333322644,1,0,0,-3,2,"[21,128,93,38,149,94,113,75,30,25]",1.333393137,1.333322644,1,0,0,1,64,145,11,1,Yellow,Yellow.jpg,DarkGreen,DarkGreen.jpg,,
,,,,,,,,,,,,,,,,,,-4,,,,,,,,,,,,,,,,,,,,,,,,,,,6166012a41328d4db80950d0,001,2021-12-16_23h05.18.046,jm_natural_scene_simialrity_2-12-2021_version2,2021.2.3,Win32,60.03121623,6166012a41328d4db80950d0,61bbc5c79a1c66460f44041e,61bbc611b6193492b9382bfc,,,,,,-52.66660847,133.3333266,1,0,0,response7disk,0.916,-7.999981165,4.666656077,1,0,0,rectangle,-7.999981165,4.666656077,1,0,0,-3,-4,"[21,128,93,38,149,94,113,75,30,25]",-7.999981165,4.666656077,1,0,0,1,65,146,6,1,Red,Red.jpg,DarkBlue,DarkBlue.jpg,,
,,,,,,,,,,,,,,,,,,-4,,,,,,,,,,,,,,,,,,,,,,,,,,,6166012a41328d4db80950d0,001,2021-12-16_23h05.18.046,jm_natural_scene_simialrity_2-12-2021_version2,2021.2.3,Win32,60.03121623,6166012a41328d4db80950d0,61bbc5c79a1c66460f44041e,61bbc611b6193492b9382bfc,,,,,,-39.99998212,81.99999171,1,0,0,response7disk,0.6663,-15.33331472,-5.333344221,1,0,0,rectangle,-15.33331472,-5.333344221,1,0,0,-3,-3,"[21,128,93,38,149,94,113,75,30,25]",-15.33331472,-5.333344221,1,0,0,1,66,147,33,1,Turquiose,Turquiose.jpg,Pink,Pink.jpg,,
,,,,,,,,,,,,,,,,,,2,,,,,,,,,,,,,,,,,,,,,,,,,,,6166012a41328d4db80950d0,001,2021-12-16_23h05.18.046,jm_natural_scene_simialrity_2-12-2021_version2,2021.2.3,Win32,60.03121623,6166012a41328d4db80950d0,61bbc5c79a1c66460f44041e,61bbc611b6193492b9382bfc,,,,,,78.0000214,-34.66667843,1,0,0,response3disk,1.216,4.000019193,0.666655958,1,0,0,rectangle,-101.999984,45.99999064,1,0,0,-3,-3,"[21,128,93,38,149,94,113,75,30,25]",6.666685939,-3.333344162,1,0,0,1,67,148,77,1,Purple,Purple.jpg,LightBlue,LightBlue.jpg,response7disk_3,rectangle
,,,,,,,,,,,,,,,,,,4,,,,,,,,,,,,,,,,,,,,,,,,,,,6166012a41328d4db80950d0,001,2021-12-16_23h05.18.046,jm_natural_scene_simialrity_2-12-2021_version2,2021.2.3,Win32,60.03121623,6166012a41328d4db80950d0,61bbc5c79a1c66460f44041e,61bbc611b6193492b9382bfc,,,,,,44.00002038,82.6666584,1,0,0,response1disk,0.8207,6.666685939,-2.000010788,1,0,0,rectangle,6.666685939,-2.000010788,1,0,0,-3,-3,"[21,128,93,38,149,94,113,75,30,25]",6.666685939,-2.000010788,1,0,0,1,68,149,0,1,Red,Red.jpg,Red,Red.jpg,,
,,,,,,,,,,,,,,,,,,-4,,,,,,,,,,,,,,,,,,,,,,,,,,,6166012a41328d4db80950d0,001,2021-12-16_23h05.18.046,jm_natural_scene_simialrity_2-12-2021_version2,2021.2.3,Win32,60.03121623,6166012a41328d4db80950d0,61bbc5c79a1c66460f44041e,61bbc611b6193492b9382bfc,,,,,,-53.99998254,119.3333262,1,0,0,response7disk,0.65,-2.666606983,-11.3333444,1,0,0,rectangle,-2.666606983,-11.3333444,1,0,0,-3,-4,"[21,128,93,38,149,94,113,75,30,25]",-2.666606983,-11.3333444,1,0,0,1,69,150,50,1,DarkBlue,DarkBlue.jpg,Red,Red.jpg,,
,,,,,,,,,,,,,,,,,,-4,,,,,,,,,,,,,,,,,,,,,,,,,,,6166012a41328d4db80950d0,001,2021-12-16_23h05.18.046,jm_natural_scene_simialrity_2-12-2021_version2,2021.2.3,Win32,60.03121623,6166012a41328d4db80950d0,61bbc5c79a1c66460f44041e,61bbc611b6193492b9382bfc,,,,,,-28.66660776,82.6666584,1,0,0,response7disk,1.7011,-5.333314419,-13.33334446,1,0,0,rectangle,-5.333314419,-13.33334446,1,0,0,-3,-2,"[21,128,93,38,149,94,113,75,30,25]",-5.333314419,-13.33334446,1,0,0,1,70,151,52,1,Purple,Purple.jpg,Red,Red.jpg,,
,,,,,,,,,,,,,,,,,,-4,,,,,,,,,,,,,,,,,,,,,,,,,,,6166012a41328d4db80950d0,001,2021-12-16_23h05.18.046,jm_natural_scene_simialrity_2-12-2021_version2,2021.2.3,Win32,60.03121623,6166012a41328d4db80950d0,61bbc5c79a1c66460f44041e,61bbc611b6193492b9382bfc,,,,,,-39.99998212,63.33330415,1,0,0,response7disk,0.9992,-13.33331466,-7.333344281,1,0,0,rectangle,-13.33331466,-7.333344281,1,0,0,-3,-2,"[21,128,93,38,149,94,113,75,30,25]",-13.33331466,-7.333344281,1,0,0,1,71,152,40,1,DarkBlue,DarkBlue.jpg,Pink,Pink.jpg,,
,,,,,,,,,,,,,,,,,,1,,,,,,,,,,,,,,,,,,,,,,,,,,,6166012a41328d4db80950d0,001,2021-12-16_23h05.18.046,jm_natural_scene_simialrity_2-12-2021_version2,2021.2.3,Win32,60.03121623,6166012a41328d4db80950d0,61bbc5c79a1c66460f44041e,61bbc611b6193492b9382bfc,,,,,,54.66668737,-75.33334631,1,0,0,response3disk,1.1787,2.000019133,7.333322823,1,0,0,rectangle,2.000019133,7.333322823,1,0,0,-3,3,"[21,128,93,38,149,94,113,75,30,25]",2.000019133,7.333322823,1,0,0,1,72,153,61,1,Turquiose,Turquiose.jpg,LightGreen,LightGreen.jpg,,
,,,,,,,,,,,,,,,,,,-3,,,,,,,,,,,,,,,,,,,,,,,,,,,6166012a41328d4db80950d0,001,2021-12-16_23h05.18.046,jm_natural_scene_simialrity_2-12-2021_version2,2021.2.3,Win32,60.03121623,6166012a41328d4db80950d0,61bbc5c79a1c66460f44041e,61bbc611b6193492b9382bfc,,,,,,-77.33331656,45.33330361,1,0,0,response7disk,1.4671,-6.666607102,3.333322704,1,0,0,rectangle,-6.666607102,3.333322704,1,0,0,-3,1,"[21,128,93,38,149,94,113,75,30,25]",-6.666607102,3.333322704,1,0,0,1,73,154,62,1,LightBlue,LightBlue.jpg,LightGreen,LightGreen.jpg,,
,,,,,,,,,,,,,,,,,,-4,,,,,,,,,,,,,,,,,,,,,,,,,,,6166012a41328d4db80950d0,001,2021-12-16_23h05.18.046,jm_natural_scene_simialrity_2-12-2021_version2,2021.2.3,Win32,60.03121623,6166012a41328d4db80950d0,61bbc5c79a1c66460f44041e,61bbc611b6193492b9382bfc,,,,,,-40.66660812,76.66665822,1,0,0,response7disk,1.1034,10.66668606,-5.333344221,1,0,0,rectangle,10.66668606,-5.333344221,1,0,0,-3,-4,"[21,128,93,38,149,94,113,75,30,25]",10.66668606,-5.333344221,1,0,0,1,74,155,63,1,DarkBlue,DarkBlue.jpg,LightGreen,LightGreen.jpg,,
,,,,,,,,,,,,,,,,,,-4,,,,,,,,,,,,,,,,,,,,,,,,,,,6166012a41328d4db80950d0,001,2021-12-16_23h05.18.046,jm_natural_scene_simialrity_2-12-2021_version2,2021.2.3,Win32,60.03121623,6166012a41328d4db80950d0,61bbc5c79a1c66460f44041e,61bbc611b6193492b9382bfc,,,,,,-43.33331555,85.99999183,1,0,0,response7disk,0.6849,-8.666607161,-1.333344102,1,0,0,rectangle,-8.666607161,-1.333344102,1,0,0,-3,2,"[21,128,93,38,149,94,113,75,30,25]",-8.666607161,-1.333344102,1,0,0,1,75,156,8,1,Red,Red.jpg,Purple,Purple.jpg,,
,,,,,,,,,,,,,,,,,,-4,,,,,,,,,,,,,,,,,,,,,,,,,,,6166012a41328d4db80950d0,001,2021-12-16_23h05.18.046,jm_natural_scene_simialrity_2-12-2021_version2,2021.2.3,Win32,60.03121623,6166012a41328d4db80950d0,61bbc5c79a1c66460f44041e,61bbc611b6193492b9382bfc,,,,,,-49.99998242,107.3333258,1,0,0,response7disk,1.0646,-5.333314419,9.999989569,1,0,0,rectangle,-5.333314419,9.999989569,1,0,0,-3,1,"[21,128,93,38,149,94,113,75,30,25]",-5.333314419,9.999989569,1,0,0,1,76,157,23,1,LightGreen,LightGreen.jpg,Purple,Purple.jpg,,
,,,,,,,,,,,,,,,,,,-4,,,,,,,,,,,,,,,,,,,,,,,,,,,6166012a41328d4db80950d0,001,2021-12-16_23h05.18.046,jm_natural_scene_simialrity_2-12-2021_version2,2021.2.3,Win32,60.03121623,6166012a41328d4db80950d0,61bbc5c79a1c66460f44041e,61bbc611b6193492b9382bfc,,,,,,-24.66660764,101.3333053,1,0,0,response7disk,1.0502,1.333393137,6.666656137,1,0,0,rectangle,1.333393137,6.666656137,1,0,0,-3,-4,"[21,128,93,38,149,94,113,75,30,25]",1.333393137,6.666656137,1,0,0,1,77,158,75,1,DarkBlue,DarkBlue.jpg,LightBlue,LightBlue.jpg,,
,,,,,,,,,,,,,,,,,,3,,,,,,,,,,,,,,,,,,,,,,,,,,,6166012a41328d4db80950d0,001,2021-12-16_23h05.18.046,jm_natural_scene_simialrity_2-12-2021_version2,2021.2.3,Win32,60.03121623,6166012a41328d4db80950d0,61bbc5c79a1c66460f44041e,61bbc611b6193492b9382bfc,,,,,,122.6666894,45.33330361,1,0,0,response1disk,2.784,-0.666606923,-1.333344102,1,0,0,rectangle,-0.666606923,-1.333344102,1,0,0,-3,1,"[21,128,93,38,149,94,113,75,30,25]",-0.666606923,-1.333344102,1,0,0,1,78,159,60,1,DarkGreen,DarkGreen.jpg,LightGreen,LightGreen.jpg,,
,,,,,,,,,,,,,,,,,,3,,,,,,,,,,,,,,,,,,,,,,,,,,,6166012a41328d4db80950d0,001,2021-12-16_23h05.18.046,jm_natural_scene_simialrity_2-12-2021_version2,2021.2.3,Win32,60.03121623,6166012a41328d4db80950d0,61bbc5c79a1c66460f44041e,61bbc611b6193492b9382bfc,,,,,,109.3333557,34.66665697,1,0,0,response1disk,0.8671,-11.99998128,1.999989331,1,0,0,rectangle,-11.99998128,1.999989331,1,0,0,-3,-3,"[21,128,93,38,149,94,113,75,30,25]",-11.99998128,1.999989331,1,0,0,1,79,160,7,1,Red,Red.jpg,Pink,Pink.jpg,,
,,,,,,,,,,,,,,,,,,-4,,,,,,,,,,,,,,,,,,,,,,,,,,,6166012a41328d4db80950d0,001,2021-12-16_23h05.18.046,jm_natural_scene_simialrity_2-12-2021_version2,2021.2.3,Win32,60.03121623,6166012a41328d4db80950d0,61bbc5c79a1c66460f44041e,61bbc611b6193492b9382bfc,,,,,,-39.99998212,87.33330486,1,0,0,response7disk,1.0332,-0.666606923,-8.666677654,1,0,0,rectangle,-0.666606923,-8.666677654,1,0,0,-3,-3,"[21,128,93,38,149,94,113,75,30,25]",-0.666606923,-8.666677654,1,0,0,1,80,161,16,1,Yellow,Yellow.jpg,Purple,Purple.jpg,,
