key_resp.keys,key_resp.rt,key_resp_16.keys,key_resp_16.rt,key_resp_2.keys,key_resp_2.rt,key_resp_3.keys,key_resp_3.rt,key_resp_19.keys,key_resp_19.rt,key_resp_10.keys,key_resp_10.rt,mouse_prac.x,mouse_prac.y,mouse_prac.leftButton,mouse_prac.midButton,mouse_prac.rightButton,mouse_prac.clicked_name,similarity,mouse_10.x,mouse_10.y,mouse_10.leftButton,mouse_10.midButton,mouse_10.rightButton,mouse_10.clicked_name,mouse_catch_prac.x,mouse_catch_prac.y,mouse_catch_prac.leftButton,mouse_catch_prac.midButton,mouse_catch_prac.rightButton,catchnumberprac,mouse_6.x,mouse_6.y,mouse_6.leftButton,mouse_6.midButton,mouse_6.rightButton,during_prac.thisRepN,during_prac.thisTrialN,during_prac.thisN,during_prac.thisIndex,during_prac.ran,trailimage1,trial1adress,trailimage2,trial2adress,participant,session,date,expName,psychopyVersion,OS,frameRate,PROLIFIC_PID,STUDY_ID,SESSION_ID,mouse_catch_prac.clicked_name,catchprac,mouse_6.clicked_name,key_resp_22.keys,key_resp_22.rt,mouse.x,mouse.y,mouse.leftButton,mouse.midButton,mouse.rightButton,mouse.clicked_name,response_time,mouse_2.x,mouse_2.y,mouse_2.leftButton,mouse_2.midButton,mouse_2.rightButton,mouse_2.clicked_name,mouse_3.x,mouse_3.y,mouse_3.leftButton,mouse_3.midButton,mouse_3.rightButton,catchresponse,catchnumber,catchtrialorder,mouse_11.x,mouse_11.y,mouse_11.leftButton,mouse_11.midButton,mouse_11.rightButton,trials_2.thisRepN,trials_2.thisTrialN,trials_2.thisN,trials_2.thisIndex,trials_2.ran,image1,image1adress,image2,image2adress,mouse_3.clicked_name,mouse_11.clicked_name
space,7.8829,space,57.9814,space,20.0225,space,15.8343,space,29.2839,space,7.8597,108,58,1,0,0,response1disk_5,3,7,-7,1,0,0,rectangle_8,7,-7,1,0,0,2,7,-7,1,0,0,0,0,0,1,1,trail1,trail1.jpg,trail2,trail2.jpg,a,001,2021-12-17_24h12.03.792,jm_natural_scene_simialrity_2-12-2021_version2,2021.2.3,Win32,59.14360066,5cf3eaf706fb120016ecfd05,61bbc5c79a1c66460f44041e,61bbc5fd3d1a031c0a05cf16,,,,,,,,,,,,,,,,,,,,,,,,,,,,,,,,,,,,,,,,,,
,,,,,,,,,,,,82,106,1,0,0,response1disk_5,4,-3,-8,1,0,0,rectangle_8,98,-50,1,0,0,2,4,-3,1,0,0,0,1,1,2,1,trail1,trail1.jpg,trail3,trail3.jpg,a,001,2021-12-17_24h12.03.792,jm_natural_scene_simialrity_2-12-2021_version2,2021.2.3,Win32,59.14360066,5cf3eaf706fb120016ecfd05,61bbc5c79a1c66460f44041e,61bbc5fd3d1a031c0a05cf16,response3disk_7,2,rectangle_4,,,,,,,,,,,,,,,,,,,,,,,,,,,,,,,,,,,,,,,
,,,,,,,,,,,,76,-33,1,0,0,response3disk_5,2,-2,-17,1,0,0,rectangle_8,-2,-17,1,0,0,2,-2,-17,1,0,0,0,2,2,5,1,trail3,trail3.jpg,trail3,trail3.jpg,a,001,2021-12-17_24h12.03.792,jm_natural_scene_simialrity_2-12-2021_version2,2021.2.3,Win32,59.14360066,5cf3eaf706fb120016ecfd05,61bbc5c79a1c66460f44041e,61bbc5fd3d1a031c0a05cf16,,,,,,,,,,,,,,,,,,,,,,,,,,,,,,,,,,,,,,,,,,
,,,,,,,,,,,,31,96,1,0,0,response1disk_5,4,-6,-14,1,0,0,rectangle_8,-6,-14,1,0,0,2,-6,-14,1,0,0,0,3,3,3,1,trail2,trail2.jpg,trail2,trail2.jpg,a,001,2021-12-17_24h12.03.792,jm_natural_scene_simialrity_2-12-2021_version2,2021.2.3,Win32,59.14360066,5cf3eaf706fb120016ecfd05,61bbc5c79a1c66460f44041e,61bbc5fd3d1a031c0a05cf16,,,,,,,,,,,,,,,,,,,,,,,,,,,,,,,,,,,,,,,,,,
,,,,,,,,,,,,-49,92,1,0,0,response7disk_5,-4,-12,5,1,0,0,rectangle_8,-12,5,1,0,0,2,-12,5,1,0,0,0,4,4,4,1,trail2,trail2.jpg,trail3,trail3.jpg,a,001,2021-12-17_24h12.03.792,jm_natural_scene_simialrity_2-12-2021_version2,2021.2.3,Win32,59.14360066,5cf3eaf706fb120016ecfd05,61bbc5c79a1c66460f44041e,61bbc5fd3d1a031c0a05cf16,,,,,,,,,,,,,,,,,,,,,,,,,,,,,,,,,,,,,,,,,,
,,,,,,,,,,,,38,54,1,0,0,response1disk_5,4,-6,1,1,0,0,rectangle_8,-6,1,1,0,0,2,-6,1,1,0,0,0,5,5,0,1,trail1,trail1.jpg,trail1,trail1.jpg,a,001,2021-12-17_24h12.03.792,jm_natural_scene_simialrity_2-12-2021_version2,2021.2.3,Win32,59.14360066,5cf3eaf706fb120016ecfd05,61bbc5c79a1c66460f44041e,61bbc5fd3d1a031c0a05cf16,,,,,,,,,,,,,,,,,,,,,,,,,,,,,,,,,,,,,,,,,,
,,,,,,,,,,,,,,,,,,2,,,,,,,,,,,,,,,,,,,,,,,,,,,a,001,2021-12-17_24h12.03.792,jm_natural_scene_simialrity_2-12-2021_version2,2021.2.3,Win32,59.14360066,5cf3eaf706fb120016ecfd05,61bbc5c79a1c66460f44041e,61bbc5fd3d1a031c0a05cf16,,,,space,1.6669,105,-49,1,0,0,response3disk,4.4839,4,-20,1,0,0,rectangle,4,-20,1,0,0,,1,"[92,122,124,20,138,124,18,64,51,124]",4,-20,1,0,0,0,0,0,61,1,Turquiose,Turquiose.jpg,LightGreen,LightGreen.jpg,,
,,,,,,,,,,,,,,,,,,-4,,,,,,,,,,,,,,,,,,,,,,,,,,,a,001,2021-12-17_24h12.03.792,jm_natural_scene_simialrity_2-12-2021_version2,2021.2.3,Win32,59.14360066,5cf3eaf706fb120016ecfd05,61bbc5c79a1c66460f44041e,61bbc5fd3d1a031c0a05cf16,,,,,,-24,56,1,0,0,response7disk,1.5666,-13,18,1,0,0,rectangle,-13,18,1,0,0,,2,"[92,122,124,20,138,124,18,64,51,124]",-13,18,1,0,0,0,1,1,54,1,DarkGreen,DarkGreen.jpg,Yellow,Yellow.jpg,,
,,,,,,,,,,,,,,,,,,-4,,,,,,,,,,,,,,,,,,,,,,,,,,,a,001,2021-12-17_24h12.03.792,jm_natural_scene_simialrity_2-12-2021_version2,2021.2.3,Win32,59.14360066,5cf3eaf706fb120016ecfd05,61bbc5c79a1c66460f44041e,61bbc5fd3d1a031c0a05cf16,,,,,,-28,54,1,0,0,response7disk,1.1001,0,8,1,0,0,rectangle,0,8,1,0,0,,-4,"[92,122,124,20,138,124,18,64,51,124]",0,8,1,0,0,0,2,2,16,1,Yellow,Yellow.jpg,Purple,Purple.jpg,,
,,,,,,,,,,,,,,,,,,-4,,,,,,,,,,,,,,,,,,,,,,,,,,,a,001,2021-12-17_24h12.03.792,jm_natural_scene_simialrity_2-12-2021_version2,2021.2.3,Win32,59.14360066,5cf3eaf706fb120016ecfd05,61bbc5c79a1c66460f44041e,61bbc5fd3d1a031c0a05cf16,,,,,,-31,75,1,0,0,response7disk,2.7008,-9,16,1,0,0,rectangle,-9,16,1,0,0,,3,"[92,122,124,20,138,124,18,64,51,124]",-9,16,1,0,0,0,3,3,77,1,Purple,Purple.jpg,LightBlue,LightBlue.jpg,,
,,,,,,,,,,,,,,,,,,-4,,,,,,,,,,,,,,,,,,,,,,,,,,,a,001,2021-12-17_24h12.03.792,jm_natural_scene_simialrity_2-12-2021_version2,2021.2.3,Win32,59.14360066,5cf3eaf706fb120016ecfd05,61bbc5c79a1c66460f44041e,61bbc5fd3d1a031c0a05cf16,,,,,,-28,43,1,0,0,response7disk,0.9838,-8,5,1,0,0,rectangle,-8,5,1,0,0,,1,"[92,122,124,20,138,124,18,64,51,124]",-8,5,1,0,0,0,4,4,26,1,DarkGreen,DarkGreen.jpg,LightBlue,LightBlue.jpg,,
,,,,,,,,,,,,,,,,,,-4,,,,,,,,,,,,,,,,,,,,,,,,,,,a,001,2021-12-17_24h12.03.792,jm_natural_scene_simialrity_2-12-2021_version2,2021.2.3,Win32,59.14360066,5cf3eaf706fb120016ecfd05,61bbc5c79a1c66460f44041e,61bbc5fd3d1a031c0a05cf16,,,,,,-26,43,1,0,0,response7disk,0.9241,-2,7,1,0,0,rectangle,-2,7,1,0,0,,-1,"[92,122,124,20,138,124,18,64,51,124]",-2,7,1,0,0,0,5,5,69,1,Pink,Pink.jpg,DarkGreen,DarkGreen.jpg,,
,,,,,,,,,,,,,,,,,,-4,,,,,,,,,,,,,,,,,,,,,,,,,,,a,001,2021-12-17_24h12.03.792,jm_natural_scene_simialrity_2-12-2021_version2,2021.2.3,Win32,59.14360066,5cf3eaf706fb120016ecfd05,61bbc5c79a1c66460f44041e,61bbc5fd3d1a031c0a05cf16,,,,,,-25,36,1,0,0,response7disk,1.0165,-5,7,1,0,0,rectangle,-5,7,1,0,0,,2,"[92,122,124,20,138,124,18,64,51,124]",-5,7,1,0,0,0,6,6,5,1,Red,Red.jpg,LightBlue,LightBlue.jpg,,
,,,,,,,,,,,,,,,,,,-4,,,,,,,,,,,,,,,,,,,,,,,,,,,a,001,2021-12-17_24h12.03.792,jm_natural_scene_simialrity_2-12-2021_version2,2021.2.3,Win32,59.14360066,5cf3eaf706fb120016ecfd05,61bbc5c79a1c66460f44041e,61bbc5fd3d1a031c0a05cf16,,,,,,-23,41,1,0,0,response7disk,0.916,-5,10,1,0,0,rectangle,-5,10,1,0,0,,-2,"[92,122,124,20,138,124,18,64,51,124]",-5,10,1,0,0,0,7,7,43,1,Pink,Pink.jpg,Purple,Purple.jpg,,
,,,,,,,,,,,,,,,,,,4,,,,,,,,,,,,,,,,,,,,,,,,,,,a,001,2021-12-17_24h12.03.792,jm_natural_scene_simialrity_2-12-2021_version2,2021.2.3,Win32,59.14360066,5cf3eaf706fb120016ecfd05,61bbc5c79a1c66460f44041e,61bbc5fd3d1a031c0a05cf16,,,,,,26,50,1,0,0,response1disk,1.3179,15,-8,1,0,0,rectangle,15,-8,1,0,0,,-4,"[92,122,124,20,138,124,18,64,51,124]",15,-8,1,0,0,0,8,8,0,1,Red,Red.jpg,Red,Red.jpg,,
,,,,,,,,,,,,,,,,,,-3,,,,,,,,,,,,,,,,,,,,,,,,,,,a,001,2021-12-17_24h12.03.792,jm_natural_scene_simialrity_2-12-2021_version2,2021.2.3,Win32,59.14360066,5cf3eaf706fb120016ecfd05,61bbc5c79a1c66460f44041e,61bbc5fd3d1a031c0a05cf16,,,,,,-47,28,1,0,0,response7disk,2.1741,10,-9,1,0,0,rectangle,10,-9,1,0,0,,1,"[92,122,124,20,138,124,18,64,51,124]",10,-9,1,0,0,0,9,9,28,1,DarkGreen,DarkGreen.jpg,Pink,Pink.jpg,,
,,,,,,,,,,,,,,,,,,-4,,,,,,,,,,,,,,,,,,,,,,,,,,,a,001,2021-12-17_24h12.03.792,jm_natural_scene_simialrity_2-12-2021_version2,2021.2.3,Win32,59.14360066,5cf3eaf706fb120016ecfd05,61bbc5c79a1c66460f44041e,61bbc5fd3d1a031c0a05cf16,,,,,,-17,36,1,0,0,response7disk,1.4667,-1,0,1,0,0,rectangle,-1,0,1,0,0,,-2,"[92,122,124,20,138,124,18,64,51,124]",-1,0,1,0,0,0,10,10,32,1,Turquiose,Turquiose.jpg,DarkBlue,DarkBlue.jpg,,
,,,,,,,,,,,,,,,,,,-4,,,,,,,,,,,,,,,,,,,,,,,,,,,a,001,2021-12-17_24h12.03.792,jm_natural_scene_simialrity_2-12-2021_version2,2021.2.3,Win32,59.14360066,5cf3eaf706fb120016ecfd05,61bbc5c79a1c66460f44041e,61bbc5fd3d1a031c0a05cf16,,,,,,-31,46,1,0,0,response7disk,1.5489,-14,14,1,0,0,rectangle,-14,14,1,0,0,,3,"[92,122,124,20,138,124,18,64,51,124]",-14,14,1,0,0,0,11,11,33,1,Turquiose,Turquiose.jpg,Pink,Pink.jpg,,
,,,,,,,,,,,,,,,,,,-4,,,,,,,,,,,,,,,,,,,,,,,,,,,a,001,2021-12-17_24h12.03.792,jm_natural_scene_simialrity_2-12-2021_version2,2021.2.3,Win32,59.14360066,5cf3eaf706fb120016ecfd05,61bbc5c79a1c66460f44041e,61bbc5fd3d1a031c0a05cf16,,,,,,-30,45,1,0,0,response7disk,0.9997,-6,6,1,0,0,rectangle,-6,6,1,0,0,,1,"[92,122,124,20,138,124,18,64,51,124]",-6,6,1,0,0,0,12,12,52,1,Purple,Purple.jpg,Red,Red.jpg,,
,,,,,,,,,,,,,,,,,,-4,,,,,,,,,,,,,,,,,,,,,,,,,,,a,001,2021-12-17_24h12.03.792,jm_natural_scene_simialrity_2-12-2021_version2,2021.2.3,Win32,59.14360066,5cf3eaf706fb120016ecfd05,61bbc5c79a1c66460f44041e,61bbc5fd3d1a031c0a05cf16,,,,,,-25,46,1,0,0,response7disk,0.8911,0,3,1,0,0,rectangle,0,3,1,0,0,,-1,"[92,122,124,20,138,124,18,64,51,124]",0,3,1,0,0,0,13,13,76,1,Pink,Pink.jpg,LightBlue,LightBlue.jpg,,
,,,,,,,,,,,,,,,,,,-4,,,,,,,,,,,,,,,,,,,,,,,,,,,a,001,2021-12-17_24h12.03.792,jm_natural_scene_simialrity_2-12-2021_version2,2021.2.3,Win32,59.14360066,5cf3eaf706fb120016ecfd05,61bbc5c79a1c66460f44041e,61bbc5fd3d1a031c0a05cf16,,,,,,-25,47,1,0,0,response7disk,1.3879,-3,1,1,0,0,rectangle,-3,1,1,0,0,,1,"[92,122,124,20,138,124,18,64,51,124]",-3,1,1,0,0,0,14,14,71,1,LightBlue,LightBlue.jpg,Turquiose,Turquiose.jpg,,
,,,,,,,,,,,,,,,,,,-4,,,,,,,,,,,,,,,,,,,,,,,,,,,a,001,2021-12-17_24h12.03.792,jm_natural_scene_simialrity_2-12-2021_version2,2021.2.3,Win32,59.14360066,5cf3eaf706fb120016ecfd05,61bbc5c79a1c66460f44041e,61bbc5fd3d1a031c0a05cf16,,,,,,-29,43,1,0,0,response7disk,1.883,-4,-1,1,0,0,rectangle,-4,-1,1,0,0,,3,"[92,122,124,20,138,124,18,64,51,124]",-4,-1,1,0,0,0,15,15,59,1,Purple,Purple.jpg,Yellow,Yellow.jpg,,
,,,,,,,,,,,,,,,,,,2,,,,,,,,,,,,,,,,,,,,,,,,,,,a,001,2021-12-17_24h12.03.792,jm_natural_scene_simialrity_2-12-2021_version2,2021.2.3,Win32,59.14360066,5cf3eaf706fb120016ecfd05,61bbc5c79a1c66460f44041e,61bbc5fd3d1a031c0a05cf16,,,,,,39,-28,1,0,0,response3disk,2.9333,-11,-6,1,0,0,rectangle,-11,-6,1,0,0,,-4,"[92,122,124,20,138,124,18,64,51,124]",-11,-6,1,0,0,0,16,16,24,1,DarkGreen,DarkGreen.jpg,DarkGreen,DarkGreen.jpg,,
,,,,,,,,,,,,,,,,,,-3,,,,,,,,,,,,,,,,,,,,,,,,,,,a,001,2021-12-17_24h12.03.792,jm_natural_scene_simialrity_2-12-2021_version2,2021.2.3,Win32,59.14360066,5cf3eaf706fb120016ecfd05,61bbc5c79a1c66460f44041e,61bbc5fd3d1a031c0a05cf16,,,,,,-41,21,1,0,0,response7disk,2.0836,-11,-8,1,0,0,rectangle,59,-43,1,0,0,2,2,"[92,122,124,20,138,124,18,64,51,124]",-3,-4,1,0,0,0,17,17,38,1,LightBlue,LightBlue.jpg,Purple,Purple.jpg,response3disk_3,rectangle
,,,,,,,,,,,,,,,,,,-3,,,,,,,,,,,,,,,,,,,,,,,,,,,a,001,2021-12-17_24h12.03.792,jm_natural_scene_simialrity_2-12-2021_version2,2021.2.3,Win32,59.14360066,5cf3eaf706fb120016ecfd05,61bbc5c79a1c66460f44041e,61bbc5fd3d1a031c0a05cf16,,,,,,-52,43,1,0,0,response7disk,1.5503,-15,6,1,0,0,rectangle,-15,6,1,0,0,2,-2,"[92,122,124,20,138,124,18,64,51,124]",-15,6,1,0,0,0,18,18,55,1,Turquiose,Turquiose.jpg,Yellow,Yellow.jpg,,
,,,,,,,,,,,,,,,,,,-3,,,,,,,,,,,,,,,,,,,,,,,,,,,a,001,2021-12-17_24h12.03.792,jm_natural_scene_simialrity_2-12-2021_version2,2021.2.3,Win32,59.14360066,5cf3eaf706fb120016ecfd05,61bbc5c79a1c66460f44041e,61bbc5fd3d1a031c0a05cf16,,,,,,-59,32,1,0,0,response7disk,0.8834,-17,-4,1,0,0,rectangle,40,-105,1,0,0,1,1,"[92,122,124,20,138,124,18,64,51,124]",-5,-11,1,0,0,0,19,19,64,1,Pink,Pink.jpg,LightGreen,LightGreen.jpg,response3disk_3,rectangle
,,,,,,,,,,,,,,,,,,-3,,,,,,,,,,,,,,,,,,,,,,,,,,,a,001,2021-12-17_24h12.03.792,jm_natural_scene_simialrity_2-12-2021_version2,2021.2.3,Win32,59.14360066,5cf3eaf706fb120016ecfd05,61bbc5c79a1c66460f44041e,61bbc5fd3d1a031c0a05cf16,,,,,,-47,27,1,0,0,response7disk,1.4834,-2,-10,1,0,0,rectangle,-2,-10,1,0,0,1,-1,"[92,122,124,20,138,124,18,64,51,124]",-2,-10,1,0,0,0,20,20,8,1,Red,Red.jpg,Purple,Purple.jpg,,
,,,,,,,,,,,,,,,,,,-3,,,,,,,,,,,,,,,,,,,,,,,,,,,a,001,2021-12-17_24h12.03.792,jm_natural_scene_simialrity_2-12-2021_version2,2021.2.3,Win32,59.14360066,5cf3eaf706fb120016ecfd05,61bbc5c79a1c66460f44041e,61bbc5fd3d1a031c0a05cf16,,,,,,-47,38,1,0,0,response7disk,1.2998,-10,4,1,0,0,rectangle,-10,4,1,0,0,1,-2,"[92,122,124,20,138,124,18,64,51,124]",-10,4,1,0,0,0,21,21,36,1,LightBlue,LightBlue.jpg,DarkBlue,DarkBlue.jpg,,
,,,,,,,,,,,,,,,,,,-1,,,,,,,,,,,,,,,,,,,,,,,,,,,a,001,2021-12-17_24h12.03.792,jm_natural_scene_simialrity_2-12-2021_version2,2021.2.3,Win32,59.14360066,5cf3eaf706fb120016ecfd05,61bbc5c79a1c66460f44041e,61bbc5fd3d1a031c0a05cf16,,,,,,-28,-70,1,0,0,response5disk,3.3265,-2,-1,1,0,0,rectangle,-2,-1,1,0,0,1,2,"[92,122,124,20,138,124,18,64,51,124]",-2,-1,1,0,0,0,22,22,60,1,DarkGreen,DarkGreen.jpg,LightGreen,LightGreen.jpg,,
,,,,,,,,,,,,,,,,,,-4,,,,,,,,,,,,,,,,,,,,,,,,,,,a,001,2021-12-17_24h12.03.792,jm_natural_scene_simialrity_2-12-2021_version2,2021.2.3,Win32,59.14360066,5cf3eaf706fb120016ecfd05,61bbc5c79a1c66460f44041e,61bbc5fd3d1a031c0a05cf16,,,,,,-31,46,1,0,0,response7disk,1.7745,-10,16,1,0,0,rectangle,-10,16,1,0,0,1,-4,"[92,122,124,20,138,124,18,64,51,124]",-10,16,1,0,0,0,23,23,29,1,DarkGreen,DarkGreen.jpg,Purple,Purple.jpg,,
,,,,,,,,,,,,,,,,,,-4,,,,,,,,,,,,,,,,,,,,,,,,,,,a,001,2021-12-17_24h12.03.792,jm_natural_scene_simialrity_2-12-2021_version2,2021.2.3,Win32,59.14360066,5cf3eaf706fb120016ecfd05,61bbc5c79a1c66460f44041e,61bbc5fd3d1a031c0a05cf16,,,,,,-32,46,1,0,0,response7disk,1.1834,-4,8,1,0,0,rectangle,-4,8,1,0,0,1,-4,"[92,122,124,20,138,124,18,64,51,124]",-4,8,1,0,0,0,24,24,15,1,Yellow,Yellow.jpg,Pink,Pink.jpg,,
,,,,,,,,,,,,,,,,,,-4,,,,,,,,,,,,,,,,,,,,,,,,,,,a,001,2021-12-17_24h12.03.792,jm_natural_scene_simialrity_2-12-2021_version2,2021.2.3,Win32,59.14360066,5cf3eaf706fb120016ecfd05,61bbc5c79a1c66460f44041e,61bbc5fd3d1a031c0a05cf16,,,,,,-34,49,1,0,0,response7disk,0.9164,-9,20,1,0,0,rectangle,-9,20,1,0,0,1,-3,"[92,122,124,20,138,124,18,64,51,124]",-9,20,1,0,0,0,25,25,74,1,Purple,Purple.jpg,Turquiose,Turquiose.jpg,,
,,,,,,,,,,,,,,,,,,1,,,,,,,,,,,,,,,,,,,,,,,,,,,a,001,2021-12-17_24h12.03.792,jm_natural_scene_simialrity_2-12-2021_version2,2021.2.3,Win32,59.14360066,5cf3eaf706fb120016ecfd05,61bbc5c79a1c66460f44041e,61bbc5fd3d1a031c0a05cf16,,,,,,26,-61,1,0,0,response3disk,1.8903,7,1,1,0,0,rectangle,7,1,1,0,0,1,-2,"[92,122,124,20,138,124,18,64,51,124]",7,1,1,0,0,0,26,26,44,1,Purple,Purple.jpg,Purple,Purple.jpg,,
,,,,,,,,,,,,,,,,,,-4,,,,,,,,,,,,,,,,,,,,,,,,,,,a,001,2021-12-17_24h12.03.792,jm_natural_scene_simialrity_2-12-2021_version2,2021.2.3,Win32,59.14360066,5cf3eaf706fb120016ecfd05,61bbc5c79a1c66460f44041e,61bbc5fd3d1a031c0a05cf16,,,,,,-31,50,1,0,0,response7disk,1.2358,-2,10,1,0,0,rectangle,-2,10,1,0,0,1,3,"[92,122,124,20,138,124,18,64,51,124]",-2,10,1,0,0,0,27,27,37,1,LightBlue,LightBlue.jpg,Pink,Pink.jpg,,
,,,,,,,,,,,,,,,,,,-4,,,,,,,,,,,,,,,,,,,,,,,,,,,a,001,2021-12-17_24h12.03.792,jm_natural_scene_simialrity_2-12-2021_version2,2021.2.3,Win32,59.14360066,5cf3eaf706fb120016ecfd05,61bbc5c79a1c66460f44041e,61bbc5fd3d1a031c0a05cf16,,,,,,-27,50,1,0,0,response7disk,0.9938,3,-2,1,0,0,rectangle,3,-2,1,0,0,1,3,"[92,122,124,20,138,124,18,64,51,124]",3,-2,1,0,0,0,28,28,31,1,Turquiose,Turquiose.jpg,LightBlue,LightBlue.jpg,,
,,,,,,,,,,,,,,,,,,-4,,,,,,,,,,,,,,,,,,,,,,,,,,,a,001,2021-12-17_24h12.03.792,jm_natural_scene_simialrity_2-12-2021_version2,2021.2.3,Win32,59.14360066,5cf3eaf706fb120016ecfd05,61bbc5c79a1c66460f44041e,61bbc5fd3d1a031c0a05cf16,,,,,,-32,54,1,0,0,response7disk,0.6937,-2,-1,1,0,0,rectangle,-2,-1,1,0,0,1,-3,"[92,122,124,20,138,124,18,64,51,124]",-2,-1,1,0,0,0,29,29,75,1,DarkBlue,DarkBlue.jpg,LightBlue,LightBlue.jpg,,
,,,,,,,,,,,,,,,,,,-4,,,,,,,,,,,,,,,,,,,,,,,,,,,a,001,2021-12-17_24h12.03.792,jm_natural_scene_simialrity_2-12-2021_version2,2021.2.3,Win32,59.14360066,5cf3eaf706fb120016ecfd05,61bbc5c79a1c66460f44041e,61bbc5fd3d1a031c0a05cf16,,,,,,-31,56,1,0,0,response7disk,0.8162,-10,20,1,0,0,rectangle,-10,20,1,0,0,1,-3,"[92,122,124,20,138,124,18,64,51,124]",-10,20,1,0,0,0,30,30,58,1,Pink,Pink.jpg,Yellow,Yellow.jpg,,
,,,,,,,,,,,,,,,,,,-4,,,,,,,,,,,,,,,,,,,,,,,,,,,a,001,2021-12-17_24h12.03.792,jm_natural_scene_simialrity_2-12-2021_version2,2021.2.3,Win32,59.14360066,5cf3eaf706fb120016ecfd05,61bbc5c79a1c66460f44041e,61bbc5fd3d1a031c0a05cf16,,,,,,-44,71,1,0,0,response7disk,0.712,-8,17,1,0,0,rectangle,-8,17,1,0,0,1,-2,"[92,122,124,20,138,124,18,64,51,124]",-8,17,1,0,0,0,31,31,57,1,DarkBlue,DarkBlue.jpg,Yellow,Yellow.jpg,,
,,,,,,,,,,,,,,,,,,-4,,,,,,,,,,,,,,,,,,,,,,,,,,,a,001,2021-12-17_24h12.03.792,jm_natural_scene_simialrity_2-12-2021_version2,2021.2.3,Win32,59.14360066,5cf3eaf706fb120016ecfd05,61bbc5c79a1c66460f44041e,61bbc5fd3d1a031c0a05cf16,,,,,,-33,64,1,0,0,response7disk,0.717,-7,14,1,0,0,rectangle,-7,14,1,0,0,1,-3,"[92,122,124,20,138,124,18,64,51,124]",-7,14,1,0,0,0,32,32,34,1,Turquiose,Turquiose.jpg,Purple,Purple.jpg,,
,,,,,,,,,,,,,,,,,,-4,,,,,,,,,,,,,,,,,,,,,,,,,,,a,001,2021-12-17_24h12.03.792,jm_natural_scene_simialrity_2-12-2021_version2,2021.2.3,Win32,59.14360066,5cf3eaf706fb120016ecfd05,61bbc5c79a1c66460f44041e,61bbc5fd3d1a031c0a05cf16,,,,,,-26,48,1,0,0,response7disk,0.7667,0,5,1,0,0,rectangle,0,5,1,0,0,1,1,"[92,122,124,20,138,124,18,64,51,124]",0,5,1,0,0,0,33,33,63,1,DarkBlue,DarkBlue.jpg,LightGreen,LightGreen.jpg,,
,,,,,,,,,,,,,,,,,,-4,,,,,,,,,,,,,,,,,,,,,,,,,,,a,001,2021-12-17_24h12.03.792,jm_natural_scene_simialrity_2-12-2021_version2,2021.2.3,Win32,59.14360066,5cf3eaf706fb120016ecfd05,61bbc5c79a1c66460f44041e,61bbc5fd3d1a031c0a05cf16,,,,,,-25,47,1,0,0,response7disk,0.9597,-7,11,1,0,0,rectangle,-7,11,1,0,0,1,1,"[92,122,124,20,138,124,18,64,51,124]",-7,11,1,0,0,0,34,34,73,1,Pink,Pink.jpg,Turquiose,Turquiose.jpg,,
,,,,,,,,,,,,,,,,,,-4,,,,,,,,,,,,,,,,,,,,,,,,,,,a,001,2021-12-17_24h12.03.792,jm_natural_scene_simialrity_2-12-2021_version2,2021.2.3,Win32,59.14360066,5cf3eaf706fb120016ecfd05,61bbc5c79a1c66460f44041e,61bbc5fd3d1a031c0a05cf16,,,,,,-25,45,1,0,0,response7disk,1.0163,-5,8,1,0,0,rectangle,-5,8,1,0,0,1,1,"[92,122,124,20,138,124,18,64,51,124]",-5,8,1,0,0,0,35,35,70,1,Purple,Purple.jpg,DarkGreen,DarkGreen.jpg,,
,,,,,,,,,,,,,,,,,,-4,,,,,,,,,,,,,,,,,,,,,,,,,,,a,001,2021-12-17_24h12.03.792,jm_natural_scene_simialrity_2-12-2021_version2,2021.2.3,Win32,59.14360066,5cf3eaf706fb120016ecfd05,61bbc5c79a1c66460f44041e,61bbc5fd3d1a031c0a05cf16,,,,,,-26,52,1,0,0,response7disk,2.1081,-5,7,1,0,0,rectangle,-5,7,1,0,0,1,-3,"[92,122,124,20,138,124,18,64,51,124]",-5,7,1,0,0,0,36,36,21,1,LightGreen,LightGreen.jpg,DarkBlue,DarkBlue.jpg,,
,,,,,,,,,,,,,,,,,,-4,,,,,,,,,,,,,,,,,,,,,,,,,,,a,001,2021-12-17_24h12.03.792,jm_natural_scene_simialrity_2-12-2021_version2,2021.2.3,Win32,59.14360066,5cf3eaf706fb120016ecfd05,61bbc5c79a1c66460f44041e,61bbc5fd3d1a031c0a05cf16,,,,,,-35,66,1,0,0,response7disk,0.968,-5,6,1,0,0,rectangle,-5,6,1,0,0,1,2,"[92,122,124,20,138,124,18,64,51,124]",-5,6,1,0,0,0,37,37,51,1,Pink,Pink.jpg,Red,Red.jpg,,
,,,,,,,,,,,,,,,,,,-4,,,,,,,,,,,,,,,,,,,,,,,,,,,a,001,2021-12-17_24h12.03.792,jm_natural_scene_simialrity_2-12-2021_version2,2021.2.3,Win32,59.14360066,5cf3eaf706fb120016ecfd05,61bbc5c79a1c66460f44041e,61bbc5fd3d1a031c0a05cf16,,,,,,-30,52,1,0,0,response7disk,1.4879,-9,13,1,0,0,rectangle,-9,13,1,0,0,1,2,"[92,122,124,20,138,124,18,64,51,124]",-9,13,1,0,0,0,38,38,2,1,Red,Red.jpg,LightGreen,LightGreen.jpg,,
,,,,,,,,,,,,,,,,,,2,,,,,,,,,,,,,,,,,,,,,,,,,,,a,001,2021-12-17_24h12.03.792,jm_natural_scene_simialrity_2-12-2021_version2,2021.2.3,Win32,59.14360066,5cf3eaf706fb120016ecfd05,61bbc5c79a1c66460f44041e,61bbc5fd3d1a031c0a05cf16,,,,,,37,-26,1,0,0,response3disk,2.1838,-1,-1,1,0,0,rectangle,-1,-1,1,0,0,1,-3,"[92,122,124,20,138,124,18,64,51,124]",-1,-1,1,0,0,0,39,39,35,1,LightBlue,LightBlue.jpg,LightBlue,LightBlue.jpg,,
,,,,,,,,,,,,,,,,,,-4,,,,,,,,,,,,,,,,,,,,,,,,,,,a,001,2021-12-17_24h12.03.792,jm_natural_scene_simialrity_2-12-2021_version2,2021.2.3,Win32,59.14360066,5cf3eaf706fb120016ecfd05,61bbc5c79a1c66460f44041e,61bbc5fd3d1a031c0a05cf16,,,,,,-35,45,1,0,0,response7disk,1.1661,-13,3,1,0,0,rectangle,-13,3,1,0,0,1,1,"[92,122,124,20,138,124,18,64,51,124]",-13,3,1,0,0,0,40,40,10,1,Yellow,Yellow.jpg,LightGreen,LightGreen.jpg,,
,,,,,,,,,,,,,,,,,,-4,,,,,,,,,,,,,,,,,,,,,,,,,,,a,001,2021-12-17_24h12.03.792,jm_natural_scene_simialrity_2-12-2021_version2,2021.2.3,Win32,59.14360066,5cf3eaf706fb120016ecfd05,61bbc5c79a1c66460f44041e,61bbc5fd3d1a031c0a05cf16,,,,,,-33,46,1,0,0,response7disk,1.3655,-6,2,1,0,0,rectangle,-6,2,1,0,0,1,-2,"[92,122,124,20,138,124,18,64,51,124]",-6,2,1,0,0,0,41,41,40,1,DarkBlue,DarkBlue.jpg,Pink,Pink.jpg,,
,,,,,,,,,,,,,,,,,,-4,,,,,,,,,,,,,,,,,,,,,,,,,,,a,001,2021-12-17_24h12.03.792,jm_natural_scene_simialrity_2-12-2021_version2,2021.2.3,Win32,59.14360066,5cf3eaf706fb120016ecfd05,61bbc5c79a1c66460f44041e,61bbc5fd3d1a031c0a05cf16,,,,,,-23,38,1,0,0,response7disk,0.8508,-11,12,1,0,0,rectangle,-11,12,1,0,0,1,1,"[92,122,124,20,138,124,18,64,51,124]",-11,12,1,0,0,0,42,42,4,1,Red,Red.jpg,Turquiose,Turquiose.jpg,,
,,,,,,,,,,,,,,,,,,-4,,,,,,,,,,,,,,,,,,,,,,,,,,,a,001,2021-12-17_24h12.03.792,jm_natural_scene_simialrity_2-12-2021_version2,2021.2.3,Win32,59.14360066,5cf3eaf706fb120016ecfd05,61bbc5c79a1c66460f44041e,61bbc5fd3d1a031c0a05cf16,,,,,,-31,48,1,0,0,response7disk,0.9183,6,-18,1,0,0,rectangle,6,-18,1,0,0,1,-3,"[92,122,124,20,138,124,18,64,51,124]",6,-18,1,0,0,0,43,43,11,1,Yellow,Yellow.jpg,DarkGreen,DarkGreen.jpg,,
,,,,,,,,,,,,,,,,,,-3,,,,,,,,,,,,,,,,,,,,,,,,,,,a,001,2021-12-17_24h12.03.792,jm_natural_scene_simialrity_2-12-2021_version2,2021.2.3,Win32,59.14360066,5cf3eaf706fb120016ecfd05,61bbc5c79a1c66460f44041e,61bbc5fd3d1a031c0a05cf16,,,,,,-40,25,1,0,0,response7disk,3.5825,-7,-6,1,0,0,rectangle,-7,-6,1,0,0,1,-2,"[92,122,124,20,138,124,18,64,51,124]",-7,-6,1,0,0,0,44,44,1,1,Red,Red.jpg,Yellow,Yellow.jpg,,
,,,,,,,,,,,,,,,,,,-4,,,,,,,,,,,,,,,,,,,,,,,,,,,a,001,2021-12-17_24h12.03.792,jm_natural_scene_simialrity_2-12-2021_version2,2021.2.3,Win32,59.14360066,5cf3eaf706fb120016ecfd05,61bbc5c79a1c66460f44041e,61bbc5fd3d1a031c0a05cf16,,,,,,-35,51,1,0,0,response7disk,1.0415,-12,10,1,0,0,rectangle,-12,10,1,0,0,1,2,"[92,122,124,20,138,124,18,64,51,124]",-12,10,1,0,0,0,45,45,19,1,LightGreen,LightGreen.jpg,Turquiose,Turquiose.jpg,,
,,,,,,,,,,,,,,,,,,-4,,,,,,,,,,,,,,,,,,,,,,,,,,,a,001,2021-12-17_24h12.03.792,jm_natural_scene_simialrity_2-12-2021_version2,2021.2.3,Win32,59.14360066,5cf3eaf706fb120016ecfd05,61bbc5c79a1c66460f44041e,61bbc5fd3d1a031c0a05cf16,,,,,,-26,35,1,0,0,response7disk,0.8271,-15,15,1,0,0,rectangle,-15,15,1,0,0,1,-1,"[92,122,124,20,138,124,18,64,51,124]",-15,15,1,0,0,0,46,46,56,1,LightBlue,LightBlue.jpg,Yellow,Yellow.jpg,,
,,,,,,,,,,,,,,,,,,-4,,,,,,,,,,,,,,,,,,,,,,,,,,,a,001,2021-12-17_24h12.03.792,jm_natural_scene_simialrity_2-12-2021_version2,2021.2.3,Win32,59.14360066,5cf3eaf706fb120016ecfd05,61bbc5c79a1c66460f44041e,61bbc5fd3d1a031c0a05cf16,,,,,,-34,55,1,0,0,response7disk,0.5842,-14,19,1,0,0,rectangle,-14,19,1,0,0,1,1,"[92,122,124,20,138,124,18,64,51,124]",-14,19,1,0,0,0,47,47,80,1,Purple,Purple.jpg,Pink,Pink.jpg,,
,,,,,,,,,,,,,,,,,,3,,,,,,,,,,,,,,,,,,,,,,,,,,,a,001,2021-12-17_24h12.03.792,jm_natural_scene_simialrity_2-12-2021_version2,2021.2.3,Win32,59.14360066,5cf3eaf706fb120016ecfd05,61bbc5c79a1c66460f44041e,61bbc5fd3d1a031c0a05cf16,,,,,,55,29,1,0,0,response1disk,3.5667,11,12,1,0,0,rectangle,11,12,1,0,0,1,3,"[92,122,124,20,138,124,18,64,51,124]",11,12,1,0,0,0,48,48,42,1,Pink,Pink.jpg,Pink,Pink.jpg,,
,,,,,,,,,,,,,,,,,,-4,,,,,,,,,,,,,,,,,,,,,,,,,,,a,001,2021-12-17_24h12.03.792,jm_natural_scene_simialrity_2-12-2021_version2,2021.2.3,Win32,59.14360066,5cf3eaf706fb120016ecfd05,61bbc5c79a1c66460f44041e,61bbc5fd3d1a031c0a05cf16,,,,,,-29,51,1,0,0,response7disk,0.8505,-11,18,1,0,0,rectangle,-11,18,1,0,0,1,-2,"[92,122,124,20,138,124,18,64,51,124]",-11,18,1,0,0,0,49,49,12,1,Yellow,Yellow.jpg,Turquiose,Turquiose.jpg,,
,,,,,,,,,,,,,,,,,,-4,,,,,,,,,,,,,,,,,,,,,,,,,,,a,001,2021-12-17_24h12.03.792,jm_natural_scene_simialrity_2-12-2021_version2,2021.2.3,Win32,59.14360066,5cf3eaf706fb120016ecfd05,61bbc5c79a1c66460f44041e,61bbc5fd3d1a031c0a05cf16,,,,,,-25,48,1,0,0,response7disk,0.5914,-8,10,1,0,0,rectangle,-74,27,1,0,0,-3,-3,"[92,122,124,20,138,124,18,64,51,124]",-1,-18,1,0,0,0,50,50,66,1,Turquiose,Turquiose.jpg,DarkGreen,DarkGreen.jpg,response7disk_3,rectangle
,,,,,,,,,,,,,,,,,,-3,,,,,,,,,,,,,,,,,,,,,,,,,,,a,001,2021-12-17_24h12.03.792,jm_natural_scene_simialrity_2-12-2021_version2,2021.2.3,Win32,59.14360066,5cf3eaf706fb120016ecfd05,61bbc5c79a1c66460f44041e,61bbc5fd3d1a031c0a05cf16,,,,,,-66,36,1,0,0,response7disk,2.649,-18,4,1,0,0,rectangle,-18,4,1,0,0,-3,-4,"[92,122,124,20,138,124,18,64,51,124]",-18,4,1,0,0,0,51,51,23,1,LightGreen,LightGreen.jpg,Purple,Purple.jpg,,
,,,,,,,,,,,,,,,,,,-4,,,,,,,,,,,,,,,,,,,,,,,,,,,a,001,2021-12-17_24h12.03.792,jm_natural_scene_simialrity_2-12-2021_version2,2021.2.3,Win32,59.14360066,5cf3eaf706fb120016ecfd05,61bbc5c79a1c66460f44041e,61bbc5fd3d1a031c0a05cf16,,,,,,-42,48,1,0,0,response7disk,1.6625,-14,4,1,0,0,rectangle,-14,4,1,0,0,-3,-1,"[92,122,124,20,138,124,18,64,51,124]",-14,4,1,0,0,0,52,52,27,1,DarkGreen,DarkGreen.jpg,DarkBlue,DarkBlue.jpg,,
,,,,,,,,,,,,,,,,,,-4,,,,,,,,,,,,,,,,,,,,,,,,,,,a,001,2021-12-17_24h12.03.792,jm_natural_scene_simialrity_2-12-2021_version2,2021.2.3,Win32,59.14360066,5cf3eaf706fb120016ecfd05,61bbc5c79a1c66460f44041e,61bbc5fd3d1a031c0a05cf16,,,,,,-38,49,1,0,0,response7disk,0.8772,-2,-4,1,0,0,rectangle,-2,-4,1,0,0,-3,-1,"[92,122,124,20,138,124,18,64,51,124]",-2,-4,1,0,0,0,53,53,22,1,LightGreen,LightGreen.jpg,Pink,Pink.jpg,,
,,,,,,,,,,,,,,,,,,-4,,,,,,,,,,,,,,,,,,,,,,,,,,,a,001,2021-12-17_24h12.03.792,jm_natural_scene_simialrity_2-12-2021_version2,2021.2.3,Win32,59.14360066,5cf3eaf706fb120016ecfd05,61bbc5c79a1c66460f44041e,61bbc5fd3d1a031c0a05cf16,,,,,,-20,31,1,0,0,response7disk,1.6498,-4,1,1,0,0,rectangle,-4,1,1,0,0,-3,3,"[92,122,124,20,138,124,18,64,51,124]",-4,1,1,0,0,0,54,54,18,1,LightGreen,LightGreen.jpg,DarkGreen,DarkGreen.jpg,,
,,,,,,,,,,,,,,,,,,-4,,,,,,,,,,,,,,,,,,,,,,,,,,,a,001,2021-12-17_24h12.03.792,jm_natural_scene_simialrity_2-12-2021_version2,2021.2.3,Win32,59.14360066,5cf3eaf706fb120016ecfd05,61bbc5c79a1c66460f44041e,61bbc5fd3d1a031c0a05cf16,,,,,,-22,34,1,0,0,response7disk,1.1576,-2,0,1,0,0,rectangle,-2,0,1,0,0,-3,3,"[92,122,124,20,138,124,18,64,51,124]",-2,0,1,0,0,0,55,55,3,1,Red,Red.jpg,DarkGreen,DarkGreen.jpg,,
,,,,,,,,,,,,,,,,,,-4,,,,,,,,,,,,,,,,,,,,,,,,,,,a,001,2021-12-17_24h12.03.792,jm_natural_scene_simialrity_2-12-2021_version2,2021.2.3,Win32,59.14360066,5cf3eaf706fb120016ecfd05,61bbc5c79a1c66460f44041e,61bbc5fd3d1a031c0a05cf16,,,,,,-21,32,1,0,0,response7disk,0.9164,-8,8,1,0,0,rectangle,-8,8,1,0,0,-3,3,"[92,122,124,20,138,124,18,64,51,124]",-8,8,1,0,0,0,56,56,25,1,DarkGreen,DarkGreen.jpg,Turquiose,Turquiose.jpg,,
,,,,,,,,,,,,,,,,,,3,,,,,,,,,,,,,,,,,,,,,,,,,,,a,001,2021-12-17_24h12.03.792,jm_natural_scene_simialrity_2-12-2021_version2,2021.2.3,Win32,59.14360066,5cf3eaf706fb120016ecfd05,61bbc5c79a1c66460f44041e,61bbc5fd3d1a031c0a05cf16,,,,,,37,26,1,0,0,response1disk,1.6579,6,-13,1,0,0,rectangle,6,-13,1,0,0,-3,-1,"[92,122,124,20,138,124,18,64,51,124]",6,-13,1,0,0,0,57,57,39,1,DarkBlue,DarkBlue.jpg,DarkBlue,DarkBlue.jpg,,
,,,,,,,,,,,,,,,,,,-3,,,,,,,,,,,,,,,,,,,,,,,,,,,a,001,2021-12-17_24h12.03.792,jm_natural_scene_simialrity_2-12-2021_version2,2021.2.3,Win32,59.14360066,5cf3eaf706fb120016ecfd05,61bbc5c79a1c66460f44041e,61bbc5fd3d1a031c0a05cf16,,,,,,-55,29,1,0,0,response7disk,3.1336,-13,-1,1,0,0,rectangle,-13,-1,1,0,0,-3,-3,"[92,122,124,20,138,124,18,64,51,124]",-13,-1,1,0,0,0,58,58,7,1,Red,Red.jpg,Pink,Pink.jpg,,
,,,,,,,,,,,,,,,,,,-4,,,,,,,,,,,,,,,,,,,,,,,,,,,a,001,2021-12-17_24h12.03.792,jm_natural_scene_simialrity_2-12-2021_version2,2021.2.3,Win32,59.14360066,5cf3eaf706fb120016ecfd05,61bbc5c79a1c66460f44041e,61bbc5fd3d1a031c0a05cf16,,,,,,-26,42,1,0,0,response7disk,1.086,-16,13,1,0,0,rectangle,-16,13,1,0,0,-3,-1,"[92,122,124,20,138,124,18,64,51,124]",-16,13,1,0,0,0,59,59,49,1,LightBlue,LightBlue.jpg,Red,Red.jpg,,
,,,,,,,,,,,,,,,,,,-4,,,,,,,,,,,,,,,,,,,,,,,,,,,a,001,2021-12-17_24h12.03.792,jm_natural_scene_simialrity_2-12-2021_version2,2021.2.3,Win32,59.14360066,5cf3eaf706fb120016ecfd05,61bbc5c79a1c66460f44041e,61bbc5fd3d1a031c0a05cf16,,,,,,-31,43,1,0,0,response7disk,0.7029,-19,18,1,0,0,rectangle,-19,18,1,0,0,-3,-4,"[92,122,124,20,138,124,18,64,51,124]",-19,18,1,0,0,0,60,60,6,1,Red,Red.jpg,DarkBlue,DarkBlue.jpg,,
,,,,,,,,,,,,,,,,,,-4,,,,,,,,,,,,,,,,,,,,,,,,,,,a,001,2021-12-17_24h12.03.792,jm_natural_scene_simialrity_2-12-2021_version2,2021.2.3,Win32,59.14360066,5cf3eaf706fb120016ecfd05,61bbc5c79a1c66460f44041e,61bbc5fd3d1a031c0a05cf16,,,,,,-29,46,1,0,0,response7disk,0.6908,-14,14,1,0,0,rectangle,-14,14,1,0,0,-3,1,"[92,122,124,20,138,124,18,64,51,124]",-14,14,1,0,0,0,61,61,53,1,LightGreen,LightGreen.jpg,Yellow,Yellow.jpg,,
,,,,,,,,,,,,,,,,,,-4,,,,,,,,,,,,,,,,,,,,,,,,,,,a,001,2021-12-17_24h12.03.792,jm_natural_scene_simialrity_2-12-2021_version2,2021.2.3,Win32,59.14360066,5cf3eaf706fb120016ecfd05,61bbc5c79a1c66460f44041e,61bbc5fd3d1a031c0a05cf16,,,,,,-27,35,1,0,0,response7disk,0.5002,-15,5,1,0,0,rectangle,-15,5,1,0,0,-3,-1,"[92,122,124,20,138,124,18,64,51,124]",-15,5,1,0,0,0,62,62,62,1,LightBlue,LightBlue.jpg,LightGreen,LightGreen.jpg,,
,,,,,,,,,,,,,,,,,,-4,,,,,,,,,,,,,,,,,,,,,,,,,,,a,001,2021-12-17_24h12.03.792,jm_natural_scene_simialrity_2-12-2021_version2,2021.2.3,Win32,59.14360066,5cf3eaf706fb120016ecfd05,61bbc5c79a1c66460f44041e,61bbc5fd3d1a031c0a05cf16,,,,,,-32,46,1,0,0,response7disk,0.5841,-15,3,1,0,0,rectangle,52,-35,1,0,0,2,2,"[92,122,124,20,138,124,18,64,51,124]",16,-11,1,0,0,0,63,63,72,1,DarkBlue,DarkBlue.jpg,Turquiose,Turquiose.jpg,response3disk_3,rectangle
,,,,,,,,,,,,,,,,,,-4,,,,,,,,,,,,,,,,,,,,,,,,,,,a,001,2021-12-17_24h12.03.792,jm_natural_scene_simialrity_2-12-2021_version2,2021.2.3,Win32,59.14360066,5cf3eaf706fb120016ecfd05,61bbc5c79a1c66460f44041e,61bbc5fd3d1a031c0a05cf16,,,,,,-31,38,1,0,0,response7disk,1.3766,-13,11,1,0,0,rectangle,-13,11,1,0,0,2,-3,"[92,122,124,20,138,124,18,64,51,124]",-13,11,1,0,0,0,64,64,67,1,LightBlue,LightBlue.jpg,DarkGreen,DarkGreen.jpg,,
,,,,,,,,,,,,,,,,,,4,,,,,,,,,,,,,,,,,,,,,,,,,,,a,001,2021-12-17_24h12.03.792,jm_natural_scene_simialrity_2-12-2021_version2,2021.2.3,Win32,59.14360066,5cf3eaf706fb120016ecfd05,61bbc5c79a1c66460f44041e,61bbc5fd3d1a031c0a05cf16,,,,,,31,45,1,0,0,response1disk,2.4165,2,7,1,0,0,rectangle,2,7,1,0,0,2,-2,"[92,122,124,20,138,124,18,64,51,124]",2,7,1,0,0,0,65,65,9,1,Yellow,Yellow.jpg,Yellow,Yellow.jpg,,
,,,,,,,,,,,,,,,,,,-4,,,,,,,,,,,,,,,,,,,,,,,,,,,a,001,2021-12-17_24h12.03.792,jm_natural_scene_simialrity_2-12-2021_version2,2021.2.3,Win32,59.14360066,5cf3eaf706fb120016ecfd05,61bbc5c79a1c66460f44041e,61bbc5fd3d1a031c0a05cf16,,,,,,-22,32,1,0,0,response7disk,0.967,-5,-4,1,0,0,rectangle,-5,-4,1,0,0,2,3,"[92,122,124,20,138,124,18,64,51,124]",-5,-4,1,0,0,0,66,66,68,1,DarkBlue,DarkBlue.jpg,DarkGreen,DarkGreen.jpg,,
,,,,,,,,,,,,,,,,,,-4,,,,,,,,,,,,,,,,,,,,,,,,,,,a,001,2021-12-17_24h12.03.792,jm_natural_scene_simialrity_2-12-2021_version2,2021.2.3,Win32,59.14360066,5cf3eaf706fb120016ecfd05,61bbc5c79a1c66460f44041e,61bbc5fd3d1a031c0a05cf16,,,,,,-22,35,1,0,0,response7disk,0.9499,-15,18,1,0,0,rectangle,-15,18,1,0,0,2,3,"[92,122,124,20,138,124,18,64,51,124]",-15,18,1,0,0,0,67,67,65,1,Purple,Purple.jpg,LightGreen,LightGreen.jpg,,
,,,,,,,,,,,,,,,,,,-4,,,,,,,,,,,,,,,,,,,,,,,,,,,a,001,2021-12-17_24h12.03.792,jm_natural_scene_simialrity_2-12-2021_version2,2021.2.3,Win32,59.14360066,5cf3eaf706fb120016ecfd05,61bbc5c79a1c66460f44041e,61bbc5fd3d1a031c0a05cf16,,,,,,-22,41,1,0,0,response7disk,0.7,-1,-5,1,0,0,rectangle,-1,-5,1,0,0,2,1,"[92,122,124,20,138,124,18,64,51,124]",-1,-5,1,0,0,0,68,68,79,1,Purple,Purple.jpg,DarkBlue,DarkBlue.jpg,,
,,,,,,,,,,,,,,,,,,-4,,,,,,,,,,,,,,,,,,,,,,,,,,,a,001,2021-12-17_24h12.03.792,jm_natural_scene_simialrity_2-12-2021_version2,2021.2.3,Win32,59.14360066,5cf3eaf706fb120016ecfd05,61bbc5c79a1c66460f44041e,61bbc5fd3d1a031c0a05cf16,,,,,,-22,29,1,0,0,response7disk,0.7557,-9,4,1,0,0,rectangle,-9,4,1,0,0,2,2,"[92,122,124,20,138,124,18,64,51,124]",-9,4,1,0,0,0,69,69,46,1,LightGreen,LightGreen.jpg,Red,Red.jpg,,
,,,,,,,,,,,,,,,,,,3,,,,,,,,,,,,,,,,,,,,,,,,,,,a,001,2021-12-17_24h12.03.792,jm_natural_scene_simialrity_2-12-2021_version2,2021.2.3,Win32,59.14360066,5cf3eaf706fb120016ecfd05,61bbc5c79a1c66460f44041e,61bbc5fd3d1a031c0a05cf16,,,,,,39,25,1,0,0,response1disk,1.9164,12,14,1,0,0,rectangle,12,14,1,0,0,2,-3,"[92,122,124,20,138,124,18,64,51,124]",12,14,1,0,0,0,70,70,30,1,Turquiose,Turquiose.jpg,Turquiose,Turquiose.jpg,,
,,,,,,,,,,,,,,,,,,-4,,,,,,,,,,,,,,,,,,,,,,,,,,,a,001,2021-12-17_24h12.03.792,jm_natural_scene_simialrity_2-12-2021_version2,2021.2.3,Win32,59.14360066,5cf3eaf706fb120016ecfd05,61bbc5c79a1c66460f44041e,61bbc5fd3d1a031c0a05cf16,,,,,,-30,39,1,0,0,response7disk,1.2263,-18,15,1,0,0,rectangle,-18,15,1,0,0,2,-2,"[92,122,124,20,138,124,18,64,51,124]",-18,15,1,0,0,0,71,71,20,1,LightGreen,LightGreen.jpg,LightBlue,LightBlue.jpg,,
,,,,,,,,,,,,,,,,,,-4,,,,,,,,,,,,,,,,,,,,,,,,,,,a,001,2021-12-17_24h12.03.792,jm_natural_scene_simialrity_2-12-2021_version2,2021.2.3,Win32,59.14360066,5cf3eaf706fb120016ecfd05,61bbc5c79a1c66460f44041e,61bbc5fd3d1a031c0a05cf16,,,,,,-25,32,1,0,0,response7disk,0.7109,-10,-3,1,0,0,rectangle,-10,-3,1,0,0,2,1,"[92,122,124,20,138,124,18,64,51,124]",-10,-3,1,0,0,0,72,72,50,1,DarkBlue,DarkBlue.jpg,Red,Red.jpg,,
,,,,,,,,,,,,,,,,,,-3,,,,,,,,,,,,,,,,,,,,,,,,,,,a,001,2021-12-17_24h12.03.792,jm_natural_scene_simialrity_2-12-2021_version2,2021.2.3,Win32,59.14360066,5cf3eaf706fb120016ecfd05,61bbc5c79a1c66460f44041e,61bbc5fd3d1a031c0a05cf16,,,,,,-30,22,1,0,0,response7disk,1.2107,-18,3,1,0,0,rectangle,-18,3,1,0,0,2,3,"[92,122,124,20,138,124,18,64,51,124]",-18,3,1,0,0,0,73,73,45,1,Yellow,Yellow.jpg,Red,Red.jpg,,
,,,,,,,,,,,,,,,,,,-4,,,,,,,,,,,,,,,,,,,,,,,,,,,a,001,2021-12-17_24h12.03.792,jm_natural_scene_simialrity_2-12-2021_version2,2021.2.3,Win32,59.14360066,5cf3eaf706fb120016ecfd05,61bbc5c79a1c66460f44041e,61bbc5fd3d1a031c0a05cf16,,,,,,-20,34,1,0,0,response7disk,0.9407,-11,9,1,0,0,rectangle,-11,9,1,0,0,2,1,"[92,122,124,20,138,124,18,64,51,124]",-11,9,1,0,0,0,74,74,48,1,Turquiose,Turquiose.jpg,Red,Red.jpg,,
,,,,,,,,,,,,,,,,,,-4,,,,,,,,,,,,,,,,,,,,,,,,,,,a,001,2021-12-17_24h12.03.792,jm_natural_scene_simialrity_2-12-2021_version2,2021.2.3,Win32,59.14360066,5cf3eaf706fb120016ecfd05,61bbc5c79a1c66460f44041e,61bbc5fd3d1a031c0a05cf16,,,,,,-21,40,1,0,0,response7disk,0.8664,1,-11,1,0,0,rectangle,1,-11,1,0,0,2,-2,"[92,122,124,20,138,124,18,64,51,124]",1,-11,1,0,0,0,75,75,78,1,Pink,Pink.jpg,DarkBlue,DarkBlue.jpg,,
,,,,,,,,,,,,,,,,,,-4,,,,,,,,,,,,,,,,,,,,,,,,,,,a,001,2021-12-17_24h12.03.792,jm_natural_scene_simialrity_2-12-2021_version2,2021.2.3,Win32,59.14360066,5cf3eaf706fb120016ecfd05,61bbc5c79a1c66460f44041e,61bbc5fd3d1a031c0a05cf16,,,,,,-32,51,1,0,0,response7disk,0.8072,-11,23,1,0,0,rectangle,-11,23,1,0,0,2,2,"[92,122,124,20,138,124,18,64,51,124]",-11,23,1,0,0,0,76,76,13,1,Yellow,Yellow.jpg,LightBlue,LightBlue.jpg,,
,,,,,,,,,,,,,,,,,,-4,,,,,,,,,,,,,,,,,,,,,,,,,,,a,001,2021-12-17_24h12.03.792,jm_natural_scene_simialrity_2-12-2021_version2,2021.2.3,Win32,59.14360066,5cf3eaf706fb120016ecfd05,61bbc5c79a1c66460f44041e,61bbc5fd3d1a031c0a05cf16,,,,,,-24,37,1,0,0,response7disk,0.6666,-15,14,1,0,0,rectangle,-15,14,1,0,0,2,-3,"[92,122,124,20,138,124,18,64,51,124]",-15,14,1,0,0,0,77,77,47,1,DarkGreen,DarkGreen.jpg,Red,Red.jpg,,
,,,,,,,,,,,,,,,,,,-4,,,,,,,,,,,,,,,,,,,,,,,,,,,a,001,2021-12-17_24h12.03.792,jm_natural_scene_simialrity_2-12-2021_version2,2021.2.3,Win32,59.14360066,5cf3eaf706fb120016ecfd05,61bbc5c79a1c66460f44041e,61bbc5fd3d1a031c0a05cf16,,,,,,-24,37,1,0,0,response7disk,1.0174,-9,8,1,0,0,rectangle,-9,8,1,0,0,2,1,"[92,122,124,20,138,124,18,64,51,124]",-9,8,1,0,0,0,78,78,41,1,DarkBlue,DarkBlue.jpg,Purple,Purple.jpg,,
,,,,,,,,,,,,,,,,,,3,,,,,,,,,,,,,,,,,,,,,,,,,,,a,001,2021-12-17_24h12.03.792,jm_natural_scene_simialrity_2-12-2021_version2,2021.2.3,Win32,59.14360066,5cf3eaf706fb120016ecfd05,61bbc5c79a1c66460f44041e,61bbc5fd3d1a031c0a05cf16,,,,,,45,27,1,0,0,response1disk,1.0504,-1,-2,1,0,0,rectangle,-1,-2,1,0,0,2,-3,"[92,122,124,20,138,124,18,64,51,124]",-1,-2,1,0,0,0,79,79,17,1,LightGreen,LightGreen.jpg,LightGreen,LightGreen.jpg,,
,,,,,,,,,,,,,,,,,,-4,,,,,,,,,,,,,,,,,,,,,,,,,,,a,001,2021-12-17_24h12.03.792,jm_natural_scene_simialrity_2-12-2021_version2,2021.2.3,Win32,59.14360066,5cf3eaf706fb120016ecfd05,61bbc5c79a1c66460f44041e,61bbc5fd3d1a031c0a05cf16,,,,,,-23,33,1,0,0,response7disk,1.3813,-6,5,1,0,0,rectangle,-6,5,1,0,0,2,-4,"[92,122,124,20,138,124,18,64,51,124]",-6,5,1,0,0,0,80,80,14,1,Yellow,Yellow.jpg,DarkBlue,DarkBlue.jpg,,
,,,,,,,,,,,,,,,,,,4,,,,,,,,,,,,,,,,,,,,,,,,,,,a,001,2021-12-17_24h12.03.792,jm_natural_scene_simialrity_2-12-2021_version2,2021.2.3,Win32,59.14360066,5cf3eaf706fb120016ecfd05,61bbc5c79a1c66460f44041e,61bbc5fd3d1a031c0a05cf16,,,,,,35,50,1,0,0,response1disk,1.4904,-6,9,1,0,0,rectangle,-6,9,1,0,0,2,3,"[92,122,124,20,138,124,18,64,51,124]",-6,9,1,0,0,1,0,81,44,1,Purple,Purple.jpg,Purple,Purple.jpg,,
,,,,,,,,,,,,,,,,,,-4,,,,,,,,,,,,,,,,,,,,,,,,,,,a,001,2021-12-17_24h12.03.792,jm_natural_scene_simialrity_2-12-2021_version2,2021.2.3,Win32,59.14360066,5cf3eaf706fb120016ecfd05,61bbc5c79a1c66460f44041e,61bbc5fd3d1a031c0a05cf16,,,,,,-32,43,1,0,0,response7disk,0.8938,-20,6,1,0,0,rectangle,-20,6,1,0,0,2,-3,"[92,122,124,20,138,124,18,64,51,124]",-20,6,1,0,0,1,1,82,55,1,Turquiose,Turquiose.jpg,Yellow,Yellow.jpg,,
,,,,,,,,,,,,,,,,,,-4,,,,,,,,,,,,,,,,,,,,,,,,,,,a,001,2021-12-17_24h12.03.792,jm_natural_scene_simialrity_2-12-2021_version2,2021.2.3,Win32,59.14360066,5cf3eaf706fb120016ecfd05,61bbc5c79a1c66460f44041e,61bbc5fd3d1a031c0a05cf16,,,,,,-27,43,1,0,0,response7disk,0.8167,-15,8,1,0,0,rectangle,-15,8,1,0,0,2,1,"[92,122,124,20,138,124,18,64,51,124]",-15,8,1,0,0,1,2,83,12,1,Yellow,Yellow.jpg,Turquiose,Turquiose.jpg,,
,,,,,,,,,,,,,,,,,,-4,,,,,,,,,,,,,,,,,,,,,,,,,,,a,001,2021-12-17_24h12.03.792,jm_natural_scene_simialrity_2-12-2021_version2,2021.2.3,Win32,59.14360066,5cf3eaf706fb120016ecfd05,61bbc5c79a1c66460f44041e,61bbc5fd3d1a031c0a05cf16,,,,,,-27,32,1,0,0,response7disk,0.6772,-15,3,1,0,0,rectangle,-15,3,1,0,0,2,-3,"[92,122,124,20,138,124,18,64,51,124]",-15,3,1,0,0,1,3,84,20,1,LightGreen,LightGreen.jpg,LightBlue,LightBlue.jpg,,
,,,,,,,,,,,,,,,,,,-4,,,,,,,,,,,,,,,,,,,,,,,,,,,a,001,2021-12-17_24h12.03.792,jm_natural_scene_simialrity_2-12-2021_version2,2021.2.3,Win32,59.14360066,5cf3eaf706fb120016ecfd05,61bbc5c79a1c66460f44041e,61bbc5fd3d1a031c0a05cf16,,,,,,-22,38,1,0,0,response7disk,0.8168,-17,11,1,0,0,rectangle,-17,11,1,0,0,2,1,"[92,122,124,20,138,124,18,64,51,124]",-17,11,1,0,0,1,4,85,21,1,LightGreen,LightGreen.jpg,DarkBlue,DarkBlue.jpg,,
,,,,,,,,,,,,,,,,,,-4,,,,,,,,,,,,,,,,,,,,,,,,,,,a,001,2021-12-17_24h12.03.792,jm_natural_scene_simialrity_2-12-2021_version2,2021.2.3,Win32,59.14360066,5cf3eaf706fb120016ecfd05,61bbc5c79a1c66460f44041e,61bbc5fd3d1a031c0a05cf16,,,,,,-31,41,1,0,0,response7disk,0.4994,-22,14,1,0,0,rectangle,-22,14,1,0,0,2,-4,"[92,122,124,20,138,124,18,64,51,124]",-22,14,1,0,0,1,5,86,5,1,Red,Red.jpg,LightBlue,LightBlue.jpg,,
,,,,,,,,,,,,,,,,,,-4,,,,,,,,,,,,,,,,,,,,,,,,,,,a,001,2021-12-17_24h12.03.792,jm_natural_scene_simialrity_2-12-2021_version2,2021.2.3,Win32,59.14360066,5cf3eaf706fb120016ecfd05,61bbc5c79a1c66460f44041e,61bbc5fd3d1a031c0a05cf16,,,,,,-41,67,1,0,0,response7disk,0.493,-18,9,1,0,0,rectangle,-18,9,1,0,0,2,-2,"[92,122,124,20,138,124,18,64,51,124]",-18,9,1,0,0,1,6,87,19,1,LightGreen,LightGreen.jpg,Turquiose,Turquiose.jpg,,
,,,,,,,,,,,,,,,,,,-4,,,,,,,,,,,,,,,,,,,,,,,,,,,a,001,2021-12-17_24h12.03.792,jm_natural_scene_simialrity_2-12-2021_version2,2021.2.3,Win32,59.14360066,5cf3eaf706fb120016ecfd05,61bbc5c79a1c66460f44041e,61bbc5fd3d1a031c0a05cf16,,,,,,-21,37,1,0,0,response7disk,0.9668,-12,5,1,0,0,rectangle,-12,5,1,0,0,2,1,"[92,122,124,20,138,124,18,64,51,124]",-12,5,1,0,0,1,7,88,43,1,Pink,Pink.jpg,Purple,Purple.jpg,,
,,,,,,,,,,,,,,,,,,-4,,,,,,,,,,,,,,,,,,,,,,,,,,,a,001,2021-12-17_24h12.03.792,jm_natural_scene_simialrity_2-12-2021_version2,2021.2.3,Win32,59.14360066,5cf3eaf706fb120016ecfd05,61bbc5c79a1c66460f44041e,61bbc5fd3d1a031c0a05cf16,,,,,,-33,43,1,0,0,response7disk,0.6623,-4,-1,1,0,0,rectangle,-4,-1,1,0,0,2,2,"[92,122,124,20,138,124,18,64,51,124]",-4,-1,1,0,0,1,8,89,47,1,DarkGreen,DarkGreen.jpg,Red,Red.jpg,,
,,,,,,,,,,,,,,,,,,-4,,,,,,,,,,,,,,,,,,,,,,,,,,,a,001,2021-12-17_24h12.03.792,jm_natural_scene_simialrity_2-12-2021_version2,2021.2.3,Win32,59.14360066,5cf3eaf706fb120016ecfd05,61bbc5c79a1c66460f44041e,61bbc5fd3d1a031c0a05cf16,,,,,,-28,45,1,0,0,response7disk,0.4423,-1,8,1,0,0,rectangle,-1,8,1,0,0,2,-3,"[92,122,124,20,138,124,18,64,51,124]",-1,8,1,0,0,1,9,90,26,1,DarkGreen,DarkGreen.jpg,LightBlue,LightBlue.jpg,,
,,,,,,,,,,,,,,,,,,-3,,,,,,,,,,,,,,,,,,,,,,,,,,,a,001,2021-12-17_24h12.03.792,jm_natural_scene_simialrity_2-12-2021_version2,2021.2.3,Win32,59.14360066,5cf3eaf706fb120016ecfd05,61bbc5c79a1c66460f44041e,61bbc5fd3d1a031c0a05cf16,,,,,,-39,28,1,0,0,response7disk,1.0529,12,-12,1,0,0,rectangle,97,-48,1,0,0,2,2,"[92,122,124,20,138,124,18,64,51,124]",8,-12,1,0,0,1,10,91,38,1,LightBlue,LightBlue.jpg,Purple,Purple.jpg,response3disk_3,rectangle
,,,,,,,,,,,,,,,,,,-4,,,,,,,,,,,,,,,,,,,,,,,,,,,a,001,2021-12-17_24h12.03.792,jm_natural_scene_simialrity_2-12-2021_version2,2021.2.3,Win32,59.14360066,5cf3eaf706fb120016ecfd05,61bbc5c79a1c66460f44041e,61bbc5fd3d1a031c0a05cf16,,,,,,-65,69,1,0,0,response7disk,1.6666,-5,-14,1,0,0,rectangle,-5,-14,1,0,0,2,2,"[92,122,124,20,138,124,18,64,51,124]",-5,-14,1,0,0,1,11,92,76,1,Pink,Pink.jpg,LightBlue,LightBlue.jpg,,
,,,,,,,,,,,,,,,,,,-4,,,,,,,,,,,,,,,,,,,,,,,,,,,a,001,2021-12-17_24h12.03.792,jm_natural_scene_simialrity_2-12-2021_version2,2021.2.3,Win32,59.14360066,5cf3eaf706fb120016ecfd05,61bbc5c79a1c66460f44041e,61bbc5fd3d1a031c0a05cf16,,,,,,-29,47,1,0,0,response7disk,1.4467,1,0,1,0,0,rectangle,1,0,1,0,0,2,3,"[92,122,124,20,138,124,18,64,51,124]",1,0,1,0,0,1,12,93,70,1,Purple,Purple.jpg,DarkGreen,DarkGreen.jpg,,
,,,,,,,,,,,,,,,,,,-4,,,,,,,,,,,,,,,,,,,,,,,,,,,a,001,2021-12-17_24h12.03.792,jm_natural_scene_simialrity_2-12-2021_version2,2021.2.3,Win32,59.14360066,5cf3eaf706fb120016ecfd05,61bbc5c79a1c66460f44041e,61bbc5fd3d1a031c0a05cf16,,,,,,-28,47,1,0,0,response7disk,0.9001,-21,17,1,0,0,rectangle,-21,17,1,0,0,-3,-2,"[92,122,124,20,138,124,18,64,51,124]",-21,17,1,0,0,1,13,94,4,1,Red,Red.jpg,Turquiose,Turquiose.jpg,,
,,,,,,,,,,,,,,,,,,-2,,,,,,,,,,,,,,,,,,,,,,,,,,,a,001,2021-12-17_24h12.03.792,jm_natural_scene_simialrity_2-12-2021_version2,2021.2.3,Win32,59.14360066,5cf3eaf706fb120016ecfd05,61bbc5c79a1c66460f44041e,61bbc5fd3d1a031c0a05cf16,,,,,,-73,-30,1,0,0,response5disk,5.9502,-1,-15,1,0,0,rectangle,-1,-15,1,0,0,-3,-1,"[92,122,124,20,138,124,18,64,51,124]",-1,-15,1,0,0,1,14,95,1,1,Red,Red.jpg,Yellow,Yellow.jpg,,
,,,,,,,,,,,,,,,,,,-4,,,,,,,,,,,,,,,,,,,,,,,,,,,a,001,2021-12-17_24h12.03.792,jm_natural_scene_simialrity_2-12-2021_version2,2021.2.3,Win32,59.14360066,5cf3eaf706fb120016ecfd05,61bbc5c79a1c66460f44041e,61bbc5fd3d1a031c0a05cf16,,,,,,-21,40,1,0,0,response7disk,0.8835,-13,13,1,0,0,rectangle,-13,13,1,0,0,-3,-1,"[92,122,124,20,138,124,18,64,51,124]",-13,13,1,0,0,1,15,96,41,1,DarkBlue,DarkBlue.jpg,Purple,Purple.jpg,,
,,,,,,,,,,,,,,,,,,3,,,,,,,,,,,,,,,,,,,,,,,,,,,a,001,2021-12-17_24h12.03.792,jm_natural_scene_simialrity_2-12-2021_version2,2021.2.3,Win32,59.14360066,5cf3eaf706fb120016ecfd05,61bbc5c79a1c66460f44041e,61bbc5fd3d1a031c0a05cf16,,,,,,46,24,1,0,0,response1disk,2.3999,6,-13,1,0,0,rectangle,6,-13,1,0,0,-3,-4,"[92,122,124,20,138,124,18,64,51,124]",6,-13,1,0,0,1,16,97,39,1,DarkBlue,DarkBlue.jpg,DarkBlue,DarkBlue.jpg,,
,,,,,,,,,,,,,,,,,,-3,,,,,,,,,,,,,,,,,,,,,,,,,,,a,001,2021-12-17_24h12.03.792,jm_natural_scene_simialrity_2-12-2021_version2,2021.2.3,Win32,59.14360066,5cf3eaf706fb120016ecfd05,61bbc5c79a1c66460f44041e,61bbc5fd3d1a031c0a05cf16,,,,,,-36,26,1,0,0,response7disk,3.8829,-6,4,1,0,0,rectangle,-6,4,1,0,0,-3,-3,"[92,122,124,20,138,124,18,64,51,124]",-6,4,1,0,0,1,17,98,53,1,LightGreen,LightGreen.jpg,Yellow,Yellow.jpg,,
,,,,,,,,,,,,,,,,,,-3,,,,,,,,,,,,,,,,,,,,,,,,,,,a,001,2021-12-17_24h12.03.792,jm_natural_scene_simialrity_2-12-2021_version2,2021.2.3,Win32,59.14360066,5cf3eaf706fb120016ecfd05,61bbc5c79a1c66460f44041e,61bbc5fd3d1a031c0a05cf16,,,,,,-49,23,1,0,0,response7disk,1.8833,-11,-3,1,0,0,rectangle,-11,-3,1,0,0,-3,-4,"[92,122,124,20,138,124,18,64,51,124]",-11,-3,1,0,0,1,18,99,74,1,Purple,Purple.jpg,Turquiose,Turquiose.jpg,,
,,,,,,,,,,,,,,,,,,-3,,,,,,,,,,,,,,,,,,,,,,,,,,,a,001,2021-12-17_24h12.03.792,jm_natural_scene_simialrity_2-12-2021_version2,2021.2.3,Win32,59.14360066,5cf3eaf706fb120016ecfd05,61bbc5c79a1c66460f44041e,61bbc5fd3d1a031c0a05cf16,,,,,,-47,27,1,0,0,response7disk,1.4211,-17,-9,1,0,0,rectangle,-17,-9,1,0,0,-3,-3,"[92,122,124,20,138,124,18,64,51,124]",-17,-9,1,0,0,1,19,100,49,1,LightBlue,LightBlue.jpg,Red,Red.jpg,,
,,,,,,,,,,,,,,,,,,-4,,,,,,,,,,,,,,,,,,,,,,,,,,,a,001,2021-12-17_24h12.03.792,jm_natural_scene_simialrity_2-12-2021_version2,2021.2.3,Win32,59.14360066,5cf3eaf706fb120016ecfd05,61bbc5c79a1c66460f44041e,61bbc5fd3d1a031c0a05cf16,,,,,,-38,54,1,0,0,response7disk,2.7562,-16,13,1,0,0,rectangle,-16,13,1,0,0,-3,-3,"[92,122,124,20,138,124,18,64,51,124]",-16,13,1,0,0,1,20,101,45,1,Yellow,Yellow.jpg,Red,Red.jpg,,
,,,,,,,,,,,,,,,,,,-4,,,,,,,,,,,,,,,,,,,,,,,,,,,a,001,2021-12-17_24h12.03.792,jm_natural_scene_simialrity_2-12-2021_version2,2021.2.3,Win32,59.14360066,5cf3eaf706fb120016ecfd05,61bbc5c79a1c66460f44041e,61bbc5fd3d1a031c0a05cf16,,,,,,-34,51,1,0,0,response7disk,2.0166,-18,13,1,0,0,rectangle,-18,13,1,0,0,-3,3,"[92,122,124,20,138,124,18,64,51,124]",-18,13,1,0,0,1,21,102,56,1,LightBlue,LightBlue.jpg,Yellow,Yellow.jpg,,
,,,,,,,,,,,,,,,,,,4,,,,,,,,,,,,,,,,,,,,,,,,,,,a,001,2021-12-17_24h12.03.792,jm_natural_scene_simialrity_2-12-2021_version2,2021.2.3,Win32,59.14360066,5cf3eaf706fb120016ecfd05,61bbc5c79a1c66460f44041e,61bbc5fd3d1a031c0a05cf16,,,,,,30,45,1,0,0,response1disk,1.6002,3,6,1,0,0,rectangle,3,6,1,0,0,-3,-1,"[92,122,124,20,138,124,18,64,51,124]",3,6,1,0,0,1,22,103,42,1,Pink,Pink.jpg,Pink,Pink.jpg,,
,,,,,,,,,,,,,,,,,,-3,,,,,,,,,,,,,,,,,,,,,,,,,,,a,001,2021-12-17_24h12.03.792,jm_natural_scene_simialrity_2-12-2021_version2,2021.2.3,Win32,59.14360066,5cf3eaf706fb120016ecfd05,61bbc5c79a1c66460f44041e,61bbc5fd3d1a031c0a05cf16,,,,,,-43,26,1,0,0,response7disk,1.1501,-25,14,1,0,0,rectangle,-25,14,1,0,0,-3,-1,"[92,122,124,20,138,124,18,64,51,124]",-25,14,1,0,0,1,23,104,13,1,Yellow,Yellow.jpg,LightBlue,LightBlue.jpg,,
,,,,,,,,,,,,,,,,,,4,,,,,,,,,,,,,,,,,,,,,,,,,,,a,001,2021-12-17_24h12.03.792,jm_natural_scene_simialrity_2-12-2021_version2,2021.2.3,Win32,59.14360066,5cf3eaf706fb120016ecfd05,61bbc5c79a1c66460f44041e,61bbc5fd3d1a031c0a05cf16,,,,,,33,45,1,0,0,response1disk,1.7302,7,2,1,0,0,rectangle,7,2,1,0,0,-3,-4,"[92,122,124,20,138,124,18,64,51,124]",7,2,1,0,0,1,24,105,35,1,LightBlue,LightBlue.jpg,LightBlue,LightBlue.jpg,,
,,,,,,,,,,,,,,,,,,-4,,,,,,,,,,,,,,,,,,,,,,,,,,,a,001,2021-12-17_24h12.03.792,jm_natural_scene_simialrity_2-12-2021_version2,2021.2.3,Win32,59.14360066,5cf3eaf706fb120016ecfd05,61bbc5c79a1c66460f44041e,61bbc5fd3d1a031c0a05cf16,,,,,,-37,54,1,0,0,response7disk,2.3268,-10,-20,1,0,0,rectangle,-10,-20,1,0,0,-3,-1,"[92,122,124,20,138,124,18,64,51,124]",-10,-20,1,0,0,1,25,106,18,1,LightGreen,LightGreen.jpg,DarkGreen,DarkGreen.jpg,,
,,,,,,,,,,,,,,,,,,-4,,,,,,,,,,,,,,,,,,,,,,,,,,,a,001,2021-12-17_24h12.03.792,jm_natural_scene_simialrity_2-12-2021_version2,2021.2.3,Win32,59.14360066,5cf3eaf706fb120016ecfd05,61bbc5c79a1c66460f44041e,61bbc5fd3d1a031c0a05cf16,,,,,,-32,41,1,0,0,response7disk,1.0603,-21,13,1,0,0,rectangle,-21,13,1,0,0,-3,3,"[92,122,124,20,138,124,18,64,51,124]",-21,13,1,0,0,1,26,107,27,1,DarkGreen,DarkGreen.jpg,DarkBlue,DarkBlue.jpg,,
,,,,,,,,,,,,,,,,,,-4,,,,,,,,,,,,,,,,,,,,,,,,,,,a,001,2021-12-17_24h12.03.792,jm_natural_scene_simialrity_2-12-2021_version2,2021.2.3,Win32,59.14360066,5cf3eaf706fb120016ecfd05,61bbc5c79a1c66460f44041e,61bbc5fd3d1a031c0a05cf16,,,,,,-23,37,1,0,0,response7disk,0.6737,-14,12,1,0,0,rectangle,-14,12,1,0,0,-3,-3,"[92,122,124,20,138,124,18,64,51,124]",-14,12,1,0,0,1,27,108,57,1,DarkBlue,DarkBlue.jpg,Yellow,Yellow.jpg,,
,,,,,,,,,,,,,,,,,,-4,,,,,,,,,,,,,,,,,,,,,,,,,,,a,001,2021-12-17_24h12.03.792,jm_natural_scene_simialrity_2-12-2021_version2,2021.2.3,Win32,59.14360066,5cf3eaf706fb120016ecfd05,61bbc5c79a1c66460f44041e,61bbc5fd3d1a031c0a05cf16,,,,,,-28,42,1,0,0,response7disk,0.7163,-8,1,1,0,0,rectangle,-8,1,1,0,0,-3,3,"[92,122,124,20,138,124,18,64,51,124]",-8,1,1,0,0,1,28,109,28,1,DarkGreen,DarkGreen.jpg,Pink,Pink.jpg,,
,,,,,,,,,,,,,,,,,,-4,,,,,,,,,,,,,,,,,,,,,,,,,,,a,001,2021-12-17_24h12.03.792,jm_natural_scene_simialrity_2-12-2021_version2,2021.2.3,Win32,59.14360066,5cf3eaf706fb120016ecfd05,61bbc5c79a1c66460f44041e,61bbc5fd3d1a031c0a05cf16,,,,,,-31,47,1,0,0,response7disk,0.9789,-6,-2,1,0,0,rectangle,-6,-2,1,0,0,-3,-1,"[92,122,124,20,138,124,18,64,51,124]",-6,-2,1,0,0,1,29,110,51,1,Pink,Pink.jpg,Red,Red.jpg,,
,,,,,,,,,,,,,,,,,,-4,,,,,,,,,,,,,,,,,,,,,,,,,,,a,001,2021-12-17_24h12.03.792,jm_natural_scene_simialrity_2-12-2021_version2,2021.2.3,Win32,59.14360066,5cf3eaf706fb120016ecfd05,61bbc5c79a1c66460f44041e,61bbc5fd3d1a031c0a05cf16,,,,,,-25,44,1,0,0,response7disk,0.9997,-2,2,1,0,0,rectangle,-2,2,1,0,0,-3,1,"[92,122,124,20,138,124,18,64,51,124]",-2,2,1,0,0,1,30,111,80,1,Purple,Purple.jpg,Pink,Pink.jpg,,
,,,,,,,,,,,,,,,,,,-3,,,,,,,,,,,,,,,,,,,,,,,,,,,a,001,2021-12-17_24h12.03.792,jm_natural_scene_simialrity_2-12-2021_version2,2021.2.3,Win32,59.14360066,5cf3eaf706fb120016ecfd05,61bbc5c79a1c66460f44041e,61bbc5fd3d1a031c0a05cf16,,,,,,-46,32,1,0,0,response7disk,1.5335,-8,3,1,0,0,rectangle,-8,3,1,0,0,-3,2,"[92,122,124,20,138,124,18,64,51,124]",-8,3,1,0,0,1,31,112,34,1,Turquiose,Turquiose.jpg,Purple,Purple.jpg,,
,,,,,,,,,,,,,,,,,,-4,,,,,,,,,,,,,,,,,,,,,,,,,,,a,001,2021-12-17_24h12.03.792,jm_natural_scene_simialrity_2-12-2021_version2,2021.2.3,Win32,59.14360066,5cf3eaf706fb120016ecfd05,61bbc5c79a1c66460f44041e,61bbc5fd3d1a031c0a05cf16,,,,,,-29,47,1,0,0,response7disk,0.8076,-17,17,1,0,0,rectangle,-17,17,1,0,0,-3,3,"[92,122,124,20,138,124,18,64,51,124]",-17,17,1,0,0,1,32,113,36,1,LightBlue,LightBlue.jpg,DarkBlue,DarkBlue.jpg,,
,,,,,,,,,,,,,,,,,,-4,,,,,,,,,,,,,,,,,,,,,,,,,,,a,001,2021-12-17_24h12.03.792,jm_natural_scene_simialrity_2-12-2021_version2,2021.2.3,Win32,59.14360066,5cf3eaf706fb120016ecfd05,61bbc5c79a1c66460f44041e,61bbc5fd3d1a031c0a05cf16,,,,,,-26,40,1,0,0,response7disk,0.6668,-13,4,1,0,0,rectangle,-13,4,1,0,0,-3,-4,"[92,122,124,20,138,124,18,64,51,124]",-13,4,1,0,0,1,33,114,32,1,Turquiose,Turquiose.jpg,DarkBlue,DarkBlue.jpg,,
,,,,,,,,,,,,,,,,,,4,,,,,,,,,,,,,,,,,,,,,,,,,,,a,001,2021-12-17_24h12.03.792,jm_natural_scene_simialrity_2-12-2021_version2,2021.2.3,Win32,59.14360066,5cf3eaf706fb120016ecfd05,61bbc5c79a1c66460f44041e,61bbc5fd3d1a031c0a05cf16,,,,,,33,55,1,0,0,response1disk,1.9997,6,1,1,0,0,rectangle,6,1,1,0,0,-3,2,"[92,122,124,20,138,124,18,64,51,124]",6,1,1,0,0,1,34,115,9,1,Yellow,Yellow.jpg,Yellow,Yellow.jpg,,
,,,,,,,,,,,,,,,,,,-4,,,,,,,,,,,,,,,,,,,,,,,,,,,a,001,2021-12-17_24h12.03.792,jm_natural_scene_simialrity_2-12-2021_version2,2021.2.3,Win32,59.14360066,5cf3eaf706fb120016ecfd05,61bbc5c79a1c66460f44041e,61bbc5fd3d1a031c0a05cf16,,,,,,-35,52,1,0,0,response7disk,1.3171,-21,3,1,0,0,rectangle,-21,3,1,0,0,-3,-1,"[92,122,124,20,138,124,18,64,51,124]",-21,3,1,0,0,1,35,116,2,1,Red,Red.jpg,LightGreen,LightGreen.jpg,,
,,,,,,,,,,,,,,,,,,-4,,,,,,,,,,,,,,,,,,,,,,,,,,,a,001,2021-12-17_24h12.03.792,jm_natural_scene_simialrity_2-12-2021_version2,2021.2.3,Win32,59.14360066,5cf3eaf706fb120016ecfd05,61bbc5c79a1c66460f44041e,61bbc5fd3d1a031c0a05cf16,,,,,,-37,59,1,0,0,response7disk,0.8671,-9,4,1,0,0,rectangle,-9,4,1,0,0,-3,1,"[92,122,124,20,138,124,18,64,51,124]",-9,4,1,0,0,1,36,117,14,1,Yellow,Yellow.jpg,DarkBlue,DarkBlue.jpg,,
,,,,,,,,,,,,,,,,,,-4,,,,,,,,,,,,,,,,,,,,,,,,,,,a,001,2021-12-17_24h12.03.792,jm_natural_scene_simialrity_2-12-2021_version2,2021.2.3,Win32,59.14360066,5cf3eaf706fb120016ecfd05,61bbc5c79a1c66460f44041e,61bbc5fd3d1a031c0a05cf16,,,,,,-31,94,1,0,0,response7disk,27.4255,-5,-2,1,0,0,rectangle,-5,-2,1,0,0,-3,-4,"[92,122,124,20,138,124,18,64,51,124]",-5,-2,1,0,0,1,37,118,78,1,Pink,Pink.jpg,DarkBlue,DarkBlue.jpg,,
,,,,,,,,,,,,,,,,,,-3,,,,,,,,,,,,,,,,,,,,,,,,,,,a,001,2021-12-17_24h12.03.792,jm_natural_scene_simialrity_2-12-2021_version2,2021.2.3,Win32,59.14360066,5cf3eaf706fb120016ecfd05,61bbc5c79a1c66460f44041e,61bbc5fd3d1a031c0a05cf16,,,,,,-59,35,1,0,0,response7disk,1.8253,7,-19,1,0,0,rectangle,7,-19,1,0,0,-3,1,"[92,122,124,20,138,124,18,64,51,124]",7,-19,1,0,0,1,38,119,68,1,DarkBlue,DarkBlue.jpg,DarkGreen,DarkGreen.jpg,,
,,,,,,,,,,,,,,,,,,-4,,,,,,,,,,,,,,,,,,,,,,,,,,,a,001,2021-12-17_24h12.03.792,jm_natural_scene_simialrity_2-12-2021_version2,2021.2.3,Win32,59.14360066,5cf3eaf706fb120016ecfd05,61bbc5c79a1c66460f44041e,61bbc5fd3d1a031c0a05cf16,,,,,,-30,52,1,0,0,response7disk,1.0258,1,5,1,0,0,rectangle,1,5,1,0,0,-3,2,"[92,122,124,20,138,124,18,64,51,124]",1,5,1,0,0,1,39,120,22,1,LightGreen,LightGreen.jpg,Pink,Pink.jpg,,
,,,,,,,,,,,,,,,,,,-4,,,,,,,,,,,,,,,,,,,,,,,,,,,a,001,2021-12-17_24h12.03.792,jm_natural_scene_simialrity_2-12-2021_version2,2021.2.3,Win32,59.14360066,5cf3eaf706fb120016ecfd05,61bbc5c79a1c66460f44041e,61bbc5fd3d1a031c0a05cf16,,,,,,-26,43,1,0,0,response7disk,1.1991,-7,7,1,0,0,rectangle,52,-72,1,0,0,1,1,"[92,122,124,20,138,124,18,64,51,124]",-2,5,1,0,0,1,40,121,58,1,Pink,Pink.jpg,Yellow,Yellow.jpg,response3disk_3,rectangle
,,,,,,,,,,,,,,,,,,-4,,,,,,,,,,,,,,,,,,,,,,,,,,,a,001,2021-12-17_24h12.03.792,jm_natural_scene_simialrity_2-12-2021_version2,2021.2.3,Win32,59.14360066,5cf3eaf706fb120016ecfd05,61bbc5c79a1c66460f44041e,61bbc5fd3d1a031c0a05cf16,,,,,,-26,48,1,0,0,response7disk,2.6659,-7,9,1,0,0,rectangle,-7,9,1,0,0,1,-1,"[92,122,124,20,138,124,18,64,51,124]",-7,9,1,0,0,1,41,122,10,1,Yellow,Yellow.jpg,LightGreen,LightGreen.jpg,,
,,,,,,,,,,,,,,,,,,-4,,,,,,,,,,,,,,,,,,,,,,,,,,,a,001,2021-12-17_24h12.03.792,jm_natural_scene_simialrity_2-12-2021_version2,2021.2.3,Win32,59.14360066,5cf3eaf706fb120016ecfd05,61bbc5c79a1c66460f44041e,61bbc5fd3d1a031c0a05cf16,,,,,,-40,58,1,0,0,response7disk,2.1828,-11,7,1,0,0,rectangle,58,39,1,0,0,3,3,"[92,122,124,20,138,124,18,64,51,124]",5,13,1,0,0,1,42,123,67,1,LightBlue,LightBlue.jpg,DarkGreen,DarkGreen.jpg,response1disk_3,rectangle
,,,,,,,,,,,,,,,,,,-4,,,,,,,,,,,,,,,,,,,,,,,,,,,a,001,2021-12-17_24h12.03.792,jm_natural_scene_simialrity_2-12-2021_version2,2021.2.3,Win32,59.14360066,5cf3eaf706fb120016ecfd05,61bbc5c79a1c66460f44041e,61bbc5fd3d1a031c0a05cf16,,,,,,-21,47,1,0,0,response7disk,1.0266,-6,9,1,0,0,rectangle,-6,9,1,0,0,3,-4,"[92,122,124,20,138,124,18,64,51,124]",-6,9,1,0,0,1,43,124,15,1,Yellow,Yellow.jpg,Pink,Pink.jpg,,
,,,,,,,,,,,,,,,,,,-4,,,,,,,,,,,,,,,,,,,,,,,,,,,a,001,2021-12-17_24h12.03.792,jm_natural_scene_simialrity_2-12-2021_version2,2021.2.3,Win32,59.14360066,5cf3eaf706fb120016ecfd05,61bbc5c79a1c66460f44041e,61bbc5fd3d1a031c0a05cf16,,,,,,-28,42,1,0,0,response7disk,0.8,-11,18,1,0,0,rectangle,-11,18,1,0,0,3,-2,"[92,122,124,20,138,124,18,64,51,124]",-11,18,1,0,0,1,44,125,25,1,DarkGreen,DarkGreen.jpg,Turquiose,Turquiose.jpg,,
,,,,,,,,,,,,,,,,,,-4,,,,,,,,,,,,,,,,,,,,,,,,,,,a,001,2021-12-17_24h12.03.792,jm_natural_scene_simialrity_2-12-2021_version2,2021.2.3,Win32,59.14360066,5cf3eaf706fb120016ecfd05,61bbc5c79a1c66460f44041e,61bbc5fd3d1a031c0a05cf16,,,,,,-28,49,1,0,0,response7disk,0.7739,-16,24,1,0,0,rectangle,-16,24,1,0,0,3,-1,"[92,122,124,20,138,124,18,64,51,124]",-16,24,1,0,0,1,45,126,66,1,Turquiose,Turquiose.jpg,DarkGreen,DarkGreen.jpg,,
,,,,,,,,,,,,,,,,,,-4,,,,,,,,,,,,,,,,,,,,,,,,,,,a,001,2021-12-17_24h12.03.792,jm_natural_scene_simialrity_2-12-2021_version2,2021.2.3,Win32,59.14360066,5cf3eaf706fb120016ecfd05,61bbc5c79a1c66460f44041e,61bbc5fd3d1a031c0a05cf16,,,,,,-28,48,1,0,0,response7disk,0.7168,-3,-6,1,0,0,rectangle,-3,-6,1,0,0,3,-4,"[92,122,124,20,138,124,18,64,51,124]",-3,-6,1,0,0,1,46,127,31,1,Turquiose,Turquiose.jpg,LightBlue,LightBlue.jpg,,
,,,,,,,,,,,,,,,,,,-4,,,,,,,,,,,,,,,,,,,,,,,,,,,a,001,2021-12-17_24h12.03.792,jm_natural_scene_simialrity_2-12-2021_version2,2021.2.3,Win32,59.14360066,5cf3eaf706fb120016ecfd05,61bbc5c79a1c66460f44041e,61bbc5fd3d1a031c0a05cf16,,,,,,-28,41,1,0,0,response7disk,0.8348,-10,3,1,0,0,rectangle,-10,3,1,0,0,3,3,"[92,122,124,20,138,124,18,64,51,124]",-10,3,1,0,0,1,47,128,37,1,LightBlue,LightBlue.jpg,Pink,Pink.jpg,,
,,,,,,,,,,,,,,,,,,-4,,,,,,,,,,,,,,,,,,,,,,,,,,,a,001,2021-12-17_24h12.03.792,jm_natural_scene_simialrity_2-12-2021_version2,2021.2.3,Win32,59.14360066,5cf3eaf706fb120016ecfd05,61bbc5c79a1c66460f44041e,61bbc5fd3d1a031c0a05cf16,,,,,,-26,37,1,0,0,response7disk,0.8007,-6,-5,1,0,0,rectangle,-6,-5,1,0,0,3,1,"[92,122,124,20,138,124,18,64,51,124]",-6,-5,1,0,0,1,48,129,64,1,Pink,Pink.jpg,LightGreen,LightGreen.jpg,,
,,,,,,,,,,,,,,,,,,-4,,,,,,,,,,,,,,,,,,,,,,,,,,,a,001,2021-12-17_24h12.03.792,jm_natural_scene_simialrity_2-12-2021_version2,2021.2.3,Win32,59.14360066,5cf3eaf706fb120016ecfd05,61bbc5c79a1c66460f44041e,61bbc5fd3d1a031c0a05cf16,,,,,,-27,40,1,0,0,response7disk,0.6502,-13,9,1,0,0,rectangle,-13,9,1,0,0,3,-2,"[92,122,124,20,138,124,18,64,51,124]",-13,9,1,0,0,1,49,130,46,1,LightGreen,LightGreen.jpg,Red,Red.jpg,,
,,,,,,,,,,,,,,,,,,-3,,,,,,,,,,,,,,,,,,,,,,,,,,,a,001,2021-12-17_24h12.03.792,jm_natural_scene_simialrity_2-12-2021_version2,2021.2.3,Win32,59.14360066,5cf3eaf706fb120016ecfd05,61bbc5c79a1c66460f44041e,61bbc5fd3d1a031c0a05cf16,,,,,,-54,41,1,0,0,response7disk,0.997,-21,11,1,0,0,rectangle,-21,11,1,0,0,3,-1,"[92,122,124,20,138,124,18,64,51,124]",-21,11,1,0,0,1,50,131,30,1,Turquiose,Turquiose.jpg,Turquiose,Turquiose.jpg,,
,,,,,,,,,,,,,,,,,,4,,,,,,,,,,,,,,,,,,,,,,,,,,,a,001,2021-12-17_24h12.03.792,jm_natural_scene_simialrity_2-12-2021_version2,2021.2.3,Win32,59.14360066,5cf3eaf706fb120016ecfd05,61bbc5c79a1c66460f44041e,61bbc5fd3d1a031c0a05cf16,,,,,,23,52,1,0,0,response1disk,1.7332,4,14,1,0,0,rectangle,4,14,1,0,0,3,-1,"[92,122,124,20,138,124,18,64,51,124]",4,14,1,0,0,1,51,132,24,1,DarkGreen,DarkGreen.jpg,DarkGreen,DarkGreen.jpg,,
,,,,,,,,,,,,,,,,,,-4,,,,,,,,,,,,,,,,,,,,,,,,,,,a,001,2021-12-17_24h12.03.792,jm_natural_scene_simialrity_2-12-2021_version2,2021.2.3,Win32,59.14360066,5cf3eaf706fb120016ecfd05,61bbc5c79a1c66460f44041e,61bbc5fd3d1a031c0a05cf16,,,,,,-29,55,1,0,0,response7disk,0.5448,-10,17,1,0,0,rectangle,-10,17,1,0,0,3,2,"[92,122,124,20,138,124,18,64,51,124]",-10,17,1,0,0,1,52,133,79,1,Purple,Purple.jpg,DarkBlue,DarkBlue.jpg,,
,,,,,,,,,,,,,,,,,,-4,,,,,,,,,,,,,,,,,,,,,,,,,,,a,001,2021-12-17_24h12.03.792,jm_natural_scene_simialrity_2-12-2021_version2,2021.2.3,Win32,59.14360066,5cf3eaf706fb120016ecfd05,61bbc5c79a1c66460f44041e,61bbc5fd3d1a031c0a05cf16,,,,,,-25,42,1,0,0,response7disk,0.8499,-5,-3,1,0,0,rectangle,-5,-3,1,0,0,3,-1,"[92,122,124,20,138,124,18,64,51,124]",-5,-3,1,0,0,1,53,134,54,1,DarkGreen,DarkGreen.jpg,Yellow,Yellow.jpg,,
,,,,,,,,,,,,,,,,,,-4,,,,,,,,,,,,,,,,,,,,,,,,,,,a,001,2021-12-17_24h12.03.792,jm_natural_scene_simialrity_2-12-2021_version2,2021.2.3,Win32,59.14360066,5cf3eaf706fb120016ecfd05,61bbc5c79a1c66460f44041e,61bbc5fd3d1a031c0a05cf16,,,,,,-24,50,1,0,0,response7disk,0.8005,-3,9,1,0,0,rectangle,-3,9,1,0,0,3,-4,"[92,122,124,20,138,124,18,64,51,124]",-3,9,1,0,0,1,54,135,3,1,Red,Red.jpg,DarkGreen,DarkGreen.jpg,,
,,,,,,,,,,,,,,,,,,-4,,,,,,,,,,,,,,,,,,,,,,,,,,,a,001,2021-12-17_24h12.03.792,jm_natural_scene_simialrity_2-12-2021_version2,2021.2.3,Win32,59.14360066,5cf3eaf706fb120016ecfd05,61bbc5c79a1c66460f44041e,61bbc5fd3d1a031c0a05cf16,,,,,,-24,44,1,0,0,response7disk,0.5834,-5,11,1,0,0,rectangle,-5,11,1,0,0,3,-3,"[92,122,124,20,138,124,18,64,51,124]",-5,11,1,0,0,1,55,136,73,1,Pink,Pink.jpg,Turquiose,Turquiose.jpg,,
,,,,,,,,,,,,,,,,,,-4,,,,,,,,,,,,,,,,,,,,,,,,,,,a,001,2021-12-17_24h12.03.792,jm_natural_scene_simialrity_2-12-2021_version2,2021.2.3,Win32,59.14360066,5cf3eaf706fb120016ecfd05,61bbc5c79a1c66460f44041e,61bbc5fd3d1a031c0a05cf16,,,,,,-25,49,1,0,0,response7disk,0.6007,-2,9,1,0,0,rectangle,-31,60,1,0,0,-4,-4,"[92,122,124,20,138,124,18,64,51,124]",19,-22,1,0,0,1,56,137,29,1,DarkGreen,DarkGreen.jpg,Purple,Purple.jpg,response7disk_3,rectangle
,,,,,,,,,,,,,,,,,,-4,,,,,,,,,,,,,,,,,,,,,,,,,,,a,001,2021-12-17_24h12.03.792,jm_natural_scene_simialrity_2-12-2021_version2,2021.2.3,Win32,59.14360066,5cf3eaf706fb120016ecfd05,61bbc5c79a1c66460f44041e,61bbc5fd3d1a031c0a05cf16,,,,,,-40,57,1,0,0,response7disk,1.2945,-2,-3,1,0,0,rectangle,-2,-3,1,0,0,-4,3,"[92,122,124,20,138,124,18,64,51,124]",-2,-3,1,0,0,1,57,138,69,1,Pink,Pink.jpg,DarkGreen,DarkGreen.jpg,,
,,,,,,,,,,,,,,,,,,4,,,,,,,,,,,,,,,,,,,,,,,,,,,a,001,2021-12-17_24h12.03.792,jm_natural_scene_simialrity_2-12-2021_version2,2021.2.3,Win32,59.14360066,5cf3eaf706fb120016ecfd05,61bbc5c79a1c66460f44041e,61bbc5fd3d1a031c0a05cf16,,,,,,31,53,1,0,0,response1disk,1.0846,15,22,1,0,0,rectangle,15,22,1,0,0,-4,-4,"[92,122,124,20,138,124,18,64,51,124]",15,22,1,0,0,1,58,139,17,1,LightGreen,LightGreen.jpg,LightGreen,LightGreen.jpg,,
,,,,,,,,,,,,,,,,,,-4,,,,,,,,,,,,,,,,,,,,,,,,,,,a,001,2021-12-17_24h12.03.792,jm_natural_scene_simialrity_2-12-2021_version2,2021.2.3,Win32,59.14360066,5cf3eaf706fb120016ecfd05,61bbc5c79a1c66460f44041e,61bbc5fd3d1a031c0a05cf16,,,,,,-21,47,1,0,0,response7disk,0.5742,1,-2,1,0,0,rectangle,1,-2,1,0,0,-4,-2,"[92,122,124,20,138,124,18,64,51,124]",1,-2,1,0,0,1,59,140,59,1,Purple,Purple.jpg,Yellow,Yellow.jpg,,
,,,,,,,,,,,,,,,,,,-4,,,,,,,,,,,,,,,,,,,,,,,,,,,a,001,2021-12-17_24h12.03.792,jm_natural_scene_simialrity_2-12-2021_version2,2021.2.3,Win32,59.14360066,5cf3eaf706fb120016ecfd05,61bbc5c79a1c66460f44041e,61bbc5fd3d1a031c0a05cf16,,,,,,-31,76,1,0,0,response7disk,0.892,10,-6,1,0,0,rectangle,10,-6,1,0,0,-4,2,"[92,122,124,20,138,124,18,64,51,124]",10,-6,1,0,0,1,60,141,65,1,Purple,Purple.jpg,LightGreen,LightGreen.jpg,,
,,,,,,,,,,,,,,,,,,-4,,,,,,,,,,,,,,,,,,,,,,,,,,,a,001,2021-12-17_24h12.03.792,jm_natural_scene_simialrity_2-12-2021_version2,2021.2.3,Win32,59.14360066,5cf3eaf706fb120016ecfd05,61bbc5c79a1c66460f44041e,61bbc5fd3d1a031c0a05cf16,,,,,,-20,49,1,0,0,response7disk,0.857,7,-14,1,0,0,rectangle,7,-14,1,0,0,-4,-3,"[92,122,124,20,138,124,18,64,51,124]",7,-14,1,0,0,1,61,142,48,1,Turquiose,Turquiose.jpg,Red,Red.jpg,,
,,,,,,,,,,,,,,,,,,-3,,,,,,,,,,,,,,,,,,,,,,,,,,,a,001,2021-12-17_24h12.03.792,jm_natural_scene_simialrity_2-12-2021_version2,2021.2.3,Win32,59.14360066,5cf3eaf706fb120016ecfd05,61bbc5c79a1c66460f44041e,61bbc5fd3d1a031c0a05cf16,,,,,,-49,34,1,0,0,response7disk,1.3237,-24,11,1,0,0,rectangle,-24,11,1,0,0,-4,-1,"[92,122,124,20,138,124,18,64,51,124]",-24,11,1,0,0,1,62,143,71,1,LightBlue,LightBlue.jpg,Turquiose,Turquiose.jpg,,
,,,,,,,,,,,,,,,,,,-4,,,,,,,,,,,,,,,,,,,,,,,,,,,a,001,2021-12-17_24h12.03.792,jm_natural_scene_simialrity_2-12-2021_version2,2021.2.3,Win32,59.14360066,5cf3eaf706fb120016ecfd05,61bbc5c79a1c66460f44041e,61bbc5fd3d1a031c0a05cf16,,,,,,-27,38,1,0,0,response7disk,0.5996,-19,13,1,0,0,rectangle,-19,13,1,0,0,-4,-1,"[92,122,124,20,138,124,18,64,51,124]",-19,13,1,0,0,1,63,144,72,1,DarkBlue,DarkBlue.jpg,Turquiose,Turquiose.jpg,,
,,,,,,,,,,,,,,,,,,-4,,,,,,,,,,,,,,,,,,,,,,,,,,,a,001,2021-12-17_24h12.03.792,jm_natural_scene_simialrity_2-12-2021_version2,2021.2.3,Win32,59.14360066,5cf3eaf706fb120016ecfd05,61bbc5c79a1c66460f44041e,61bbc5fd3d1a031c0a05cf16,,,,,,-22,39,1,0,0,response7disk,0.5164,-11,1,1,0,0,rectangle,-11,1,1,0,0,-4,2,"[92,122,124,20,138,124,18,64,51,124]",-11,1,1,0,0,1,64,145,11,1,Yellow,Yellow.jpg,DarkGreen,DarkGreen.jpg,,
,,,,,,,,,,,,,,,,,,-4,,,,,,,,,,,,,,,,,,,,,,,,,,,a,001,2021-12-17_24h12.03.792,jm_natural_scene_simialrity_2-12-2021_version2,2021.2.3,Win32,59.14360066,5cf3eaf706fb120016ecfd05,61bbc5c79a1c66460f44041e,61bbc5fd3d1a031c0a05cf16,,,,,,-24,40,1,0,0,response7disk,0.5099,-15,19,1,0,0,rectangle,-15,19,1,0,0,-4,3,"[92,122,124,20,138,124,18,64,51,124]",-15,19,1,0,0,1,65,146,6,1,Red,Red.jpg,DarkBlue,DarkBlue.jpg,,
,,,,,,,,,,,,,,,,,,-4,,,,,,,,,,,,,,,,,,,,,,,,,,,a,001,2021-12-17_24h12.03.792,jm_natural_scene_simialrity_2-12-2021_version2,2021.2.3,Win32,59.14360066,5cf3eaf706fb120016ecfd05,61bbc5c79a1c66460f44041e,61bbc5fd3d1a031c0a05cf16,,,,,,-30,51,1,0,0,response7disk,0.4908,-11,16,1,0,0,rectangle,-11,16,1,0,0,-4,2,"[92,122,124,20,138,124,18,64,51,124]",-11,16,1,0,0,1,66,147,33,1,Turquiose,Turquiose.jpg,Pink,Pink.jpg,,
,,,,,,,,,,,,,,,,,,-3,,,,,,,,,,,,,,,,,,,,,,,,,,,a,001,2021-12-17_24h12.03.792,jm_natural_scene_simialrity_2-12-2021_version2,2021.2.3,Win32,59.14360066,5cf3eaf706fb120016ecfd05,61bbc5c79a1c66460f44041e,61bbc5fd3d1a031c0a05cf16,,,,,,-60,31,1,0,0,response7disk,1.1112,-14,3,1,0,0,rectangle,-14,3,1,0,0,-4,-1,"[92,122,124,20,138,124,18,64,51,124]",-14,3,1,0,0,1,67,148,77,1,Purple,Purple.jpg,LightBlue,LightBlue.jpg,,
,,,,,,,,,,,,,,,,,,4,,,,,,,,,,,,,,,,,,,,,,,,,,,a,001,2021-12-17_24h12.03.792,jm_natural_scene_simialrity_2-12-2021_version2,2021.2.3,Win32,59.14360066,5cf3eaf706fb120016ecfd05,61bbc5c79a1c66460f44041e,61bbc5fd3d1a031c0a05cf16,,,,,,24,62,1,0,0,response1disk,1.4909,6,8,1,0,0,rectangle,6,8,1,0,0,-4,-2,"[92,122,124,20,138,124,18,64,51,124]",6,8,1,0,0,1,68,149,0,1,Red,Red.jpg,Red,Red.jpg,,
,,,,,,,,,,,,,,,,,,-4,,,,,,,,,,,,,,,,,,,,,,,,,,,a,001,2021-12-17_24h12.03.792,jm_natural_scene_simialrity_2-12-2021_version2,2021.2.3,Win32,59.14360066,5cf3eaf706fb120016ecfd05,61bbc5c79a1c66460f44041e,61bbc5fd3d1a031c0a05cf16,,,,,,-25,49,1,0,0,response7disk,0.6669,-8,9,1,0,0,rectangle,-8,9,1,0,0,-4,1,"[92,122,124,20,138,124,18,64,51,124]",-8,9,1,0,0,1,69,150,50,1,DarkBlue,DarkBlue.jpg,Red,Red.jpg,,
,,,,,,,,,,,,,,,,,,-4,,,,,,,,,,,,,,,,,,,,,,,,,,,a,001,2021-12-17_24h12.03.792,jm_natural_scene_simialrity_2-12-2021_version2,2021.2.3,Win32,59.14360066,5cf3eaf706fb120016ecfd05,61bbc5c79a1c66460f44041e,61bbc5fd3d1a031c0a05cf16,,,,,,-24,41,1,0,0,response7disk,0.5492,-16,22,1,0,0,rectangle,-16,22,1,0,0,-4,-4,"[92,122,124,20,138,124,18,64,51,124]",-16,22,1,0,0,1,70,151,52,1,Purple,Purple.jpg,Red,Red.jpg,,
,,,,,,,,,,,,,,,,,,-4,,,,,,,,,,,,,,,,,,,,,,,,,,,a,001,2021-12-17_24h12.03.792,jm_natural_scene_simialrity_2-12-2021_version2,2021.2.3,Win32,59.14360066,5cf3eaf706fb120016ecfd05,61bbc5c79a1c66460f44041e,61bbc5fd3d1a031c0a05cf16,,,,,,-35,60,1,0,0,response7disk,0.4603,-3,2,1,0,0,rectangle,-3,2,1,0,0,-4,-3,"[92,122,124,20,138,124,18,64,51,124]",-3,2,1,0,0,1,71,152,40,1,DarkBlue,DarkBlue.jpg,Pink,Pink.jpg,,
,,,,,,,,,,,,,,,,,,-4,,,,,,,,,,,,,,,,,,,,,,,,,,,a,001,2021-12-17_24h12.03.792,jm_natural_scene_simialrity_2-12-2021_version2,2021.2.3,Win32,59.14360066,5cf3eaf706fb120016ecfd05,61bbc5c79a1c66460f44041e,61bbc5fd3d1a031c0a05cf16,,,,,,-44,88,1,0,0,response7disk,0.5602,-10,15,1,0,0,rectangle,-10,15,1,0,0,-4,3,"[92,122,124,20,138,124,18,64,51,124]",-10,15,1,0,0,1,72,153,61,1,Turquiose,Turquiose.jpg,LightGreen,LightGreen.jpg,,
,,,,,,,,,,,,,,,,,,-4,,,,,,,,,,,,,,,,,,,,,,,,,,,a,001,2021-12-17_24h12.03.792,jm_natural_scene_simialrity_2-12-2021_version2,2021.2.3,Win32,59.14360066,5cf3eaf706fb120016ecfd05,61bbc5c79a1c66460f44041e,61bbc5fd3d1a031c0a05cf16,,,,,,-28,50,1,0,0,response7disk,0.5088,-9,9,1,0,0,rectangle,-9,9,1,0,0,-4,-2,"[92,122,124,20,138,124,18,64,51,124]",-9,9,1,0,0,1,73,154,62,1,LightBlue,LightBlue.jpg,LightGreen,LightGreen.jpg,,
,,,,,,,,,,,,,,,,,,-4,,,,,,,,,,,,,,,,,,,,,,,,,,,a,001,2021-12-17_24h12.03.792,jm_natural_scene_simialrity_2-12-2021_version2,2021.2.3,Win32,59.14360066,5cf3eaf706fb120016ecfd05,61bbc5c79a1c66460f44041e,61bbc5fd3d1a031c0a05cf16,,,,,,-27,47,1,0,0,response7disk,0.483,-5,2,1,0,0,rectangle,-5,2,1,0,0,-4,-2,"[92,122,124,20,138,124,18,64,51,124]",-5,2,1,0,0,1,74,155,63,1,DarkBlue,DarkBlue.jpg,LightGreen,LightGreen.jpg,,
,,,,,,,,,,,,,,,,,,-2,,,,,,,,,,,,,,,,,,,,,,,,,,,a,001,2021-12-17_24h12.03.792,jm_natural_scene_simialrity_2-12-2021_version2,2021.2.3,Win32,59.14360066,5cf3eaf706fb120016ecfd05,61bbc5c79a1c66460f44041e,61bbc5fd3d1a031c0a05cf16,,,,,,-59,-34,1,0,0,response5disk,1.3679,-9,-9,1,0,0,rectangle,-9,-9,1,0,0,-4,2,"[92,122,124,20,138,124,18,64,51,124]",-9,-9,1,0,0,1,75,156,8,1,Red,Red.jpg,Purple,Purple.jpg,,
,,,,,,,,,,,,,,,,,,-4,,,,,,,,,,,,,,,,,,,,,,,,,,,a,001,2021-12-17_24h12.03.792,jm_natural_scene_simialrity_2-12-2021_version2,2021.2.3,Win32,59.14360066,5cf3eaf706fb120016ecfd05,61bbc5c79a1c66460f44041e,61bbc5fd3d1a031c0a05cf16,,,,,,-46,59,1,0,0,response7disk,1.5003,-11,21,1,0,0,rectangle,-11,21,1,0,0,-4,-4,"[92,122,124,20,138,124,18,64,51,124]",-11,21,1,0,0,1,76,157,23,1,LightGreen,LightGreen.jpg,Purple,Purple.jpg,,
,,,,,,,,,,,,,,,,,,-4,,,,,,,,,,,,,,,,,,,,,,,,,,,a,001,2021-12-17_24h12.03.792,jm_natural_scene_simialrity_2-12-2021_version2,2021.2.3,Win32,59.14360066,5cf3eaf706fb120016ecfd05,61bbc5c79a1c66460f44041e,61bbc5fd3d1a031c0a05cf16,,,,,,-24,37,1,0,0,response7disk,0.767,-15,12,1,0,0,rectangle,-15,12,1,0,0,-4,-1,"[92,122,124,20,138,124,18,64,51,124]",-15,12,1,0,0,1,77,158,75,1,DarkBlue,DarkBlue.jpg,LightBlue,LightBlue.jpg,,
,,,,,,,,,,,,,,,,,,-2,,,,,,,,,,,,,,,,,,,,,,,,,,,a,001,2021-12-17_24h12.03.792,jm_natural_scene_simialrity_2-12-2021_version2,2021.2.3,Win32,59.14360066,5cf3eaf706fb120016ecfd05,61bbc5c79a1c66460f44041e,61bbc5fd3d1a031c0a05cf16,,,,,,-58,-21,1,0,0,response5disk,1.3933,-14,-13,1,0,0,rectangle,-14,-13,1,0,0,-4,-1,"[92,122,124,20,138,124,18,64,51,124]",-14,-13,1,0,0,1,78,159,60,1,DarkGreen,DarkGreen.jpg,LightGreen,LightGreen.jpg,,
,,,,,,,,,,,,,,,,,,-4,,,,,,,,,,,,,,,,,,,,,,,,,,,a,001,2021-12-17_24h12.03.792,jm_natural_scene_simialrity_2-12-2021_version2,2021.2.3,Win32,59.14360066,5cf3eaf706fb120016ecfd05,61bbc5c79a1c66460f44041e,61bbc5fd3d1a031c0a05cf16,,,,,,-29,52,1,0,0,response7disk,0.7996,-12,23,1,0,0,rectangle,-12,23,1,0,0,-4,-1,"[92,122,124,20,138,124,18,64,51,124]",-12,23,1,0,0,1,79,160,7,1,Red,Red.jpg,Pink,Pink.jpg,,
,,,,,,,,,,,,,,,,,,-4,,,,,,,,,,,,,,,,,,,,,,,,,,,a,001,2021-12-17_24h12.03.792,jm_natural_scene_simialrity_2-12-2021_version2,2021.2.3,Win32,59.14360066,5cf3eaf706fb120016ecfd05,61bbc5c79a1c66460f44041e,61bbc5fd3d1a031c0a05cf16,,,,,,-25,49,1,0,0,response7disk,0.457,6,-10,1,0,0,rectangle,6,-10,1,0,0,-4,-1,"[92,122,124,20,138,124,18,64,51,124]",6,-10,1,0,0,1,80,161,16,1,Yellow,Yellow.jpg,Purple,Purple.jpg,,
