key_resp.keys,key_resp.rt,key_resp_16.keys,key_resp_16.rt,key_resp_2.keys,key_resp_2.rt,key_resp_3.keys,key_resp_3.rt,key_resp_19.keys,key_resp_19.rt,key_resp_10.keys,key_resp_10.rt,mouse_prac.x,mouse_prac.y,mouse_prac.leftButton,mouse_prac.midButton,mouse_prac.rightButton,mouse_prac.clicked_name,similarity,mouse_10.x,mouse_10.y,mouse_10.leftButton,mouse_10.midButton,mouse_10.rightButton,mouse_10.clicked_name,mouse_catch_prac.x,mouse_catch_prac.y,mouse_catch_prac.leftButton,mouse_catch_prac.midButton,mouse_catch_prac.rightButton,catchnumberprac,mouse_6.x,mouse_6.y,mouse_6.leftButton,mouse_6.midButton,mouse_6.rightButton,during_prac.thisRepN,during_prac.thisTrialN,during_prac.thisN,during_prac.thisIndex,during_prac.ran,trailimage1,trial1adress,trailimage2,trial2adress,participant,session,date,expName,psychopyVersion,OS,frameRate,PROLIFIC_PID,STUDY_ID,SESSION_ID,mouse_catch_prac.clicked_name,catchprac,mouse_6.clicked_name,key_resp_22.keys,key_resp_22.rt,mouse.x,mouse.y,mouse.leftButton,mouse.midButton,mouse.rightButton,mouse.clicked_name,response_time,mouse_2.x,mouse_2.y,mouse_2.leftButton,mouse_2.midButton,mouse_2.rightButton,mouse_2.clicked_name,mouse_3.x,mouse_3.y,mouse_3.leftButton,mouse_3.midButton,mouse_3.rightButton,catchresponse,catchnumber,catchtrialorder,mouse_11.x,mouse_11.y,mouse_11.leftButton,mouse_11.midButton,mouse_11.rightButton,trials_2.thisRepN,trials_2.thisTrialN,trials_2.thisN,trials_2.thisIndex,trials_2.ran,image1,image1adress,image2,image2adress,mouse_3.clicked_name,mouse_11.clicked_name
space,3.3769,space,7.8204,space,20.9803,space,12.3735,space,28.8451,space,9.2676,55,91,1,0,0,response1disk_5,4,-1,-12,1,0,0,rectangle_8,-1,-12,1,0,0,-3,-1,-12,1,0,0,0,0,0,3,1,trail2,trail2.jpg,trail2,trail2.jpg,,001,2021-12-16_23h05.32.264,jm_natural_scene_simialrity_2-12-2021_version2,2021.2.3,Win32,50.14290729,5f6bc9d6b572cb13770b5c45,61bbc5c79a1c66460f44041e,61bbc5e9adb589f90781bff3,,,,,,,,,,,,,,,,,,,,,,,,,,,,,,,,,,,,,,,,,,
,,,,,,,,,,,,-104,47,1,0,0,response7disk_5,-3,-3,-14,1,0,0,rectangle_8,-3,-14,1,0,0,-3,-3,-14,1,0,0,0,1,1,4,1,trail2,trail2.jpg,trail3,trail3.jpg,,001,2021-12-16_23h05.32.264,jm_natural_scene_simialrity_2-12-2021_version2,2021.2.3,Win32,50.14290729,5f6bc9d6b572cb13770b5c45,61bbc5c79a1c66460f44041e,61bbc5e9adb589f90781bff3,,,,,,,,,,,,,,,,,,,,,,,,,,,,,,,,,,,,,,,,,,
,,,,,,,,,,,,-93,34,1,0,0,response7disk_5,-3,1,-12,1,0,0,rectangle_8,1,-12,1,0,0,-3,1,-12,1,0,0,0,2,2,2,1,trail1,trail1.jpg,trail3,trail3.jpg,,001,2021-12-16_23h05.32.264,jm_natural_scene_simialrity_2-12-2021_version2,2021.2.3,Win32,50.14290729,5f6bc9d6b572cb13770b5c45,61bbc5c79a1c66460f44041e,61bbc5e9adb589f90781bff3,,,,,,,,,,,,,,,,,,,,,,,,,,,,,,,,,,,,,,,,,,
,,,,,,,,,,,,-93,47,1,0,0,response7disk_5,-3,-10,-1,1,0,0,rectangle_8,-10,-1,1,0,0,-3,-10,-1,1,0,0,0,3,3,1,1,trail1,trail1.jpg,trail2,trail2.jpg,,001,2021-12-16_23h05.32.264,jm_natural_scene_simialrity_2-12-2021_version2,2021.2.3,Win32,50.14290729,5f6bc9d6b572cb13770b5c45,61bbc5c79a1c66460f44041e,61bbc5e9adb589f90781bff3,,,,,,,,,,,,,,,,,,,,,,,,,,,,,,,,,,,,,,,,,,
,,,,,,,,,,,,41,102,1,0,0,response1disk_5,4,-14,-3,1,0,0,rectangle_8,-78,38,1,0,0,-3,-11,9,1,0,0,0,4,4,0,1,trail1,trail1.jpg,trail1,trail1.jpg,,001,2021-12-16_23h05.32.264,jm_natural_scene_simialrity_2-12-2021_version2,2021.2.3,Win32,50.14290729,5f6bc9d6b572cb13770b5c45,61bbc5c79a1c66460f44041e,61bbc5e9adb589f90781bff3,response7disk_7,-3,rectangle_4,,,,,,,,,,,,,,,,,,,,,,,,,,,,,,,,,,,,,,,
,,,,,,,,,,,,26,83,1,0,0,response1disk_5,4,-15,-9,1,0,0,rectangle_8,-15,-9,1,0,0,-3,-15,-9,1,0,0,0,5,5,5,1,trail3,trail3.jpg,trail3,trail3.jpg,,001,2021-12-16_23h05.32.264,jm_natural_scene_simialrity_2-12-2021_version2,2021.2.3,Win32,50.14290729,5f6bc9d6b572cb13770b5c45,61bbc5c79a1c66460f44041e,61bbc5e9adb589f90781bff3,,,,,,,,,,,,,,,,,,,,,,,,,,,,,,,,,,,,,,,,,,
,,,,,,,,,,,,,,,,,,2,,,,,,,,,,,,,,,,,,,,,,,,,,,,001,2021-12-16_23h05.32.264,jm_natural_scene_simialrity_2-12-2021_version2,2021.2.3,Win32,50.14290729,5f6bc9d6b572cb13770b5c45,61bbc5c79a1c66460f44041e,61bbc5e9adb589f90781bff3,,,,space,2.8746,101,-52,1,0,0,response3disk,4.7627,4,-4,1,0,0,rectangle,4,-4,1,0,0,,2,"[4,33,14,141,129,30,20,63,91,72]",4,-4,1,0,0,0,0,0,61,1,Turquiose,Turquiose.jpg,LightGreen,LightGreen.jpg,,
,,,,,,,,,,,,,,,,,,-4,,,,,,,,,,,,,,,,,,,,,,,,,,,,001,2021-12-16_23h05.32.264,jm_natural_scene_simialrity_2-12-2021_version2,2021.2.3,Win32,50.14290729,5f6bc9d6b572cb13770b5c45,61bbc5c79a1c66460f44041e,61bbc5e9adb589f90781bff3,,,,,,-48,89,1,0,0,response7disk,1.2402,4,0,1,0,0,rectangle,4,0,1,0,0,,3,"[4,33,14,141,129,30,20,63,91,72]",4,0,1,0,0,0,1,1,54,1,DarkGreen,DarkGreen.jpg,Yellow,Yellow.jpg,,
,,,,,,,,,,,,,,,,,,-4,,,,,,,,,,,,,,,,,,,,,,,,,,,,001,2021-12-16_23h05.32.264,jm_natural_scene_simialrity_2-12-2021_version2,2021.2.3,Win32,50.14290729,5f6bc9d6b572cb13770b5c45,61bbc5c79a1c66460f44041e,61bbc5e9adb589f90781bff3,,,,,,-33,94,1,0,0,response7disk,1.5796,2,11,1,0,0,rectangle,2,11,1,0,0,,-3,"[4,33,14,141,129,30,20,63,91,72]",2,11,1,0,0,0,2,2,16,1,Yellow,Yellow.jpg,Purple,Purple.jpg,,
,,,,,,,,,,,,,,,,,,-1,,,,,,,,,,,,,,,,,,,,,,,,,,,,001,2021-12-16_23h05.32.264,jm_natural_scene_simialrity_2-12-2021_version2,2021.2.3,Win32,50.14290729,5f6bc9d6b572cb13770b5c45,61bbc5c79a1c66460f44041e,61bbc5e9adb589f90781bff3,,,,,,-48,-78,1,0,0,response5disk,4.3001,0,-9,1,0,0,rectangle,102,-46,1,0,0,2,2,"[4,33,14,141,129,30,20,63,91,72]",9,-4,1,0,0,0,3,3,77,1,Purple,Purple.jpg,LightBlue,LightBlue.jpg,response3disk_3,rectangle
,,,,,,,,,,,,,,,,,,-2,,,,,,,,,,,,,,,,,,,,,,,,,,,,001,2021-12-16_23h05.32.264,jm_natural_scene_simialrity_2-12-2021_version2,2021.2.3,Win32,50.14290729,5f6bc9d6b572cb13770b5c45,61bbc5c79a1c66460f44041e,61bbc5e9adb589f90781bff3,,,,,,-104,-46,1,0,0,response5disk,4.3198,-10,-5,1,0,0,rectangle,-10,-5,1,0,0,2,-4,"[4,33,14,141,129,30,20,63,91,72]",-10,-5,1,0,0,0,4,4,26,1,DarkGreen,DarkGreen.jpg,LightBlue,LightBlue.jpg,,
,,,,,,,,,,,,,,,,,,-4,,,,,,,,,,,,,,,,,,,,,,,,,,,,001,2021-12-16_23h05.32.264,jm_natural_scene_simialrity_2-12-2021_version2,2021.2.3,Win32,50.14290729,5f6bc9d6b572cb13770b5c45,61bbc5c79a1c66460f44041e,61bbc5e9adb589f90781bff3,,,,,,-47,74,1,0,0,response7disk,1.1999,-6,5,1,0,0,rectangle,-6,5,1,0,0,2,-4,"[4,33,14,141,129,30,20,63,91,72]",-6,5,1,0,0,0,5,5,69,1,Pink,Pink.jpg,DarkGreen,DarkGreen.jpg,,
,,,,,,,,,,,,,,,,,,-4,,,,,,,,,,,,,,,,,,,,,,,,,,,,001,2021-12-16_23h05.32.264,jm_natural_scene_simialrity_2-12-2021_version2,2021.2.3,Win32,50.14290729,5f6bc9d6b572cb13770b5c45,61bbc5c79a1c66460f44041e,61bbc5e9adb589f90781bff3,,,,,,-36,81,1,0,0,response7disk,1.8392,0,3,1,0,0,rectangle,0,3,1,0,0,2,3,"[4,33,14,141,129,30,20,63,91,72]",0,3,1,0,0,0,6,6,5,1,Red,Red.jpg,LightBlue,LightBlue.jpg,,
,,,,,,,,,,,,,,,,,,-3,,,,,,,,,,,,,,,,,,,,,,,,,,,,001,2021-12-16_23h05.32.264,jm_natural_scene_simialrity_2-12-2021_version2,2021.2.3,Win32,50.14290729,5f6bc9d6b572cb13770b5c45,61bbc5c79a1c66460f44041e,61bbc5e9adb589f90781bff3,,,,,,-64,37,1,0,0,response7disk,1.7401,3,1,1,0,0,rectangle,3,1,1,0,0,2,3,"[4,33,14,141,129,30,20,63,91,72]",3,1,1,0,0,0,7,7,43,1,Pink,Pink.jpg,Purple,Purple.jpg,,
,,,,,,,,,,,,,,,,,,4,,,,,,,,,,,,,,,,,,,,,,,,,,,,001,2021-12-16_23h05.32.264,jm_natural_scene_simialrity_2-12-2021_version2,2021.2.3,Win32,50.14290729,5f6bc9d6b572cb13770b5c45,61bbc5c79a1c66460f44041e,61bbc5e9adb589f90781bff3,,,,,,32,89,1,0,0,response1disk,1.3396,10,21,1,0,0,rectangle,10,21,1,0,0,2,-2,"[4,33,14,141,129,30,20,63,91,72]",10,21,1,0,0,0,8,8,0,1,Red,Red.jpg,Red,Red.jpg,,
,,,,,,,,,,,,,,,,,,-4,,,,,,,,,,,,,,,,,,,,,,,,,,,,001,2021-12-16_23h05.32.264,jm_natural_scene_simialrity_2-12-2021_version2,2021.2.3,Win32,50.14290729,5f6bc9d6b572cb13770b5c45,61bbc5c79a1c66460f44041e,61bbc5e9adb589f90781bff3,,,,,,-38,77,1,0,0,response7disk,1.06,-9,-15,1,0,0,rectangle,-9,-15,1,0,0,2,-2,"[4,33,14,141,129,30,20,63,91,72]",-9,-15,1,0,0,0,9,9,28,1,DarkGreen,DarkGreen.jpg,Pink,Pink.jpg,,
,,,,,,,,,,,,,,,,,,2,,,,,,,,,,,,,,,,,,,,,,,,,,,,001,2021-12-16_23h05.32.264,jm_natural_scene_simialrity_2-12-2021_version2,2021.2.3,Win32,50.14290729,5f6bc9d6b572cb13770b5c45,61bbc5c79a1c66460f44041e,61bbc5e9adb589f90781bff3,,,,,,103,-58,1,0,0,response3disk,6.9801,0,7,1,0,0,rectangle,0,7,1,0,0,2,-4,"[4,33,14,141,129,30,20,63,91,72]",0,7,1,0,0,0,10,10,32,1,Turquiose,Turquiose.jpg,DarkBlue,DarkBlue.jpg,,
,,,,,,,,,,,,,,,,,,-4,,,,,,,,,,,,,,,,,,,,,,,,,,,,001,2021-12-16_23h05.32.264,jm_natural_scene_simialrity_2-12-2021_version2,2021.2.3,Win32,50.14290729,5f6bc9d6b572cb13770b5c45,61bbc5c79a1c66460f44041e,61bbc5e9adb589f90781bff3,,,,,,-46,88,1,0,0,response7disk,1.6606,-8,13,1,0,0,rectangle,-8,13,1,0,0,2,-4,"[4,33,14,141,129,30,20,63,91,72]",-8,13,1,0,0,0,11,11,33,1,Turquiose,Turquiose.jpg,Pink,Pink.jpg,,
,,,,,,,,,,,,,,,,,,-1,,,,,,,,,,,,,,,,,,,,,,,,,,,,001,2021-12-16_23h05.32.264,jm_natural_scene_simialrity_2-12-2021_version2,2021.2.3,Win32,50.14290729,5f6bc9d6b572cb13770b5c45,61bbc5c79a1c66460f44041e,61bbc5e9adb589f90781bff3,,,,,,-46,-92,1,0,0,response5disk,3.9197,5,-13,1,0,0,rectangle,5,-13,1,0,0,2,1,"[4,33,14,141,129,30,20,63,91,72]",5,-13,1,0,0,0,12,12,52,1,Purple,Purple.jpg,Red,Red.jpg,,
,,,,,,,,,,,,,,,,,,-4,,,,,,,,,,,,,,,,,,,,,,,,,,,,001,2021-12-16_23h05.32.264,jm_natural_scene_simialrity_2-12-2021_version2,2021.2.3,Win32,50.14290729,5f6bc9d6b572cb13770b5c45,61bbc5c79a1c66460f44041e,61bbc5e9adb589f90781bff3,,,,,,-57,83,1,0,0,response7disk,2.1201,-15,0,1,0,0,rectangle,-48,-90,1,0,0,-1,-1,"[4,33,14,141,129,30,20,63,91,72]",-4,-19,1,0,0,0,13,13,76,1,Pink,Pink.jpg,LightBlue,LightBlue.jpg,response5disk_3,rectangle
,,,,,,,,,,,,,,,,,,2,,,,,,,,,,,,,,,,,,,,,,,,,,,,001,2021-12-16_23h05.32.264,jm_natural_scene_simialrity_2-12-2021_version2,2021.2.3,Win32,50.14290729,5f6bc9d6b572cb13770b5c45,61bbc5c79a1c66460f44041e,61bbc5e9adb589f90781bff3,,,,,,98,-63,1,0,0,response3disk,3.8802,-6,2,1,0,0,rectangle,-6,2,1,0,0,-1,-3,"[4,33,14,141,129,30,20,63,91,72]",-6,2,1,0,0,0,14,14,71,1,LightBlue,LightBlue.jpg,Turquiose,Turquiose.jpg,,
,,,,,,,,,,,,,,,,,,-4,,,,,,,,,,,,,,,,,,,,,,,,,,,,001,2021-12-16_23h05.32.264,jm_natural_scene_simialrity_2-12-2021_version2,2021.2.3,Win32,50.14290729,5f6bc9d6b572cb13770b5c45,61bbc5c79a1c66460f44041e,61bbc5e9adb589f90781bff3,,,,,,-59,81,1,0,0,response7disk,1.8801,0,5,1,0,0,rectangle,0,5,1,0,0,-1,2,"[4,33,14,141,129,30,20,63,91,72]",0,5,1,0,0,0,15,15,59,1,Purple,Purple.jpg,Yellow,Yellow.jpg,,
,,,,,,,,,,,,,,,,,,4,,,,,,,,,,,,,,,,,,,,,,,,,,,,001,2021-12-16_23h05.32.264,jm_natural_scene_simialrity_2-12-2021_version2,2021.2.3,Win32,50.14290729,5f6bc9d6b572cb13770b5c45,61bbc5c79a1c66460f44041e,61bbc5e9adb589f90781bff3,,,,,,41,96,1,0,0,response1disk,1.1804,8,13,1,0,0,rectangle,8,13,1,0,0,-1,3,"[4,33,14,141,129,30,20,63,91,72]",8,13,1,0,0,0,16,16,24,1,DarkGreen,DarkGreen.jpg,DarkGreen,DarkGreen.jpg,,
,,,,,,,,,,,,,,,,,,1,,,,,,,,,,,,,,,,,,,,,,,,,,,,001,2021-12-16_23h05.32.264,jm_natural_scene_simialrity_2-12-2021_version2,2021.2.3,Win32,50.14290729,5f6bc9d6b572cb13770b5c45,61bbc5c79a1c66460f44041e,61bbc5e9adb589f90781bff3,,,,,,55,-80,1,0,0,response3disk,5.1201,5,-11,1,0,0,rectangle,5,-11,1,0,0,-1,1,"[4,33,14,141,129,30,20,63,91,72]",5,-11,1,0,0,0,17,17,38,1,LightBlue,LightBlue.jpg,Purple,Purple.jpg,,
,,,,,,,,,,,,,,,,,,-4,,,,,,,,,,,,,,,,,,,,,,,,,,,,001,2021-12-16_23h05.32.264,jm_natural_scene_simialrity_2-12-2021_version2,2021.2.3,Win32,50.14290729,5f6bc9d6b572cb13770b5c45,61bbc5c79a1c66460f44041e,61bbc5e9adb589f90781bff3,,,,,,-41,73,1,0,0,response7disk,1.12,-5,-17,1,0,0,rectangle,-5,-17,1,0,0,-1,3,"[4,33,14,141,129,30,20,63,91,72]",-5,-17,1,0,0,0,18,18,55,1,Turquiose,Turquiose.jpg,Yellow,Yellow.jpg,,
,,,,,,,,,,,,,,,,,,-4,,,,,,,,,,,,,,,,,,,,,,,,,,,,001,2021-12-16_23h05.32.264,jm_natural_scene_simialrity_2-12-2021_version2,2021.2.3,Win32,50.14290729,5f6bc9d6b572cb13770b5c45,61bbc5c79a1c66460f44041e,61bbc5e9adb589f90781bff3,,,,,,-30,67,1,0,0,response7disk,0.9201,-6,1,1,0,0,rectangle,79,-59,1,0,0,2,2,"[4,33,14,141,129,30,20,63,91,72]",-8,11,1,0,0,0,19,19,64,1,Pink,Pink.jpg,LightGreen,LightGreen.jpg,response3disk_3,rectangle
,,,,,,,,,,,,,,,,,,1,,,,,,,,,,,,,,,,,,,,,,,,,,,,001,2021-12-16_23h05.32.264,jm_natural_scene_simialrity_2-12-2021_version2,2021.2.3,Win32,50.14290729,5f6bc9d6b572cb13770b5c45,61bbc5c79a1c66460f44041e,61bbc5e9adb589f90781bff3,,,,,,53,-106,1,0,0,response3disk,2.5599,-3,-18,1,0,0,rectangle,-3,-18,1,0,0,2,-2,"[4,33,14,141,129,30,20,63,91,72]",-3,-18,1,0,0,0,20,20,8,1,Red,Red.jpg,Purple,Purple.jpg,,
,,,,,,,,,,,,,,,,,,-4,,,,,,,,,,,,,,,,,,,,,,,,,,,,001,2021-12-16_23h05.32.264,jm_natural_scene_simialrity_2-12-2021_version2,2021.2.3,Win32,50.14290729,5f6bc9d6b572cb13770b5c45,61bbc5c79a1c66460f44041e,61bbc5e9adb589f90781bff3,,,,,,-45,81,1,0,0,response7disk,2.2002,-1,7,1,0,0,rectangle,-1,7,1,0,0,2,2,"[4,33,14,141,129,30,20,63,91,72]",-1,7,1,0,0,0,21,21,36,1,LightBlue,LightBlue.jpg,DarkBlue,DarkBlue.jpg,,
,,,,,,,,,,,,,,,,,,4,,,,,,,,,,,,,,,,,,,,,,,,,,,,001,2021-12-16_23h05.32.264,jm_natural_scene_simialrity_2-12-2021_version2,2021.2.3,Win32,50.14290729,5f6bc9d6b572cb13770b5c45,61bbc5c79a1c66460f44041e,61bbc5e9adb589f90781bff3,,,,,,56,85,1,0,0,response1disk,2.7001,5,-4,1,0,0,rectangle,5,-4,1,0,0,2,-2,"[4,33,14,141,129,30,20,63,91,72]",5,-4,1,0,0,0,22,22,60,1,DarkGreen,DarkGreen.jpg,LightGreen,LightGreen.jpg,,
,,,,,,,,,,,,,,,,,,-3,,,,,,,,,,,,,,,,,,,,,,,,,,,,001,2021-12-16_23h05.32.264,jm_natural_scene_simialrity_2-12-2021_version2,2021.2.3,Win32,50.14290729,5f6bc9d6b572cb13770b5c45,61bbc5c79a1c66460f44041e,61bbc5e9adb589f90781bff3,,,,,,-68,49,1,0,0,response7disk,3.3803,2,-15,1,0,0,rectangle,2,-15,1,0,0,2,-4,"[4,33,14,141,129,30,20,63,91,72]",2,-15,1,0,0,0,23,23,29,1,DarkGreen,DarkGreen.jpg,Purple,Purple.jpg,,
,,,,,,,,,,,,,,,,,,4,,,,,,,,,,,,,,,,,,,,,,,,,,,,001,2021-12-16_23h05.32.264,jm_natural_scene_simialrity_2-12-2021_version2,2021.2.3,Win32,50.14290729,5f6bc9d6b572cb13770b5c45,61bbc5c79a1c66460f44041e,61bbc5e9adb589f90781bff3,,,,,,44,93,1,0,0,response1disk,2.1601,-5,-8,1,0,0,rectangle,-5,-8,1,0,0,2,2,"[4,33,14,141,129,30,20,63,91,72]",-5,-8,1,0,0,0,24,24,15,1,Yellow,Yellow.jpg,Pink,Pink.jpg,,
,,,,,,,,,,,,,,,,,,-3,,,,,,,,,,,,,,,,,,,,,,,,,,,,001,2021-12-16_23h05.32.264,jm_natural_scene_simialrity_2-12-2021_version2,2021.2.3,Win32,50.14290729,5f6bc9d6b572cb13770b5c45,61bbc5c79a1c66460f44041e,61bbc5e9adb589f90781bff3,,,,,,-68,39,1,0,0,response7disk,1.9001,15,0,1,0,0,rectangle,15,0,1,0,0,2,-3,"[4,33,14,141,129,30,20,63,91,72]",15,0,1,0,0,0,25,25,74,1,Purple,Purple.jpg,Turquiose,Turquiose.jpg,,
,,,,,,,,,,,,,,,,,,4,,,,,,,,,,,,,,,,,,,,,,,,,,,,001,2021-12-16_23h05.32.264,jm_natural_scene_simialrity_2-12-2021_version2,2021.2.3,Win32,50.14290729,5f6bc9d6b572cb13770b5c45,61bbc5c79a1c66460f44041e,61bbc5e9adb589f90781bff3,,,,,,51,96,1,0,0,response1disk,1.1024,-3,4,1,0,0,rectangle,-3,4,1,0,0,2,3,"[4,33,14,141,129,30,20,63,91,72]",-3,4,1,0,0,0,26,26,44,1,Purple,Purple.jpg,Purple,Purple.jpg,,
,,,,,,,,,,,,,,,,,,-1,,,,,,,,,,,,,,,,,,,,,,,,,,,,001,2021-12-16_23h05.32.264,jm_natural_scene_simialrity_2-12-2021_version2,2021.2.3,Win32,50.14290729,5f6bc9d6b572cb13770b5c45,61bbc5c79a1c66460f44041e,61bbc5e9adb589f90781bff3,,,,,,-37,-104,1,0,0,response5disk,4.3795,-10,7,1,0,0,rectangle,-10,7,1,0,0,2,-2,"[4,33,14,141,129,30,20,63,91,72]",-10,7,1,0,0,0,27,27,37,1,LightBlue,LightBlue.jpg,Pink,Pink.jpg,,
,,,,,,,,,,,,,,,,,,-3,,,,,,,,,,,,,,,,,,,,,,,,,,,,001,2021-12-16_23h05.32.264,jm_natural_scene_simialrity_2-12-2021_version2,2021.2.3,Win32,50.14290729,5f6bc9d6b572cb13770b5c45,61bbc5c79a1c66460f44041e,61bbc5e9adb589f90781bff3,,,,,,-91,36,1,0,0,response7disk,2.1799,11,-12,1,0,0,rectangle,11,-12,1,0,0,2,-4,"[4,33,14,141,129,30,20,63,91,72]",11,-12,1,0,0,0,28,28,31,1,Turquiose,Turquiose.jpg,LightBlue,LightBlue.jpg,,
,,,,,,,,,,,,,,,,,,-3,,,,,,,,,,,,,,,,,,,,,,,,,,,,001,2021-12-16_23h05.32.264,jm_natural_scene_simialrity_2-12-2021_version2,2021.2.3,Win32,50.14290729,5f6bc9d6b572cb13770b5c45,61bbc5c79a1c66460f44041e,61bbc5e9adb589f90781bff3,,,,,,-65,46,1,0,0,response7disk,2.8204,-8,4,1,0,0,rectangle,-48,-109,1,0,0,-1,-1,"[4,33,14,141,129,30,20,63,91,72]",20,-1,1,0,0,0,29,29,75,1,DarkBlue,DarkBlue.jpg,LightBlue,LightBlue.jpg,response5disk_3,rectangle
,,,,,,,,,,,,,,,,,,4,,,,,,,,,,,,,,,,,,,,,,,,,,,,001,2021-12-16_23h05.32.264,jm_natural_scene_simialrity_2-12-2021_version2,2021.2.3,Win32,50.14290729,5f6bc9d6b572cb13770b5c45,61bbc5c79a1c66460f44041e,61bbc5e9adb589f90781bff3,,,,,,42,89,1,0,0,response1disk,1.3602,13,1,1,0,0,rectangle,13,1,1,0,0,-1,-3,"[4,33,14,141,129,30,20,63,91,72]",13,1,1,0,0,0,30,30,58,1,Pink,Pink.jpg,Yellow,Yellow.jpg,,
,,,,,,,,,,,,,,,,,,-4,,,,,,,,,,,,,,,,,,,,,,,,,,,,001,2021-12-16_23h05.32.264,jm_natural_scene_simialrity_2-12-2021_version2,2021.2.3,Win32,50.14290729,5f6bc9d6b572cb13770b5c45,61bbc5c79a1c66460f44041e,61bbc5e9adb589f90781bff3,,,,,,-31,61,1,0,0,response7disk,1.3,-2,4,1,0,0,rectangle,-2,4,1,0,0,-1,2,"[4,33,14,141,129,30,20,63,91,72]",-2,4,1,0,0,0,31,31,57,1,DarkBlue,DarkBlue.jpg,Yellow,Yellow.jpg,,
,,,,,,,,,,,,,,,,,,-3,,,,,,,,,,,,,,,,,,,,,,,,,,,,001,2021-12-16_23h05.32.264,jm_natural_scene_simialrity_2-12-2021_version2,2021.2.3,Win32,50.14290729,5f6bc9d6b572cb13770b5c45,61bbc5c79a1c66460f44041e,61bbc5e9adb589f90781bff3,,,,,,-64,49,1,0,0,response7disk,1.6602,23,5,1,0,0,rectangle,48,-99,1,0,0,1,1,"[4,33,14,141,129,30,20,63,91,72]",-7,-5,1,0,0,0,32,32,34,1,Turquiose,Turquiose.jpg,Purple,Purple.jpg,response3disk_3,rectangle
,,,,,,,,,,,,,,,,,,3,,,,,,,,,,,,,,,,,,,,,,,,,,,,001,2021-12-16_23h05.32.264,jm_natural_scene_simialrity_2-12-2021_version2,2021.2.3,Win32,50.14290729,5f6bc9d6b572cb13770b5c45,61bbc5c79a1c66460f44041e,61bbc5e9adb589f90781bff3,,,,,,74,26,1,0,0,response1disk,1.5593,-4,-12,1,0,0,rectangle,-4,-12,1,0,0,1,-2,"[4,33,14,141,129,30,20,63,91,72]",-4,-12,1,0,0,0,33,33,63,1,DarkBlue,DarkBlue.jpg,LightGreen,LightGreen.jpg,,
,,,,,,,,,,,,,,,,,,-4,,,,,,,,,,,,,,,,,,,,,,,,,,,,001,2021-12-16_23h05.32.264,jm_natural_scene_simialrity_2-12-2021_version2,2021.2.3,Win32,50.14290729,5f6bc9d6b572cb13770b5c45,61bbc5c79a1c66460f44041e,61bbc5e9adb589f90781bff3,,,,,,-37,69,1,0,0,response7disk,1.5995,-14,-10,1,0,0,rectangle,-14,-10,1,0,0,1,1,"[4,33,14,141,129,30,20,63,91,72]",-14,-10,1,0,0,0,34,34,73,1,Pink,Pink.jpg,Turquiose,Turquiose.jpg,,
,,,,,,,,,,,,,,,,,,-3,,,,,,,,,,,,,,,,,,,,,,,,,,,,001,2021-12-16_23h05.32.264,jm_natural_scene_simialrity_2-12-2021_version2,2021.2.3,Win32,50.14290729,5f6bc9d6b572cb13770b5c45,61bbc5c79a1c66460f44041e,61bbc5e9adb589f90781bff3,,,,,,-71,36,1,0,0,response7disk,2.2604,-20,-6,1,0,0,rectangle,-20,-6,1,0,0,1,2,"[4,33,14,141,129,30,20,63,91,72]",-20,-6,1,0,0,0,35,35,70,1,Purple,Purple.jpg,DarkGreen,DarkGreen.jpg,,
,,,,,,,,,,,,,,,,,,1,,,,,,,,,,,,,,,,,,,,,,,,,,,,001,2021-12-16_23h05.32.264,jm_natural_scene_simialrity_2-12-2021_version2,2021.2.3,Win32,50.14290729,5f6bc9d6b572cb13770b5c45,61bbc5c79a1c66460f44041e,61bbc5e9adb589f90781bff3,,,,,,47,-94,1,0,0,response3disk,4.6199,9,-14,1,0,0,rectangle,9,-14,1,0,0,1,3,"[4,33,14,141,129,30,20,63,91,72]",9,-14,1,0,0,0,36,36,21,1,LightGreen,LightGreen.jpg,DarkBlue,DarkBlue.jpg,,
,,,,,,,,,,,,,,,,,,4,,,,,,,,,,,,,,,,,,,,,,,,,,,,001,2021-12-16_23h05.32.264,jm_natural_scene_simialrity_2-12-2021_version2,2021.2.3,Win32,50.14290729,5f6bc9d6b572cb13770b5c45,61bbc5c79a1c66460f44041e,61bbc5e9adb589f90781bff3,,,,,,44,74,1,0,0,response1disk,1.6595,6,-5,1,0,0,rectangle,6,-5,1,0,0,1,-3,"[4,33,14,141,129,30,20,63,91,72]",6,-5,1,0,0,0,37,37,51,1,Pink,Pink.jpg,Red,Red.jpg,,
,,,,,,,,,,,,,,,,,,-4,,,,,,,,,,,,,,,,,,,,,,,,,,,,001,2021-12-16_23h05.32.264,jm_natural_scene_simialrity_2-12-2021_version2,2021.2.3,Win32,50.14290729,5f6bc9d6b572cb13770b5c45,61bbc5c79a1c66460f44041e,61bbc5e9adb589f90781bff3,,,,,,-41,85,1,0,0,response7disk,4.2394,-10,7,1,0,0,rectangle,-10,7,1,0,0,1,-4,"[4,33,14,141,129,30,20,63,91,72]",-10,7,1,0,0,0,38,38,2,1,Red,Red.jpg,LightGreen,LightGreen.jpg,,
,,,,,,,,,,,,,,,,,,4,,,,,,,,,,,,,,,,,,,,,,,,,,,,001,2021-12-16_23h05.32.264,jm_natural_scene_simialrity_2-12-2021_version2,2021.2.3,Win32,50.14290729,5f6bc9d6b572cb13770b5c45,61bbc5c79a1c66460f44041e,61bbc5e9adb589f90781bff3,,,,,,38,109,1,0,0,response1disk,1.1595,-23,-5,1,0,0,rectangle,-23,-5,1,0,0,1,1,"[4,33,14,141,129,30,20,63,91,72]",-23,-5,1,0,0,0,39,39,35,1,LightBlue,LightBlue.jpg,LightBlue,LightBlue.jpg,,
,,,,,,,,,,,,,,,,,,-4,,,,,,,,,,,,,,,,,,,,,,,,,,,,001,2021-12-16_23h05.32.264,jm_natural_scene_simialrity_2-12-2021_version2,2021.2.3,Win32,50.14290729,5f6bc9d6b572cb13770b5c45,61bbc5c79a1c66460f44041e,61bbc5e9adb589f90781bff3,,,,,,-56,74,1,0,0,response7disk,1.3394,-13,3,1,0,0,rectangle,-13,3,1,0,0,1,-4,"[4,33,14,141,129,30,20,63,91,72]",-13,3,1,0,0,0,40,40,10,1,Yellow,Yellow.jpg,LightGreen,LightGreen.jpg,,
,,,,,,,,,,,,,,,,,,-4,,,,,,,,,,,,,,,,,,,,,,,,,,,,001,2021-12-16_23h05.32.264,jm_natural_scene_simialrity_2-12-2021_version2,2021.2.3,Win32,50.14290729,5f6bc9d6b572cb13770b5c45,61bbc5c79a1c66460f44041e,61bbc5e9adb589f90781bff3,,,,,,-25,77,1,0,0,response7disk,1.2601,5,7,1,0,0,rectangle,5,7,1,0,0,1,-1,"[4,33,14,141,129,30,20,63,91,72]",5,7,1,0,0,0,41,41,40,1,DarkBlue,DarkBlue.jpg,Pink,Pink.jpg,,
,,,,,,,,,,,,,,,,,,-3,,,,,,,,,,,,,,,,,,,,,,,,,,,,001,2021-12-16_23h05.32.264,jm_natural_scene_simialrity_2-12-2021_version2,2021.2.3,Win32,50.14290729,5f6bc9d6b572cb13770b5c45,61bbc5c79a1c66460f44041e,61bbc5e9adb589f90781bff3,,,,,,-61,39,1,0,0,response7disk,1.6197,11,5,1,0,0,rectangle,11,5,1,0,0,1,3,"[4,33,14,141,129,30,20,63,91,72]",11,5,1,0,0,0,42,42,4,1,Red,Red.jpg,Turquiose,Turquiose.jpg,,
,,,,,,,,,,,,,,,,,,-4,,,,,,,,,,,,,,,,,,,,,,,,,,,,001,2021-12-16_23h05.32.264,jm_natural_scene_simialrity_2-12-2021_version2,2021.2.3,Win32,50.14290729,5f6bc9d6b572cb13770b5c45,61bbc5c79a1c66460f44041e,61bbc5e9adb589f90781bff3,,,,,,-31,65,1,0,0,response7disk,1.0794,7,8,1,0,0,rectangle,7,8,1,0,0,1,-1,"[4,33,14,141,129,30,20,63,91,72]",7,8,1,0,0,0,43,43,11,1,Yellow,Yellow.jpg,DarkGreen,DarkGreen.jpg,,
,,,,,,,,,,,,,,,,,,4,,,,,,,,,,,,,,,,,,,,,,,,,,,,001,2021-12-16_23h05.32.264,jm_natural_scene_simialrity_2-12-2021_version2,2021.2.3,Win32,50.14290729,5f6bc9d6b572cb13770b5c45,61bbc5c79a1c66460f44041e,61bbc5e9adb589f90781bff3,,,,,,60,78,1,0,0,response1disk,1.2196,-5,-4,1,0,0,rectangle,-5,-4,1,0,0,1,-3,"[4,33,14,141,129,30,20,63,91,72]",-5,-4,1,0,0,0,44,44,1,1,Red,Red.jpg,Yellow,Yellow.jpg,,
,,,,,,,,,,,,,,,,,,3,,,,,,,,,,,,,,,,,,,,,,,,,,,,001,2021-12-16_23h05.32.264,jm_natural_scene_simialrity_2-12-2021_version2,2021.2.3,Win32,50.14290729,5f6bc9d6b572cb13770b5c45,61bbc5c79a1c66460f44041e,61bbc5e9adb589f90781bff3,,,,,,74,29,1,0,0,response1disk,1.3772,6,-6,1,0,0,rectangle,6,-6,1,0,0,1,-1,"[4,33,14,141,129,30,20,63,91,72]",6,-6,1,0,0,0,45,45,19,1,LightGreen,LightGreen.jpg,Turquiose,Turquiose.jpg,,
,,,,,,,,,,,,,,,,,,-4,,,,,,,,,,,,,,,,,,,,,,,,,,,,001,2021-12-16_23h05.32.264,jm_natural_scene_simialrity_2-12-2021_version2,2021.2.3,Win32,50.14290729,5f6bc9d6b572cb13770b5c45,61bbc5c79a1c66460f44041e,61bbc5e9adb589f90781bff3,,,,,,-45,71,1,0,0,response7disk,2.2595,-6,14,1,0,0,rectangle,-6,14,1,0,0,1,-1,"[4,33,14,141,129,30,20,63,91,72]",-6,14,1,0,0,0,46,46,56,1,LightBlue,LightBlue.jpg,Yellow,Yellow.jpg,,
,,,,,,,,,,,,,,,,,,-1,,,,,,,,,,,,,,,,,,,,,,,,,,,,001,2021-12-16_23h05.32.264,jm_natural_scene_simialrity_2-12-2021_version2,2021.2.3,Win32,50.14290729,5f6bc9d6b572cb13770b5c45,61bbc5c79a1c66460f44041e,61bbc5e9adb589f90781bff3,,,,,,-47,-102,1,0,0,response5disk,4.6795,13,0,1,0,0,rectangle,13,0,1,0,0,1,-1,"[4,33,14,141,129,30,20,63,91,72]",13,0,1,0,0,0,47,47,80,1,Purple,Purple.jpg,Pink,Pink.jpg,,
,,,,,,,,,,,,,,,,,,4,,,,,,,,,,,,,,,,,,,,,,,,,,,,001,2021-12-16_23h05.32.264,jm_natural_scene_simialrity_2-12-2021_version2,2021.2.3,Win32,50.14290729,5f6bc9d6b572cb13770b5c45,61bbc5c79a1c66460f44041e,61bbc5e9adb589f90781bff3,,,,,,42,100,1,0,0,response1disk,1.3403,-11,-7,1,0,0,rectangle,-11,-7,1,0,0,1,3,"[4,33,14,141,129,30,20,63,91,72]",-11,-7,1,0,0,0,48,48,42,1,Pink,Pink.jpg,Pink,Pink.jpg,,
,,,,,,,,,,,,,,,,,,-4,,,,,,,,,,,,,,,,,,,,,,,,,,,,001,2021-12-16_23h05.32.264,jm_natural_scene_simialrity_2-12-2021_version2,2021.2.3,Win32,50.14290729,5f6bc9d6b572cb13770b5c45,61bbc5c79a1c66460f44041e,61bbc5e9adb589f90781bff3,,,,,,-36,89,1,0,0,response7disk,1.24,2,10,1,0,0,rectangle,2,10,1,0,0,1,-4,"[4,33,14,141,129,30,20,63,91,72]",2,10,1,0,0,0,49,49,12,1,Yellow,Yellow.jpg,Turquiose,Turquiose.jpg,,
,,,,,,,,,,,,,,,,,,4,,,,,,,,,,,,,,,,,,,,,,,,,,,,001,2021-12-16_23h05.32.264,jm_natural_scene_simialrity_2-12-2021_version2,2021.2.3,Win32,50.14290729,5f6bc9d6b572cb13770b5c45,61bbc5c79a1c66460f44041e,61bbc5e9adb589f90781bff3,,,,,,37,69,1,0,0,response1disk,1.7795,4,-5,1,0,0,rectangle,4,-5,1,0,0,1,-3,"[4,33,14,141,129,30,20,63,91,72]",4,-5,1,0,0,0,50,50,66,1,Turquiose,Turquiose.jpg,DarkGreen,DarkGreen.jpg,,
,,,,,,,,,,,,,,,,,,-1,,,,,,,,,,,,,,,,,,,,,,,,,,,,001,2021-12-16_23h05.32.264,jm_natural_scene_simialrity_2-12-2021_version2,2021.2.3,Win32,50.14290729,5f6bc9d6b572cb13770b5c45,61bbc5c79a1c66460f44041e,61bbc5e9adb589f90781bff3,,,,,,-35,-86,1,0,0,response5disk,3.8995,1,-1,1,0,0,rectangle,1,-1,1,0,0,1,3,"[4,33,14,141,129,30,20,63,91,72]",1,-1,1,0,0,0,51,51,23,1,LightGreen,LightGreen.jpg,Purple,Purple.jpg,,
,,,,,,,,,,,,,,,,,,1,,,,,,,,,,,,,,,,,,,,,,,,,,,,001,2021-12-16_23h05.32.264,jm_natural_scene_simialrity_2-12-2021_version2,2021.2.3,Win32,50.14290729,5f6bc9d6b572cb13770b5c45,61bbc5c79a1c66460f44041e,61bbc5e9adb589f90781bff3,,,,,,36,-78,1,0,0,response3disk,1.64,10,-17,1,0,0,rectangle,10,-17,1,0,0,1,2,"[4,33,14,141,129,30,20,63,91,72]",10,-17,1,0,0,0,52,52,27,1,DarkGreen,DarkGreen.jpg,DarkBlue,DarkBlue.jpg,,
,,,,,,,,,,,,,,,,,,-4,,,,,,,,,,,,,,,,,,,,,,,,,,,,001,2021-12-16_23h05.32.264,jm_natural_scene_simialrity_2-12-2021_version2,2021.2.3,Win32,50.14290729,5f6bc9d6b572cb13770b5c45,61bbc5c79a1c66460f44041e,61bbc5e9adb589f90781bff3,,,,,,-27,79,1,0,0,response7disk,1.1002,15,0,1,0,0,rectangle,15,0,1,0,0,1,2,"[4,33,14,141,129,30,20,63,91,72]",15,0,1,0,0,0,53,53,22,1,LightGreen,LightGreen.jpg,Pink,Pink.jpg,,
,,,,,,,,,,,,,,,,,,4,,,,,,,,,,,,,,,,,,,,,,,,,,,,001,2021-12-16_23h05.32.264,jm_natural_scene_simialrity_2-12-2021_version2,2021.2.3,Win32,50.14290729,5f6bc9d6b572cb13770b5c45,61bbc5c79a1c66460f44041e,61bbc5e9adb589f90781bff3,,,,,,39,80,1,0,0,response1disk,1.0401,21,-7,1,0,0,rectangle,21,-7,1,0,0,1,-3,"[4,33,14,141,129,30,20,63,91,72]",21,-7,1,0,0,0,54,54,18,1,LightGreen,LightGreen.jpg,DarkGreen,DarkGreen.jpg,,
,,,,,,,,,,,,,,,,,,-4,,,,,,,,,,,,,,,,,,,,,,,,,,,,001,2021-12-16_23h05.32.264,jm_natural_scene_simialrity_2-12-2021_version2,2021.2.3,Win32,50.14290729,5f6bc9d6b572cb13770b5c45,61bbc5c79a1c66460f44041e,61bbc5e9adb589f90781bff3,,,,,,-32,82,1,0,0,response7disk,0.9395,-12,13,1,0,0,rectangle,-12,13,1,0,0,1,-4,"[4,33,14,141,129,30,20,63,91,72]",-12,13,1,0,0,0,55,55,3,1,Red,Red.jpg,DarkGreen,DarkGreen.jpg,,
,,,,,,,,,,,,,,,,,,3,,,,,,,,,,,,,,,,,,,,,,,,,,,,001,2021-12-16_23h05.32.264,jm_natural_scene_simialrity_2-12-2021_version2,2021.2.3,Win32,50.14290729,5f6bc9d6b572cb13770b5c45,61bbc5c79a1c66460f44041e,61bbc5e9adb589f90781bff3,,,,,,72,42,1,0,0,response1disk,1.6201,6,11,1,0,0,rectangle,6,11,1,0,0,1,1,"[4,33,14,141,129,30,20,63,91,72]",6,11,1,0,0,0,56,56,25,1,DarkGreen,DarkGreen.jpg,Turquiose,Turquiose.jpg,,
,,,,,,,,,,,,,,,,,,4,,,,,,,,,,,,,,,,,,,,,,,,,,,,001,2021-12-16_23h05.32.264,jm_natural_scene_simialrity_2-12-2021_version2,2021.2.3,Win32,50.14290729,5f6bc9d6b572cb13770b5c45,61bbc5c79a1c66460f44041e,61bbc5e9adb589f90781bff3,,,,,,44,82,1,0,0,response1disk,0.9206,6,-8,1,0,0,rectangle,6,-8,1,0,0,1,-1,"[4,33,14,141,129,30,20,63,91,72]",6,-8,1,0,0,0,57,57,39,1,DarkBlue,DarkBlue.jpg,DarkBlue,DarkBlue.jpg,,
,,,,,,,,,,,,,,,,,,4,,,,,,,,,,,,,,,,,,,,,,,,,,,,001,2021-12-16_23h05.32.264,jm_natural_scene_simialrity_2-12-2021_version2,2021.2.3,Win32,50.14290729,5f6bc9d6b572cb13770b5c45,61bbc5c79a1c66460f44041e,61bbc5e9adb589f90781bff3,,,,,,47,78,1,0,0,response1disk,0.9001,7,-14,1,0,0,rectangle,7,-14,1,0,0,1,2,"[4,33,14,141,129,30,20,63,91,72]",7,-14,1,0,0,0,58,58,7,1,Red,Red.jpg,Pink,Pink.jpg,,
,,,,,,,,,,,,,,,,,,-4,,,,,,,,,,,,,,,,,,,,,,,,,,,,001,2021-12-16_23h05.32.264,jm_natural_scene_simialrity_2-12-2021_version2,2021.2.3,Win32,50.14290729,5f6bc9d6b572cb13770b5c45,61bbc5c79a1c66460f44041e,61bbc5e9adb589f90781bff3,,,,,,-29,84,1,0,0,response7disk,1.3201,-16,8,1,0,0,rectangle,-16,8,1,0,0,1,-3,"[4,33,14,141,129,30,20,63,91,72]",-16,8,1,0,0,0,59,59,49,1,LightBlue,LightBlue.jpg,Red,Red.jpg,,
,,,,,,,,,,,,,,,,,,-4,,,,,,,,,,,,,,,,,,,,,,,,,,,,001,2021-12-16_23h05.32.264,jm_natural_scene_simialrity_2-12-2021_version2,2021.2.3,Win32,50.14290729,5f6bc9d6b572cb13770b5c45,61bbc5c79a1c66460f44041e,61bbc5e9adb589f90781bff3,,,,,,-32,73,1,0,0,response7disk,1.1795,-10,13,1,0,0,rectangle,-10,13,1,0,0,1,-4,"[4,33,14,141,129,30,20,63,91,72]",-10,13,1,0,0,0,60,60,6,1,Red,Red.jpg,DarkBlue,DarkBlue.jpg,,
,,,,,,,,,,,,,,,,,,-4,,,,,,,,,,,,,,,,,,,,,,,,,,,,001,2021-12-16_23h05.32.264,jm_natural_scene_simialrity_2-12-2021_version2,2021.2.3,Win32,50.14290729,5f6bc9d6b572cb13770b5c45,61bbc5c79a1c66460f44041e,61bbc5e9adb589f90781bff3,,,,,,-35,84,1,0,0,response7disk,0.8596,-1,4,1,0,0,rectangle,-1,4,1,0,0,1,-1,"[4,33,14,141,129,30,20,63,91,72]",-1,4,1,0,0,0,61,61,53,1,LightGreen,LightGreen.jpg,Yellow,Yellow.jpg,,
,,,,,,,,,,,,,,,,,,-1,,,,,,,,,,,,,,,,,,,,,,,,,,,,001,2021-12-16_23h05.32.264,jm_natural_scene_simialrity_2-12-2021_version2,2021.2.3,Win32,50.14290729,5f6bc9d6b572cb13770b5c45,61bbc5c79a1c66460f44041e,61bbc5e9adb589f90781bff3,,,,,,-40,-94,1,0,0,response5disk,4.0595,-7,-5,1,0,0,rectangle,-66,99,1,0,0,-4,-4,"[4,33,14,141,129,30,20,63,91,72]",1,13,1,0,0,0,62,62,62,1,LightBlue,LightBlue.jpg,LightGreen,LightGreen.jpg,response7disk_3,rectangle
,,,,,,,,,,,,,,,,,,1,,,,,,,,,,,,,,,,,,,,,,,,,,,,001,2021-12-16_23h05.32.264,jm_natural_scene_simialrity_2-12-2021_version2,2021.2.3,Win32,50.14290729,5f6bc9d6b572cb13770b5c45,61bbc5c79a1c66460f44041e,61bbc5e9adb589f90781bff3,,,,,,36,-96,1,0,0,response3disk,5.0603,9,22,1,0,0,rectangle,9,22,1,0,0,-4,-2,"[4,33,14,141,129,30,20,63,91,72]",9,22,1,0,0,0,63,63,72,1,DarkBlue,DarkBlue.jpg,Turquiose,Turquiose.jpg,,
,,,,,,,,,,,,,,,,,,-1,,,,,,,,,,,,,,,,,,,,,,,,,,,,001,2021-12-16_23h05.32.264,jm_natural_scene_simialrity_2-12-2021_version2,2021.2.3,Win32,50.14290729,5f6bc9d6b572cb13770b5c45,61bbc5c79a1c66460f44041e,61bbc5e9adb589f90781bff3,,,,,,-31,-103,1,0,0,response5disk,2.06,7,-8,1,0,0,rectangle,7,-8,1,0,0,-4,-3,"[4,33,14,141,129,30,20,63,91,72]",7,-8,1,0,0,0,64,64,67,1,LightBlue,LightBlue.jpg,DarkGreen,DarkGreen.jpg,,
,,,,,,,,,,,,,,,,,,4,,,,,,,,,,,,,,,,,,,,,,,,,,,,001,2021-12-16_23h05.32.264,jm_natural_scene_simialrity_2-12-2021_version2,2021.2.3,Win32,50.14290729,5f6bc9d6b572cb13770b5c45,61bbc5c79a1c66460f44041e,61bbc5e9adb589f90781bff3,,,,,,34,94,1,0,0,response1disk,1.1194,2,17,1,0,0,rectangle,2,17,1,0,0,-4,-2,"[4,33,14,141,129,30,20,63,91,72]",2,17,1,0,0,0,65,65,9,1,Yellow,Yellow.jpg,Yellow,Yellow.jpg,,
,,,,,,,,,,,,,,,,,,3,,,,,,,,,,,,,,,,,,,,,,,,,,,,001,2021-12-16_23h05.32.264,jm_natural_scene_simialrity_2-12-2021_version2,2021.2.3,Win32,50.14290729,5f6bc9d6b572cb13770b5c45,61bbc5c79a1c66460f44041e,61bbc5e9adb589f90781bff3,,,,,,62,35,1,0,0,response1disk,1.36,-7,0,1,0,0,rectangle,-7,0,1,0,0,-4,-4,"[4,33,14,141,129,30,20,63,91,72]",-7,0,1,0,0,0,66,66,68,1,DarkBlue,DarkBlue.jpg,DarkGreen,DarkGreen.jpg,,
,,,,,,,,,,,,,,,,,,-3,,,,,,,,,,,,,,,,,,,,,,,,,,,,001,2021-12-16_23h05.32.264,jm_natural_scene_simialrity_2-12-2021_version2,2021.2.3,Win32,50.14290729,5f6bc9d6b572cb13770b5c45,61bbc5c79a1c66460f44041e,61bbc5e9adb589f90781bff3,,,,,,-81,32,1,0,0,response7disk,3.2397,4,0,1,0,0,rectangle,4,0,1,0,0,-4,-2,"[4,33,14,141,129,30,20,63,91,72]",4,0,1,0,0,0,67,67,65,1,Purple,Purple.jpg,LightGreen,LightGreen.jpg,,
,,,,,,,,,,,,,,,,,,-4,,,,,,,,,,,,,,,,,,,,,,,,,,,,001,2021-12-16_23h05.32.264,jm_natural_scene_simialrity_2-12-2021_version2,2021.2.3,Win32,50.14290729,5f6bc9d6b572cb13770b5c45,61bbc5c79a1c66460f44041e,61bbc5e9adb589f90781bff3,,,,,,-37,99,1,0,0,response7disk,1.0801,0,15,1,0,0,rectangle,0,15,1,0,0,-4,-1,"[4,33,14,141,129,30,20,63,91,72]",0,15,1,0,0,0,68,68,79,1,Purple,Purple.jpg,DarkBlue,DarkBlue.jpg,,
,,,,,,,,,,,,,,,,,,-4,,,,,,,,,,,,,,,,,,,,,,,,,,,,001,2021-12-16_23h05.32.264,jm_natural_scene_simialrity_2-12-2021_version2,2021.2.3,Win32,50.14290729,5f6bc9d6b572cb13770b5c45,61bbc5c79a1c66460f44041e,61bbc5e9adb589f90781bff3,,,,,,-39,85,1,0,0,response7disk,1.1195,-1,18,1,0,0,rectangle,-1,18,1,0,0,-4,3,"[4,33,14,141,129,30,20,63,91,72]",-1,18,1,0,0,0,69,69,46,1,LightGreen,LightGreen.jpg,Red,Red.jpg,,
,,,,,,,,,,,,,,,,,,4,,,,,,,,,,,,,,,,,,,,,,,,,,,,001,2021-12-16_23h05.32.264,jm_natural_scene_simialrity_2-12-2021_version2,2021.2.3,Win32,50.14290729,5f6bc9d6b572cb13770b5c45,61bbc5c79a1c66460f44041e,61bbc5e9adb589f90781bff3,,,,,,31,83,1,0,0,response1disk,0.8001,10,7,1,0,0,rectangle,10,7,1,0,0,-4,-4,"[4,33,14,141,129,30,20,63,91,72]",10,7,1,0,0,0,70,70,30,1,Turquiose,Turquiose.jpg,Turquiose,Turquiose.jpg,,
,,,,,,,,,,,,,,,,,,-1,,,,,,,,,,,,,,,,,,,,,,,,,,,,001,2021-12-16_23h05.32.264,jm_natural_scene_simialrity_2-12-2021_version2,2021.2.3,Win32,50.14290729,5f6bc9d6b572cb13770b5c45,61bbc5c79a1c66460f44041e,61bbc5e9adb589f90781bff3,,,,,,-34,-94,1,0,0,response5disk,2.6201,-2,-15,1,0,0,rectangle,-61,-44,1,0,0,-4,-2,"[4,33,14,141,129,30,20,63,91,72]",18,-14,1,0,0,0,71,71,20,1,LightGreen,LightGreen.jpg,LightBlue,LightBlue.jpg,response5disk_3,rectangle
,,,,,,,,,,,,,,,,,,-4,,,,,,,,,,,,,,,,,,,,,,,,,,,,001,2021-12-16_23h05.32.264,jm_natural_scene_simialrity_2-12-2021_version2,2021.2.3,Win32,50.14290729,5f6bc9d6b572cb13770b5c45,61bbc5c79a1c66460f44041e,61bbc5e9adb589f90781bff3,,,,,,-44,83,1,0,0,response7disk,0.92,-13,-1,1,0,0,rectangle,-13,-1,1,0,0,-4,2,"[4,33,14,141,129,30,20,63,91,72]",-13,-1,1,0,0,0,72,72,50,1,DarkBlue,DarkBlue.jpg,Red,Red.jpg,,
,,,,,,,,,,,,,,,,,,4,,,,,,,,,,,,,,,,,,,,,,,,,,,,001,2021-12-16_23h05.32.264,jm_natural_scene_simialrity_2-12-2021_version2,2021.2.3,Win32,50.14290729,5f6bc9d6b572cb13770b5c45,61bbc5c79a1c66460f44041e,61bbc5e9adb589f90781bff3,,,,,,46,98,1,0,0,response1disk,0.9201,7,5,1,0,0,rectangle,7,5,1,0,0,-4,3,"[4,33,14,141,129,30,20,63,91,72]",7,5,1,0,0,0,73,73,45,1,Yellow,Yellow.jpg,Red,Red.jpg,,
,,,,,,,,,,,,,,,,,,-4,,,,,,,,,,,,,,,,,,,,,,,,,,,,001,2021-12-16_23h05.32.264,jm_natural_scene_simialrity_2-12-2021_version2,2021.2.3,Win32,50.14290729,5f6bc9d6b572cb13770b5c45,61bbc5c79a1c66460f44041e,61bbc5e9adb589f90781bff3,,,,,,-30,83,1,0,0,response7disk,2.6799,8,18,1,0,0,rectangle,8,18,1,0,0,-4,-1,"[4,33,14,141,129,30,20,63,91,72]",8,18,1,0,0,0,74,74,48,1,Turquiose,Turquiose.jpg,Red,Red.jpg,,
,,,,,,,,,,,,,,,,,,-4,,,,,,,,,,,,,,,,,,,,,,,,,,,,001,2021-12-16_23h05.32.264,jm_natural_scene_simialrity_2-12-2021_version2,2021.2.3,Win32,50.14290729,5f6bc9d6b572cb13770b5c45,61bbc5c79a1c66460f44041e,61bbc5e9adb589f90781bff3,,,,,,-26,95,1,0,0,response7disk,1.0794,13,12,1,0,0,rectangle,13,12,1,0,0,-4,3,"[4,33,14,141,129,30,20,63,91,72]",13,12,1,0,0,0,75,75,78,1,Pink,Pink.jpg,DarkBlue,DarkBlue.jpg,,
,,,,,,,,,,,,,,,,,,-4,,,,,,,,,,,,,,,,,,,,,,,,,,,,001,2021-12-16_23h05.32.264,jm_natural_scene_simialrity_2-12-2021_version2,2021.2.3,Win32,50.14290729,5f6bc9d6b572cb13770b5c45,61bbc5c79a1c66460f44041e,61bbc5e9adb589f90781bff3,,,,,,-29,79,1,0,0,response7disk,1.18,-5,11,1,0,0,rectangle,-5,11,1,0,0,-4,-3,"[4,33,14,141,129,30,20,63,91,72]",-5,11,1,0,0,0,76,76,13,1,Yellow,Yellow.jpg,LightBlue,LightBlue.jpg,,
,,,,,,,,,,,,,,,,,,-4,,,,,,,,,,,,,,,,,,,,,,,,,,,,001,2021-12-16_23h05.32.264,jm_natural_scene_simialrity_2-12-2021_version2,2021.2.3,Win32,50.14290729,5f6bc9d6b572cb13770b5c45,61bbc5c79a1c66460f44041e,61bbc5e9adb589f90781bff3,,,,,,-40,91,1,0,0,response7disk,0.8595,-5,4,1,0,0,rectangle,-5,4,1,0,0,-4,2,"[4,33,14,141,129,30,20,63,91,72]",-5,4,1,0,0,0,77,77,47,1,DarkGreen,DarkGreen.jpg,Red,Red.jpg,,
,,,,,,,,,,,,,,,,,,-4,,,,,,,,,,,,,,,,,,,,,,,,,,,,001,2021-12-16_23h05.32.264,jm_natural_scene_simialrity_2-12-2021_version2,2021.2.3,Win32,50.14290729,5f6bc9d6b572cb13770b5c45,61bbc5c79a1c66460f44041e,61bbc5e9adb589f90781bff3,,,,,,-44,95,1,0,0,response7disk,0.7407,-1,2,1,0,0,rectangle,-1,2,1,0,0,-4,-4,"[4,33,14,141,129,30,20,63,91,72]",-1,2,1,0,0,0,78,78,41,1,DarkBlue,DarkBlue.jpg,Purple,Purple.jpg,,
,,,,,,,,,,,,,,,,,,4,,,,,,,,,,,,,,,,,,,,,,,,,,,,001,2021-12-16_23h05.32.264,jm_natural_scene_simialrity_2-12-2021_version2,2021.2.3,Win32,50.14290729,5f6bc9d6b572cb13770b5c45,61bbc5c79a1c66460f44041e,61bbc5e9adb589f90781bff3,,,,,,30,75,1,0,0,response1disk,0.8393,11,10,1,0,0,rectangle,11,10,1,0,0,-4,-4,"[4,33,14,141,129,30,20,63,91,72]",11,10,1,0,0,0,79,79,17,1,LightGreen,LightGreen.jpg,LightGreen,LightGreen.jpg,,
,,,,,,,,,,,,,,,,,,-4,,,,,,,,,,,,,,,,,,,,,,,,,,,,001,2021-12-16_23h05.32.264,jm_natural_scene_simialrity_2-12-2021_version2,2021.2.3,Win32,50.14290729,5f6bc9d6b572cb13770b5c45,61bbc5c79a1c66460f44041e,61bbc5e9adb589f90781bff3,,,,,,-22,77,1,0,0,response7disk,1.2195,3,-7,1,0,0,rectangle,3,-7,1,0,0,-4,-3,"[4,33,14,141,129,30,20,63,91,72]",3,-7,1,0,0,0,80,80,14,1,Yellow,Yellow.jpg,DarkBlue,DarkBlue.jpg,,
,,,,,,,,,,,,,,,,,,4,,,,,,,,,,,,,,,,,,,,,,,,,,,,001,2021-12-16_23h05.32.264,jm_natural_scene_simialrity_2-12-2021_version2,2021.2.3,Win32,50.14290729,5f6bc9d6b572cb13770b5c45,61bbc5c79a1c66460f44041e,61bbc5e9adb589f90781bff3,,,,,,42,90,1,0,0,response1disk,0.9799,-2,-18,1,0,0,rectangle,-2,-18,1,0,0,-4,2,"[4,33,14,141,129,30,20,63,91,72]",-2,-18,1,0,0,1,0,81,44,1,Purple,Purple.jpg,Purple,Purple.jpg,,
,,,,,,,,,,,,,,,,,,-4,,,,,,,,,,,,,,,,,,,,,,,,,,,,001,2021-12-16_23h05.32.264,jm_natural_scene_simialrity_2-12-2021_version2,2021.2.3,Win32,50.14290729,5f6bc9d6b572cb13770b5c45,61bbc5c79a1c66460f44041e,61bbc5e9adb589f90781bff3,,,,,,-29,61,1,0,0,response7disk,0.9396,-9,-13,1,0,0,rectangle,-9,-13,1,0,0,-4,-1,"[4,33,14,141,129,30,20,63,91,72]",-9,-13,1,0,0,1,1,82,55,1,Turquiose,Turquiose.jpg,Yellow,Yellow.jpg,,
,,,,,,,,,,,,,,,,,,-4,,,,,,,,,,,,,,,,,,,,,,,,,,,,001,2021-12-16_23h05.32.264,jm_natural_scene_simialrity_2-12-2021_version2,2021.2.3,Win32,50.14290729,5f6bc9d6b572cb13770b5c45,61bbc5c79a1c66460f44041e,61bbc5e9adb589f90781bff3,,,,,,-33,87,1,0,0,response7disk,0.7195,0,-6,1,0,0,rectangle,0,-6,1,0,0,-4,3,"[4,33,14,141,129,30,20,63,91,72]",0,-6,1,0,0,1,2,83,12,1,Yellow,Yellow.jpg,Turquiose,Turquiose.jpg,,
,,,,,,,,,,,,,,,,,,-1,,,,,,,,,,,,,,,,,,,,,,,,,,,,001,2021-12-16_23h05.32.264,jm_natural_scene_simialrity_2-12-2021_version2,2021.2.3,Win32,50.14290729,5f6bc9d6b572cb13770b5c45,61bbc5c79a1c66460f44041e,61bbc5e9adb589f90781bff3,,,,,,-26,-90,1,0,0,response5disk,2.1595,14,-13,1,0,0,rectangle,14,-13,1,0,0,-4,-2,"[4,33,14,141,129,30,20,63,91,72]",14,-13,1,0,0,1,3,84,20,1,LightGreen,LightGreen.jpg,LightBlue,LightBlue.jpg,,
,,,,,,,,,,,,,,,,,,-1,,,,,,,,,,,,,,,,,,,,,,,,,,,,001,2021-12-16_23h05.32.264,jm_natural_scene_simialrity_2-12-2021_version2,2021.2.3,Win32,50.14290729,5f6bc9d6b572cb13770b5c45,61bbc5c79a1c66460f44041e,61bbc5e9adb589f90781bff3,,,,,,-38,-83,1,0,0,response5disk,2.8001,6,-19,1,0,0,rectangle,6,-19,1,0,0,-4,3,"[4,33,14,141,129,30,20,63,91,72]",6,-19,1,0,0,1,4,85,21,1,LightGreen,LightGreen.jpg,DarkBlue,DarkBlue.jpg,,
,,,,,,,,,,,,,,,,,,-4,,,,,,,,,,,,,,,,,,,,,,,,,,,,001,2021-12-16_23h05.32.264,jm_natural_scene_simialrity_2-12-2021_version2,2021.2.3,Win32,50.14290729,5f6bc9d6b572cb13770b5c45,61bbc5c79a1c66460f44041e,61bbc5e9adb589f90781bff3,,,,,,-35,107,1,0,0,response7disk,0.9204,3,7,1,0,0,rectangle,3,7,1,0,0,-4,2,"[4,33,14,141,129,30,20,63,91,72]",3,7,1,0,0,1,5,86,5,1,Red,Red.jpg,LightBlue,LightBlue.jpg,,
,,,,,,,,,,,,,,,,,,3,,,,,,,,,,,,,,,,,,,,,,,,,,,,001,2021-12-16_23h05.32.264,jm_natural_scene_simialrity_2-12-2021_version2,2021.2.3,Win32,50.14290729,5f6bc9d6b572cb13770b5c45,61bbc5c79a1c66460f44041e,61bbc5e9adb589f90781bff3,,,,,,53,29,1,0,0,response1disk,1.3202,-1,-14,1,0,0,rectangle,-1,-14,1,0,0,-4,2,"[4,33,14,141,129,30,20,63,91,72]",-1,-14,1,0,0,1,6,87,19,1,LightGreen,LightGreen.jpg,Turquiose,Turquiose.jpg,,
,,,,,,,,,,,,,,,,,,-2,,,,,,,,,,,,,,,,,,,,,,,,,,,,001,2021-12-16_23h05.32.264,jm_natural_scene_simialrity_2-12-2021_version2,2021.2.3,Win32,50.14290729,5f6bc9d6b572cb13770b5c45,61bbc5c79a1c66460f44041e,61bbc5e9adb589f90781bff3,,,,,,-83,-61,1,0,0,response5disk,2.8401,-12,0,1,0,0,rectangle,-12,0,1,0,0,-4,-2,"[4,33,14,141,129,30,20,63,91,72]",-12,0,1,0,0,1,7,88,43,1,Pink,Pink.jpg,Purple,Purple.jpg,,
,,,,,,,,,,,,,,,,,,-4,,,,,,,,,,,,,,,,,,,,,,,,,,,,001,2021-12-16_23h05.32.264,jm_natural_scene_simialrity_2-12-2021_version2,2021.2.3,Win32,50.14290729,5f6bc9d6b572cb13770b5c45,61bbc5c79a1c66460f44041e,61bbc5e9adb589f90781bff3,,,,,,-38,100,1,0,0,response7disk,0.9595,11,17,1,0,0,rectangle,11,17,1,0,0,-4,-4,"[4,33,14,141,129,30,20,63,91,72]",11,17,1,0,0,1,8,89,47,1,DarkGreen,DarkGreen.jpg,Red,Red.jpg,,
,,,,,,,,,,,,,,,,,,-1,,,,,,,,,,,,,,,,,,,,,,,,,,,,001,2021-12-16_23h05.32.264,jm_natural_scene_simialrity_2-12-2021_version2,2021.2.3,Win32,50.14290729,5f6bc9d6b572cb13770b5c45,61bbc5c79a1c66460f44041e,61bbc5e9adb589f90781bff3,,,,,,-36,-108,1,0,0,response5disk,5.0795,-9,-6,1,0,0,rectangle,-31,-98,1,0,0,-1,-1,"[4,33,14,141,129,30,20,63,91,72]",2,-6,1,0,0,1,9,90,26,1,DarkGreen,DarkGreen.jpg,LightBlue,LightBlue.jpg,response5disk_3,rectangle
,,,,,,,,,,,,,,,,,,-1,,,,,,,,,,,,,,,,,,,,,,,,,,,,001,2021-12-16_23h05.32.264,jm_natural_scene_simialrity_2-12-2021_version2,2021.2.3,Win32,50.14290729,5f6bc9d6b572cb13770b5c45,61bbc5c79a1c66460f44041e,61bbc5e9adb589f90781bff3,,,,,,-33,-79,1,0,0,response5disk,2.5402,-19,-11,1,0,0,rectangle,-19,-11,1,0,0,-1,2,"[4,33,14,141,129,30,20,63,91,72]",-19,-11,1,0,0,1,10,91,38,1,LightBlue,LightBlue.jpg,Purple,Purple.jpg,,
,,,,,,,,,,,,,,,,,,-4,,,,,,,,,,,,,,,,,,,,,,,,,,,,001,2021-12-16_23h05.32.264,jm_natural_scene_simialrity_2-12-2021_version2,2021.2.3,Win32,50.14290729,5f6bc9d6b572cb13770b5c45,61bbc5c79a1c66460f44041e,61bbc5e9adb589f90781bff3,,,,,,-42,96,1,0,0,response7disk,1.3005,-10,5,1,0,0,rectangle,-10,5,1,0,0,-1,1,"[4,33,14,141,129,30,20,63,91,72]",-10,5,1,0,0,1,11,92,76,1,Pink,Pink.jpg,LightBlue,LightBlue.jpg,,
,,,,,,,,,,,,,,,,,,-4,,,,,,,,,,,,,,,,,,,,,,,,,,,,001,2021-12-16_23h05.32.264,jm_natural_scene_simialrity_2-12-2021_version2,2021.2.3,Win32,50.14290729,5f6bc9d6b572cb13770b5c45,61bbc5c79a1c66460f44041e,61bbc5e9adb589f90781bff3,,,,,,-39,89,1,0,0,response7disk,0.8001,-1,12,1,0,0,rectangle,-1,12,1,0,0,-1,3,"[4,33,14,141,129,30,20,63,91,72]",-1,12,1,0,0,1,12,93,70,1,Purple,Purple.jpg,DarkGreen,DarkGreen.jpg,,
,,,,,,,,,,,,,,,,,,-4,,,,,,,,,,,,,,,,,,,,,,,,,,,,001,2021-12-16_23h05.32.264,jm_natural_scene_simialrity_2-12-2021_version2,2021.2.3,Win32,50.14290729,5f6bc9d6b572cb13770b5c45,61bbc5c79a1c66460f44041e,61bbc5e9adb589f90781bff3,,,,,,-47,72,1,0,0,response7disk,1.4801,-13,7,1,0,0,rectangle,-13,7,1,0,0,-1,-2,"[4,33,14,141,129,30,20,63,91,72]",-13,7,1,0,0,1,13,94,4,1,Red,Red.jpg,Turquiose,Turquiose.jpg,,
,,,,,,,,,,,,,,,,,,4,,,,,,,,,,,,,,,,,,,,,,,,,,,,001,2021-12-16_23h05.32.264,jm_natural_scene_simialrity_2-12-2021_version2,2021.2.3,Win32,50.14290729,5f6bc9d6b572cb13770b5c45,61bbc5c79a1c66460f44041e,61bbc5e9adb589f90781bff3,,,,,,34,75,1,0,0,response1disk,1.4001,6,-12,1,0,0,rectangle,6,-12,1,0,0,-1,-2,"[4,33,14,141,129,30,20,63,91,72]",6,-12,1,0,0,1,14,95,1,1,Red,Red.jpg,Yellow,Yellow.jpg,,
,,,,,,,,,,,,,,,,,,-4,,,,,,,,,,,,,,,,,,,,,,,,,,,,001,2021-12-16_23h05.32.264,jm_natural_scene_simialrity_2-12-2021_version2,2021.2.3,Win32,50.14290729,5f6bc9d6b572cb13770b5c45,61bbc5c79a1c66460f44041e,61bbc5e9adb589f90781bff3,,,,,,-27,92,1,0,0,response7disk,1.5994,6,15,1,0,0,rectangle,6,15,1,0,0,-1,-2,"[4,33,14,141,129,30,20,63,91,72]",6,15,1,0,0,1,15,96,41,1,DarkBlue,DarkBlue.jpg,Purple,Purple.jpg,,
,,,,,,,,,,,,,,,,,,4,,,,,,,,,,,,,,,,,,,,,,,,,,,,001,2021-12-16_23h05.32.264,jm_natural_scene_simialrity_2-12-2021_version2,2021.2.3,Win32,50.14290729,5f6bc9d6b572cb13770b5c45,61bbc5c79a1c66460f44041e,61bbc5e9adb589f90781bff3,,,,,,43,91,1,0,0,response1disk,1.0801,-6,-6,1,0,0,rectangle,-6,-6,1,0,0,-1,-1,"[4,33,14,141,129,30,20,63,91,72]",-6,-6,1,0,0,1,16,97,39,1,DarkBlue,DarkBlue.jpg,DarkBlue,DarkBlue.jpg,,
,,,,,,,,,,,,,,,,,,-4,,,,,,,,,,,,,,,,,,,,,,,,,,,,001,2021-12-16_23h05.32.264,jm_natural_scene_simialrity_2-12-2021_version2,2021.2.3,Win32,50.14290729,5f6bc9d6b572cb13770b5c45,61bbc5c79a1c66460f44041e,61bbc5e9adb589f90781bff3,,,,,,-33,97,1,0,0,response7disk,1.0803,-7,-5,1,0,0,rectangle,-7,-5,1,0,0,-1,-1,"[4,33,14,141,129,30,20,63,91,72]",-7,-5,1,0,0,1,17,98,53,1,LightGreen,LightGreen.jpg,Yellow,Yellow.jpg,,
,,,,,,,,,,,,,,,,,,-4,,,,,,,,,,,,,,,,,,,,,,,,,,,,001,2021-12-16_23h05.32.264,jm_natural_scene_simialrity_2-12-2021_version2,2021.2.3,Win32,50.14290729,5f6bc9d6b572cb13770b5c45,61bbc5c79a1c66460f44041e,61bbc5e9adb589f90781bff3,,,,,,-42,74,1,0,0,response7disk,1.0601,-11,0,1,0,0,rectangle,-11,0,1,0,0,-1,-2,"[4,33,14,141,129,30,20,63,91,72]",-11,0,1,0,0,1,18,99,74,1,Purple,Purple.jpg,Turquiose,Turquiose.jpg,,
,,,,,,,,,,,,,,,,,,-4,,,,,,,,,,,,,,,,,,,,,,,,,,,,001,2021-12-16_23h05.32.264,jm_natural_scene_simialrity_2-12-2021_version2,2021.2.3,Win32,50.14290729,5f6bc9d6b572cb13770b5c45,61bbc5c79a1c66460f44041e,61bbc5e9adb589f90781bff3,,,,,,-50,66,1,0,0,response7disk,1.5796,-9,-8,1,0,0,rectangle,-9,-8,1,0,0,-1,-3,"[4,33,14,141,129,30,20,63,91,72]",-9,-8,1,0,0,1,19,100,49,1,LightBlue,LightBlue.jpg,Red,Red.jpg,,
,,,,,,,,,,,,,,,,,,4,,,,,,,,,,,,,,,,,,,,,,,,,,,,001,2021-12-16_23h05.32.264,jm_natural_scene_simialrity_2-12-2021_version2,2021.2.3,Win32,50.14290729,5f6bc9d6b572cb13770b5c45,61bbc5c79a1c66460f44041e,61bbc5e9adb589f90781bff3,,,,,,41,90,1,0,0,response1disk,0.8401,-9,-16,1,0,0,rectangle,-9,-16,1,0,0,-1,3,"[4,33,14,141,129,30,20,63,91,72]",-9,-16,1,0,0,1,20,101,45,1,Yellow,Yellow.jpg,Red,Red.jpg,,
,,,,,,,,,,,,,,,,,,-4,,,,,,,,,,,,,,,,,,,,,,,,,,,,001,2021-12-16_23h05.32.264,jm_natural_scene_simialrity_2-12-2021_version2,2021.2.3,Win32,50.14290729,5f6bc9d6b572cb13770b5c45,61bbc5c79a1c66460f44041e,61bbc5e9adb589f90781bff3,,,,,,-41,86,1,0,0,response7disk,0.8404,7,-10,1,0,0,rectangle,7,-10,1,0,0,-1,-3,"[4,33,14,141,129,30,20,63,91,72]",7,-10,1,0,0,1,21,102,56,1,LightBlue,LightBlue.jpg,Yellow,Yellow.jpg,,
,,,,,,,,,,,,,,,,,,4,,,,,,,,,,,,,,,,,,,,,,,,,,,,001,2021-12-16_23h05.32.264,jm_natural_scene_simialrity_2-12-2021_version2,2021.2.3,Win32,50.14290729,5f6bc9d6b572cb13770b5c45,61bbc5c79a1c66460f44041e,61bbc5e9adb589f90781bff3,,,,,,24,69,1,0,0,response1disk,0.6796,0,-18,1,0,0,rectangle,0,-18,1,0,0,-1,-3,"[4,33,14,141,129,30,20,63,91,72]",0,-18,1,0,0,1,22,103,42,1,Pink,Pink.jpg,Pink,Pink.jpg,,
,,,,,,,,,,,,,,,,,,-4,,,,,,,,,,,,,,,,,,,,,,,,,,,,001,2021-12-16_23h05.32.264,jm_natural_scene_simialrity_2-12-2021_version2,2021.2.3,Win32,50.14290729,5f6bc9d6b572cb13770b5c45,61bbc5c79a1c66460f44041e,61bbc5e9adb589f90781bff3,,,,,,-30,85,1,0,0,response7disk,1.34,-4,7,1,0,0,rectangle,-4,7,1,0,0,-1,-4,"[4,33,14,141,129,30,20,63,91,72]",-4,7,1,0,0,1,23,104,13,1,Yellow,Yellow.jpg,LightBlue,LightBlue.jpg,,
,,,,,,,,,,,,,,,,,,4,,,,,,,,,,,,,,,,,,,,,,,,,,,,001,2021-12-16_23h05.32.264,jm_natural_scene_simialrity_2-12-2021_version2,2021.2.3,Win32,50.14290729,5f6bc9d6b572cb13770b5c45,61bbc5c79a1c66460f44041e,61bbc5e9adb589f90781bff3,,,,,,24,66,1,0,0,response1disk,1.1997,-9,-19,1,0,0,rectangle,-9,-19,1,0,0,-1,-3,"[4,33,14,141,129,30,20,63,91,72]",-9,-19,1,0,0,1,24,105,35,1,LightBlue,LightBlue.jpg,LightBlue,LightBlue.jpg,,
,,,,,,,,,,,,,,,,,,4,,,,,,,,,,,,,,,,,,,,,,,,,,,,001,2021-12-16_23h05.32.264,jm_natural_scene_simialrity_2-12-2021_version2,2021.2.3,Win32,50.14290729,5f6bc9d6b572cb13770b5c45,61bbc5c79a1c66460f44041e,61bbc5e9adb589f90781bff3,,,,,,19,95,1,0,0,response1disk,1.16,12,-15,1,0,0,rectangle,12,-15,1,0,0,-1,1,"[4,33,14,141,129,30,20,63,91,72]",12,-15,1,0,0,1,25,106,18,1,LightGreen,LightGreen.jpg,DarkGreen,DarkGreen.jpg,,
,,,,,,,,,,,,,,,,,,2,,,,,,,,,,,,,,,,,,,,,,,,,,,,001,2021-12-16_23h05.32.264,jm_natural_scene_simialrity_2-12-2021_version2,2021.2.3,Win32,50.14290729,5f6bc9d6b572cb13770b5c45,61bbc5c79a1c66460f44041e,61bbc5e9adb589f90781bff3,,,,,,56,-42,1,0,0,response3disk,1.7798,7,14,1,0,0,rectangle,7,14,1,0,0,-1,-1,"[4,33,14,141,129,30,20,63,91,72]",7,14,1,0,0,1,26,107,27,1,DarkGreen,DarkGreen.jpg,DarkBlue,DarkBlue.jpg,,
,,,,,,,,,,,,,,,,,,-4,,,,,,,,,,,,,,,,,,,,,,,,,,,,001,2021-12-16_23h05.32.264,jm_natural_scene_simialrity_2-12-2021_version2,2021.2.3,Win32,50.14290729,5f6bc9d6b572cb13770b5c45,61bbc5c79a1c66460f44041e,61bbc5e9adb589f90781bff3,,,,,,-42,75,1,0,0,response7disk,1.3195,-2,-11,1,0,0,rectangle,-2,-11,1,0,0,-1,1,"[4,33,14,141,129,30,20,63,91,72]",-2,-11,1,0,0,1,27,108,57,1,DarkBlue,DarkBlue.jpg,Yellow,Yellow.jpg,,
,,,,,,,,,,,,,,,,,,-4,,,,,,,,,,,,,,,,,,,,,,,,,,,,001,2021-12-16_23h05.32.264,jm_natural_scene_simialrity_2-12-2021_version2,2021.2.3,Win32,50.14290729,5f6bc9d6b572cb13770b5c45,61bbc5c79a1c66460f44041e,61bbc5e9adb589f90781bff3,,,,,,-43,74,1,0,0,response7disk,0.8596,6,-8,1,0,0,rectangle,6,-8,1,0,0,-1,-2,"[4,33,14,141,129,30,20,63,91,72]",6,-8,1,0,0,1,28,109,28,1,DarkGreen,DarkGreen.jpg,Pink,Pink.jpg,,
,,,,,,,,,,,,,,,,,,4,,,,,,,,,,,,,,,,,,,,,,,,,,,,001,2021-12-16_23h05.32.264,jm_natural_scene_simialrity_2-12-2021_version2,2021.2.3,Win32,50.14290729,5f6bc9d6b572cb13770b5c45,61bbc5c79a1c66460f44041e,61bbc5e9adb589f90781bff3,,,,,,48,81,1,0,0,response1disk,0.9405,1,-16,1,0,0,rectangle,1,-16,1,0,0,-1,-4,"[4,33,14,141,129,30,20,63,91,72]",1,-16,1,0,0,1,29,110,51,1,Pink,Pink.jpg,Red,Red.jpg,,
,,,,,,,,,,,,,,,,,,-4,,,,,,,,,,,,,,,,,,,,,,,,,,,,001,2021-12-16_23h05.32.264,jm_natural_scene_simialrity_2-12-2021_version2,2021.2.3,Win32,50.14290729,5f6bc9d6b572cb13770b5c45,61bbc5c79a1c66460f44041e,61bbc5e9adb589f90781bff3,,,,,,-32,92,1,0,0,response7disk,5.2606,-4,23,1,0,0,rectangle,-4,23,1,0,0,-1,-2,"[4,33,14,141,129,30,20,63,91,72]",-4,23,1,0,0,1,30,111,80,1,Purple,Purple.jpg,Pink,Pink.jpg,,
,,,,,,,,,,,,,,,,,,-4,,,,,,,,,,,,,,,,,,,,,,,,,,,,001,2021-12-16_23h05.32.264,jm_natural_scene_simialrity_2-12-2021_version2,2021.2.3,Win32,50.14290729,5f6bc9d6b572cb13770b5c45,61bbc5c79a1c66460f44041e,61bbc5e9adb589f90781bff3,,,,,,-41,84,1,0,0,response7disk,0.8203,-2,8,1,0,0,rectangle,-2,8,1,0,0,-1,-4,"[4,33,14,141,129,30,20,63,91,72]",-2,8,1,0,0,1,31,112,34,1,Turquiose,Turquiose.jpg,Purple,Purple.jpg,,
,,,,,,,,,,,,,,,,,,-4,,,,,,,,,,,,,,,,,,,,,,,,,,,,001,2021-12-16_23h05.32.264,jm_natural_scene_simialrity_2-12-2021_version2,2021.2.3,Win32,50.14290729,5f6bc9d6b572cb13770b5c45,61bbc5c79a1c66460f44041e,61bbc5e9adb589f90781bff3,,,,,,-37,44,1,0,0,response7disk,2.6399,-20,-3,1,0,0,rectangle,-20,-3,1,0,0,-1,-3,"[4,33,14,141,129,30,20,63,91,72]",-20,-3,1,0,0,1,32,113,36,1,LightBlue,LightBlue.jpg,DarkBlue,DarkBlue.jpg,,
,,,,,,,,,,,,,,,,,,-2,,,,,,,,,,,,,,,,,,,,,,,,,,,,001,2021-12-16_23h05.32.264,jm_natural_scene_simialrity_2-12-2021_version2,2021.2.3,Win32,50.14290729,5f6bc9d6b572cb13770b5c45,61bbc5c79a1c66460f44041e,61bbc5e9adb589f90781bff3,,,,,,-67,-30,1,0,0,response5disk,1.3807,-5,-15,1,0,0,rectangle,-5,-15,1,0,0,-1,-4,"[4,33,14,141,129,30,20,63,91,72]",-5,-15,1,0,0,1,33,114,32,1,Turquiose,Turquiose.jpg,DarkBlue,DarkBlue.jpg,,
,,,,,,,,,,,,,,,,,,4,,,,,,,,,,,,,,,,,,,,,,,,,,,,001,2021-12-16_23h05.32.264,jm_natural_scene_simialrity_2-12-2021_version2,2021.2.3,Win32,50.14290729,5f6bc9d6b572cb13770b5c45,61bbc5c79a1c66460f44041e,61bbc5e9adb589f90781bff3,,,,,,23,61,1,0,0,response1disk,1.0798,-10,-3,1,0,0,rectangle,-10,-3,1,0,0,-1,-4,"[4,33,14,141,129,30,20,63,91,72]",-10,-3,1,0,0,1,34,115,9,1,Yellow,Yellow.jpg,Yellow,Yellow.jpg,,
,,,,,,,,,,,,,,,,,,-4,,,,,,,,,,,,,,,,,,,,,,,,,,,,001,2021-12-16_23h05.32.264,jm_natural_scene_simialrity_2-12-2021_version2,2021.2.3,Win32,50.14290729,5f6bc9d6b572cb13770b5c45,61bbc5c79a1c66460f44041e,61bbc5e9adb589f90781bff3,,,,,,-30,82,1,0,0,response7disk,0.8594,6,7,1,0,0,rectangle,6,7,1,0,0,-1,-2,"[4,33,14,141,129,30,20,63,91,72]",6,7,1,0,0,1,35,116,2,1,Red,Red.jpg,LightGreen,LightGreen.jpg,,
,,,,,,,,,,,,,,,,,,-4,,,,,,,,,,,,,,,,,,,,,,,,,,,,001,2021-12-16_23h05.32.264,jm_natural_scene_simialrity_2-12-2021_version2,2021.2.3,Win32,50.14290729,5f6bc9d6b572cb13770b5c45,61bbc5c79a1c66460f44041e,61bbc5e9adb589f90781bff3,,,,,,-51,84,1,0,0,response7disk,0.7795,-5,10,1,0,0,rectangle,-5,10,1,0,0,-1,-2,"[4,33,14,141,129,30,20,63,91,72]",-5,10,1,0,0,1,36,117,14,1,Yellow,Yellow.jpg,DarkBlue,DarkBlue.jpg,,
,,,,,,,,,,,,,,,,,,-4,,,,,,,,,,,,,,,,,,,,,,,,,,,,001,2021-12-16_23h05.32.264,jm_natural_scene_simialrity_2-12-2021_version2,2021.2.3,Win32,50.14290729,5f6bc9d6b572cb13770b5c45,61bbc5c79a1c66460f44041e,61bbc5e9adb589f90781bff3,,,,,,-37,72,1,0,0,response7disk,0.7406,-8,-5,1,0,0,rectangle,-8,-5,1,0,0,-1,-3,"[4,33,14,141,129,30,20,63,91,72]",-8,-5,1,0,0,1,37,118,78,1,Pink,Pink.jpg,DarkBlue,DarkBlue.jpg,,
,,,,,,,,,,,,,,,,,,3,,,,,,,,,,,,,,,,,,,,,,,,,,,,001,2021-12-16_23h05.32.264,jm_natural_scene_simialrity_2-12-2021_version2,2021.2.3,Win32,50.14290729,5f6bc9d6b572cb13770b5c45,61bbc5c79a1c66460f44041e,61bbc5e9adb589f90781bff3,,,,,,65,25,1,0,0,response1disk,2.4201,10,4,1,0,0,rectangle,10,4,1,0,0,-1,-3,"[4,33,14,141,129,30,20,63,91,72]",10,4,1,0,0,1,38,119,68,1,DarkBlue,DarkBlue.jpg,DarkGreen,DarkGreen.jpg,,
,,,,,,,,,,,,,,,,,,-4,,,,,,,,,,,,,,,,,,,,,,,,,,,,001,2021-12-16_23h05.32.264,jm_natural_scene_simialrity_2-12-2021_version2,2021.2.3,Win32,50.14290729,5f6bc9d6b572cb13770b5c45,61bbc5c79a1c66460f44041e,61bbc5e9adb589f90781bff3,,,,,,-47,100,1,0,0,response7disk,0.8202,10,-5,1,0,0,rectangle,10,-5,1,0,0,-1,-2,"[4,33,14,141,129,30,20,63,91,72]",10,-5,1,0,0,1,39,120,22,1,LightGreen,LightGreen.jpg,Pink,Pink.jpg,,
,,,,,,,,,,,,,,,,,,4,,,,,,,,,,,,,,,,,,,,,,,,,,,,001,2021-12-16_23h05.32.264,jm_natural_scene_simialrity_2-12-2021_version2,2021.2.3,Win32,50.14290729,5f6bc9d6b572cb13770b5c45,61bbc5c79a1c66460f44041e,61bbc5e9adb589f90781bff3,,,,,,51,113,1,0,0,response1disk,0.9596,5,12,1,0,0,rectangle,5,12,1,0,0,-1,1,"[4,33,14,141,129,30,20,63,91,72]",5,12,1,0,0,1,40,121,58,1,Pink,Pink.jpg,Yellow,Yellow.jpg,,
,,,,,,,,,,,,,,,,,,-4,,,,,,,,,,,,,,,,,,,,,,,,,,,,001,2021-12-16_23h05.32.264,jm_natural_scene_simialrity_2-12-2021_version2,2021.2.3,Win32,50.14290729,5f6bc9d6b572cb13770b5c45,61bbc5c79a1c66460f44041e,61bbc5e9adb589f90781bff3,,,,,,-30,85,1,0,0,response7disk,1.1396,6,13,1,0,0,rectangle,6,13,1,0,0,-1,3,"[4,33,14,141,129,30,20,63,91,72]",6,13,1,0,0,1,41,122,10,1,Yellow,Yellow.jpg,LightGreen,LightGreen.jpg,,
,,,,,,,,,,,,,,,,,,-3,,,,,,,,,,,,,,,,,,,,,,,,,,,,001,2021-12-16_23h05.32.264,jm_natural_scene_simialrity_2-12-2021_version2,2021.2.3,Win32,50.14290729,5f6bc9d6b572cb13770b5c45,61bbc5c79a1c66460f44041e,61bbc5e9adb589f90781bff3,,,,,,-65,38,1,0,0,response7disk,1.3196,-19,2,1,0,0,rectangle,-19,2,1,0,0,-1,-1,"[4,33,14,141,129,30,20,63,91,72]",-19,2,1,0,0,1,42,123,67,1,LightBlue,LightBlue.jpg,DarkGreen,DarkGreen.jpg,,
,,,,,,,,,,,,,,,,,,4,,,,,,,,,,,,,,,,,,,,,,,,,,,,001,2021-12-16_23h05.32.264,jm_natural_scene_simialrity_2-12-2021_version2,2021.2.3,Win32,50.14290729,5f6bc9d6b572cb13770b5c45,61bbc5c79a1c66460f44041e,61bbc5e9adb589f90781bff3,,,,,,29,81,1,0,0,response1disk,0.8002,-2,8,1,0,0,rectangle,-2,8,1,0,0,-1,2,"[4,33,14,141,129,30,20,63,91,72]",-2,8,1,0,0,1,43,124,15,1,Yellow,Yellow.jpg,Pink,Pink.jpg,,
,,,,,,,,,,,,,,,,,,1,,,,,,,,,,,,,,,,,,,,,,,,,,,,001,2021-12-16_23h05.32.264,jm_natural_scene_simialrity_2-12-2021_version2,2021.2.3,Win32,50.14290729,5f6bc9d6b572cb13770b5c45,61bbc5c79a1c66460f44041e,61bbc5e9adb589f90781bff3,,,,,,38,-90,1,0,0,response3disk,2.3596,2,2,1,0,0,rectangle,2,2,1,0,0,-1,-3,"[4,33,14,141,129,30,20,63,91,72]",2,2,1,0,0,1,44,125,25,1,DarkGreen,DarkGreen.jpg,Turquiose,Turquiose.jpg,,
,,,,,,,,,,,,,,,,,,2,,,,,,,,,,,,,,,,,,,,,,,,,,,,001,2021-12-16_23h05.32.264,jm_natural_scene_simialrity_2-12-2021_version2,2021.2.3,Win32,50.14290729,5f6bc9d6b572cb13770b5c45,61bbc5c79a1c66460f44041e,61bbc5e9adb589f90781bff3,,,,,,88,-54,1,0,0,response3disk,2.1797,8,-2,1,0,0,rectangle,8,-2,1,0,0,-1,1,"[4,33,14,141,129,30,20,63,91,72]",8,-2,1,0,0,1,45,126,66,1,Turquiose,Turquiose.jpg,DarkGreen,DarkGreen.jpg,,
,,,,,,,,,,,,,,,,,,-3,,,,,,,,,,,,,,,,,,,,,,,,,,,,001,2021-12-16_23h05.32.264,jm_natural_scene_simialrity_2-12-2021_version2,2021.2.3,Win32,50.14290729,5f6bc9d6b572cb13770b5c45,61bbc5c79a1c66460f44041e,61bbc5e9adb589f90781bff3,,,,,,-70,35,1,0,0,response7disk,2.6996,-19,-2,1,0,0,rectangle,-19,-2,1,0,0,-1,-3,"[4,33,14,141,129,30,20,63,91,72]",-19,-2,1,0,0,1,46,127,31,1,Turquiose,Turquiose.jpg,LightBlue,LightBlue.jpg,,
,,,,,,,,,,,,,,,,,,-4,,,,,,,,,,,,,,,,,,,,,,,,,,,,001,2021-12-16_23h05.32.264,jm_natural_scene_simialrity_2-12-2021_version2,2021.2.3,Win32,50.14290729,5f6bc9d6b572cb13770b5c45,61bbc5c79a1c66460f44041e,61bbc5e9adb589f90781bff3,,,,,,-30,77,1,0,0,response7disk,0.8201,-6,6,1,0,0,rectangle,-49,95,1,0,0,-4,-4,"[4,33,14,141,129,30,20,63,91,72]",-12,8,1,0,0,1,47,128,37,1,LightBlue,LightBlue.jpg,Pink,Pink.jpg,response7disk_3,rectangle
,,,,,,,,,,,,,,,,,,-4,,,,,,,,,,,,,,,,,,,,,,,,,,,,001,2021-12-16_23h05.32.264,jm_natural_scene_simialrity_2-12-2021_version2,2021.2.3,Win32,50.14290729,5f6bc9d6b572cb13770b5c45,61bbc5c79a1c66460f44041e,61bbc5e9adb589f90781bff3,,,,,,-20,110,1,0,0,response7disk,1.9601,10,12,1,0,0,rectangle,10,12,1,0,0,-4,1,"[4,33,14,141,129,30,20,63,91,72]",10,12,1,0,0,1,48,129,64,1,Pink,Pink.jpg,LightGreen,LightGreen.jpg,,
,,,,,,,,,,,,,,,,,,-4,,,,,,,,,,,,,,,,,,,,,,,,,,,,001,2021-12-16_23h05.32.264,jm_natural_scene_simialrity_2-12-2021_version2,2021.2.3,Win32,50.14290729,5f6bc9d6b572cb13770b5c45,61bbc5c79a1c66460f44041e,61bbc5e9adb589f90781bff3,,,,,,-47,102,1,0,0,response7disk,0.7995,-20,15,1,0,0,rectangle,-20,15,1,0,0,-4,-2,"[4,33,14,141,129,30,20,63,91,72]",-20,15,1,0,0,1,49,130,46,1,LightGreen,LightGreen.jpg,Red,Red.jpg,,
,,,,,,,,,,,,,,,,,,4,,,,,,,,,,,,,,,,,,,,,,,,,,,,001,2021-12-16_23h05.32.264,jm_natural_scene_simialrity_2-12-2021_version2,2021.2.3,Win32,50.14290729,5f6bc9d6b572cb13770b5c45,61bbc5c79a1c66460f44041e,61bbc5e9adb589f90781bff3,,,,,,28,90,1,0,0,response1disk,0.8593,8,11,1,0,0,rectangle,8,11,1,0,0,-4,-2,"[4,33,14,141,129,30,20,63,91,72]",8,11,1,0,0,1,50,131,30,1,Turquiose,Turquiose.jpg,Turquiose,Turquiose.jpg,,
,,,,,,,,,,,,,,,,,,4,,,,,,,,,,,,,,,,,,,,,,,,,,,,001,2021-12-16_23h05.32.264,jm_natural_scene_simialrity_2-12-2021_version2,2021.2.3,Win32,50.14290729,5f6bc9d6b572cb13770b5c45,61bbc5c79a1c66460f44041e,61bbc5e9adb589f90781bff3,,,,,,36,88,1,0,0,response1disk,1.0206,8,3,1,0,0,rectangle,8,3,1,0,0,-4,-3,"[4,33,14,141,129,30,20,63,91,72]",8,3,1,0,0,1,51,132,24,1,DarkGreen,DarkGreen.jpg,DarkGreen,DarkGreen.jpg,,
,,,,,,,,,,,,,,,,,,-4,,,,,,,,,,,,,,,,,,,,,,,,,,,,001,2021-12-16_23h05.32.264,jm_natural_scene_simialrity_2-12-2021_version2,2021.2.3,Win32,50.14290729,5f6bc9d6b572cb13770b5c45,61bbc5c79a1c66460f44041e,61bbc5e9adb589f90781bff3,,,,,,-37,88,1,0,0,response7disk,1.1596,-13,-12,1,0,0,rectangle,-13,-12,1,0,0,-4,-4,"[4,33,14,141,129,30,20,63,91,72]",-13,-12,1,0,0,1,52,133,79,1,Purple,Purple.jpg,DarkBlue,DarkBlue.jpg,,
,,,,,,,,,,,,,,,,,,-4,,,,,,,,,,,,,,,,,,,,,,,,,,,,001,2021-12-16_23h05.32.264,jm_natural_scene_simialrity_2-12-2021_version2,2021.2.3,Win32,50.14290729,5f6bc9d6b572cb13770b5c45,61bbc5c79a1c66460f44041e,61bbc5e9adb589f90781bff3,,,,,,-43,71,1,0,0,response7disk,0.7806,-10,-16,1,0,0,rectangle,-10,-16,1,0,0,-4,3,"[4,33,14,141,129,30,20,63,91,72]",-10,-16,1,0,0,1,53,134,54,1,DarkGreen,DarkGreen.jpg,Yellow,Yellow.jpg,,
,,,,,,,,,,,,,,,,,,-4,,,,,,,,,,,,,,,,,,,,,,,,,,,,001,2021-12-16_23h05.32.264,jm_natural_scene_simialrity_2-12-2021_version2,2021.2.3,Win32,50.14290729,5f6bc9d6b572cb13770b5c45,61bbc5c79a1c66460f44041e,61bbc5e9adb589f90781bff3,,,,,,-38,79,1,0,0,response7disk,0.8396,3,5,1,0,0,rectangle,3,5,1,0,0,-4,-3,"[4,33,14,141,129,30,20,63,91,72]",3,5,1,0,0,1,54,135,3,1,Red,Red.jpg,DarkGreen,DarkGreen.jpg,,
,,,,,,,,,,,,,,,,,,-4,,,,,,,,,,,,,,,,,,,,,,,,,,,,001,2021-12-16_23h05.32.264,jm_natural_scene_simialrity_2-12-2021_version2,2021.2.3,Win32,50.14290729,5f6bc9d6b572cb13770b5c45,61bbc5c79a1c66460f44041e,61bbc5e9adb589f90781bff3,,,,,,-25,71,1,0,0,response7disk,0.6596,-2,-6,1,0,0,rectangle,-2,-6,1,0,0,-4,2,"[4,33,14,141,129,30,20,63,91,72]",-2,-6,1,0,0,1,55,136,73,1,Pink,Pink.jpg,Turquiose,Turquiose.jpg,,
,,,,,,,,,,,,,,,,,,-4,,,,,,,,,,,,,,,,,,,,,,,,,,,,001,2021-12-16_23h05.32.264,jm_natural_scene_simialrity_2-12-2021_version2,2021.2.3,Win32,50.14290729,5f6bc9d6b572cb13770b5c45,61bbc5c79a1c66460f44041e,61bbc5e9adb589f90781bff3,,,,,,-28,58,1,0,0,response7disk,1.06,-19,8,1,0,0,rectangle,-19,8,1,0,0,-4,2,"[4,33,14,141,129,30,20,63,91,72]",-19,8,1,0,0,1,56,137,29,1,DarkGreen,DarkGreen.jpg,Purple,Purple.jpg,,
,,,,,,,,,,,,,,,,,,-4,,,,,,,,,,,,,,,,,,,,,,,,,,,,001,2021-12-16_23h05.32.264,jm_natural_scene_simialrity_2-12-2021_version2,2021.2.3,Win32,50.14290729,5f6bc9d6b572cb13770b5c45,61bbc5c79a1c66460f44041e,61bbc5e9adb589f90781bff3,,,,,,-38,66,1,0,0,response7disk,0.7204,-15,-3,1,0,0,rectangle,-15,-3,1,0,0,-4,1,"[4,33,14,141,129,30,20,63,91,72]",-15,-3,1,0,0,1,57,138,69,1,Pink,Pink.jpg,DarkGreen,DarkGreen.jpg,,
,,,,,,,,,,,,,,,,,,4,,,,,,,,,,,,,,,,,,,,,,,,,,,,001,2021-12-16_23h05.32.264,jm_natural_scene_simialrity_2-12-2021_version2,2021.2.3,Win32,50.14290729,5f6bc9d6b572cb13770b5c45,61bbc5c79a1c66460f44041e,61bbc5e9adb589f90781bff3,,,,,,45,62,1,0,0,response1disk,0.8996,15,-14,1,0,0,rectangle,15,-14,1,0,0,-4,-1,"[4,33,14,141,129,30,20,63,91,72]",15,-14,1,0,0,1,58,139,17,1,LightGreen,LightGreen.jpg,LightGreen,LightGreen.jpg,,
,,,,,,,,,,,,,,,,,,-4,,,,,,,,,,,,,,,,,,,,,,,,,,,,001,2021-12-16_23h05.32.264,jm_natural_scene_simialrity_2-12-2021_version2,2021.2.3,Win32,50.14290729,5f6bc9d6b572cb13770b5c45,61bbc5c79a1c66460f44041e,61bbc5e9adb589f90781bff3,,,,,,-39,73,1,0,0,response7disk,2.7792,-14,12,1,0,0,rectangle,-72,42,1,0,0,-3,-3,"[4,33,14,141,129,30,20,63,91,72]",-11,-17,1,0,0,1,59,140,59,1,Purple,Purple.jpg,Yellow,Yellow.jpg,response7disk_3,rectangle
,,,,,,,,,,,,,,,,,,-3,,,,,,,,,,,,,,,,,,,,,,,,,,,,001,2021-12-16_23h05.32.264,jm_natural_scene_simialrity_2-12-2021_version2,2021.2.3,Win32,50.14290729,5f6bc9d6b572cb13770b5c45,61bbc5c79a1c66460f44041e,61bbc5e9adb589f90781bff3,,,,,,-79,38,1,0,0,response7disk,1.9591,-5,-11,1,0,0,rectangle,-5,-11,1,0,0,-3,1,"[4,33,14,141,129,30,20,63,91,72]",-5,-11,1,0,0,1,60,141,65,1,Purple,Purple.jpg,LightGreen,LightGreen.jpg,,
,,,,,,,,,,,,,,,,,,-4,,,,,,,,,,,,,,,,,,,,,,,,,,,,001,2021-12-16_23h05.32.264,jm_natural_scene_simialrity_2-12-2021_version2,2021.2.3,Win32,50.14290729,5f6bc9d6b572cb13770b5c45,61bbc5c79a1c66460f44041e,61bbc5e9adb589f90781bff3,,,,,,-29,86,1,0,0,response7disk,0.7396,15,-3,1,0,0,rectangle,15,-3,1,0,0,-3,-2,"[4,33,14,141,129,30,20,63,91,72]",15,-3,1,0,0,1,61,142,48,1,Turquiose,Turquiose.jpg,Red,Red.jpg,,
,,,,,,,,,,,,,,,,,,-3,,,,,,,,,,,,,,,,,,,,,,,,,,,,001,2021-12-16_23h05.32.264,jm_natural_scene_simialrity_2-12-2021_version2,2021.2.3,Win32,50.14290729,5f6bc9d6b572cb13770b5c45,61bbc5c79a1c66460f44041e,61bbc5e9adb589f90781bff3,,,,,,-83,29,1,0,0,response7disk,2.4996,0,-11,1,0,0,rectangle,0,-11,1,0,0,-3,1,"[4,33,14,141,129,30,20,63,91,72]",0,-11,1,0,0,1,62,143,71,1,LightBlue,LightBlue.jpg,Turquiose,Turquiose.jpg,,
,,,,,,,,,,,,,,,,,,1,,,,,,,,,,,,,,,,,,,,,,,,,,,,001,2021-12-16_23h05.32.264,jm_natural_scene_simialrity_2-12-2021_version2,2021.2.3,Win32,50.14290729,5f6bc9d6b572cb13770b5c45,61bbc5c79a1c66460f44041e,61bbc5e9adb589f90781bff3,,,,,,41,-111,1,0,0,response3disk,3.2996,-9,7,1,0,0,rectangle,-9,7,1,0,0,-3,-2,"[4,33,14,141,129,30,20,63,91,72]",-9,7,1,0,0,1,63,144,72,1,DarkBlue,DarkBlue.jpg,Turquiose,Turquiose.jpg,,
,,,,,,,,,,,,,,,,,,-4,,,,,,,,,,,,,,,,,,,,,,,,,,,,001,2021-12-16_23h05.32.264,jm_natural_scene_simialrity_2-12-2021_version2,2021.2.3,Win32,50.14290729,5f6bc9d6b572cb13770b5c45,61bbc5c79a1c66460f44041e,61bbc5e9adb589f90781bff3,,,,,,-27,74,1,0,0,response7disk,0.7996,8,-20,1,0,0,rectangle,8,-20,1,0,0,-3,-3,"[4,33,14,141,129,30,20,63,91,72]",8,-20,1,0,0,1,64,145,11,1,Yellow,Yellow.jpg,DarkGreen,DarkGreen.jpg,,
,,,,,,,,,,,,,,,,,,-4,,,,,,,,,,,,,,,,,,,,,,,,,,,,001,2021-12-16_23h05.32.264,jm_natural_scene_simialrity_2-12-2021_version2,2021.2.3,Win32,50.14290729,5f6bc9d6b572cb13770b5c45,61bbc5c79a1c66460f44041e,61bbc5e9adb589f90781bff3,,,,,,-47,70,1,0,0,response7disk,1.2601,-19,21,1,0,0,rectangle,-19,21,1,0,0,-4,1,"[4,33,14,141,129,30,20,63,91,72]",-19,21,1,0,0,1,65,146,6,1,Red,Red.jpg,DarkBlue,DarkBlue.jpg,,
,,,,,,,,,,,,,,,,,,-4,,,,,,,,,,,,,,,,,,,,,,,,,,,,001,2021-12-16_23h05.32.264,jm_natural_scene_simialrity_2-12-2021_version2,2021.2.3,Win32,50.14290729,5f6bc9d6b572cb13770b5c45,61bbc5c79a1c66460f44041e,61bbc5e9adb589f90781bff3,,,,,,-29,87,1,0,0,response7disk,1.7191,-13,18,1,0,0,rectangle,-13,18,1,0,0,-4,-2,"[4,33,14,141,129,30,20,63,91,72]",-13,18,1,0,0,1,66,147,33,1,Turquiose,Turquiose.jpg,Pink,Pink.jpg,,
,,,,,,,,,,,,,,,,,,-3,,,,,,,,,,,,,,,,,,,,,,,,,,,,001,2021-12-16_23h05.32.264,jm_natural_scene_simialrity_2-12-2021_version2,2021.2.3,Win32,50.14290729,5f6bc9d6b572cb13770b5c45,61bbc5c79a1c66460f44041e,61bbc5e9adb589f90781bff3,,,,,,-75,39,1,0,0,response7disk,2.1402,-5,8,1,0,0,rectangle,-5,8,1,0,0,-4,-3,"[4,33,14,141,129,30,20,63,91,72]",-5,8,1,0,0,1,67,148,77,1,Purple,Purple.jpg,LightBlue,LightBlue.jpg,,
,,,,,,,,,,,,,,,,,,4,,,,,,,,,,,,,,,,,,,,,,,,,,,,001,2021-12-16_23h05.32.264,jm_natural_scene_simialrity_2-12-2021_version2,2021.2.3,Win32,50.14290729,5f6bc9d6b572cb13770b5c45,61bbc5c79a1c66460f44041e,61bbc5e9adb589f90781bff3,,,,,,20,82,1,0,0,response1disk,0.8805,-3,-12,1,0,0,rectangle,-3,-12,1,0,0,-4,-1,"[4,33,14,141,129,30,20,63,91,72]",-3,-12,1,0,0,1,68,149,0,1,Red,Red.jpg,Red,Red.jpg,,
,,,,,,,,,,,,,,,,,,-4,,,,,,,,,,,,,,,,,,,,,,,,,,,,001,2021-12-16_23h05.32.264,jm_natural_scene_simialrity_2-12-2021_version2,2021.2.3,Win32,50.14290729,5f6bc9d6b572cb13770b5c45,61bbc5c79a1c66460f44041e,61bbc5e9adb589f90781bff3,,,,,,-34,76,1,0,0,response7disk,0.7796,6,-10,1,0,0,rectangle,6,-10,1,0,0,-4,1,"[4,33,14,141,129,30,20,63,91,72]",6,-10,1,0,0,1,69,150,50,1,DarkBlue,DarkBlue.jpg,Red,Red.jpg,,
,,,,,,,,,,,,,,,,,,-2,,,,,,,,,,,,,,,,,,,,,,,,,,,,001,2021-12-16_23h05.32.264,jm_natural_scene_simialrity_2-12-2021_version2,2021.2.3,Win32,50.14290729,5f6bc9d6b572cb13770b5c45,61bbc5c79a1c66460f44041e,61bbc5e9adb589f90781bff3,,,,,,-62,-34,1,0,0,response5disk,3.8396,-7,-20,1,0,0,rectangle,-7,-20,1,0,0,-4,-2,"[4,33,14,141,129,30,20,63,91,72]",-7,-20,1,0,0,1,70,151,52,1,Purple,Purple.jpg,Red,Red.jpg,,
,,,,,,,,,,,,,,,,,,-4,,,,,,,,,,,,,,,,,,,,,,,,,,,,001,2021-12-16_23h05.32.264,jm_natural_scene_simialrity_2-12-2021_version2,2021.2.3,Win32,50.14290729,5f6bc9d6b572cb13770b5c45,61bbc5c79a1c66460f44041e,61bbc5e9adb589f90781bff3,,,,,,-17,84,1,0,0,response7disk,1.1399,-18,10,1,0,0,rectangle,-18,10,1,0,0,-4,-1,"[4,33,14,141,129,30,20,63,91,72]",-18,10,1,0,0,1,71,152,40,1,DarkBlue,DarkBlue.jpg,Pink,Pink.jpg,,
,,,,,,,,,,,,,,,,,,2,,,,,,,,,,,,,,,,,,,,,,,,,,,,001,2021-12-16_23h05.32.264,jm_natural_scene_simialrity_2-12-2021_version2,2021.2.3,Win32,50.14290729,5f6bc9d6b572cb13770b5c45,61bbc5c79a1c66460f44041e,61bbc5e9adb589f90781bff3,,,,,,93,-41,1,0,0,response3disk,2.2001,11,-2,1,0,0,rectangle,11,-2,1,0,0,-4,3,"[4,33,14,141,129,30,20,63,91,72]",11,-2,1,0,0,1,72,153,61,1,Turquiose,Turquiose.jpg,LightGreen,LightGreen.jpg,,
,,,,,,,,,,,,,,,,,,-2,,,,,,,,,,,,,,,,,,,,,,,,,,,,001,2021-12-16_23h05.32.264,jm_natural_scene_simialrity_2-12-2021_version2,2021.2.3,Win32,50.14290729,5f6bc9d6b572cb13770b5c45,61bbc5c79a1c66460f44041e,61bbc5e9adb589f90781bff3,,,,,,-68,-49,1,0,0,response5disk,2.8396,0,-9,1,0,0,rectangle,0,-9,1,0,0,-4,-4,"[4,33,14,141,129,30,20,63,91,72]",0,-9,1,0,0,1,73,154,62,1,LightBlue,LightBlue.jpg,LightGreen,LightGreen.jpg,,
,,,,,,,,,,,,,,,,,,1,,,,,,,,,,,,,,,,,,,,,,,,,,,,001,2021-12-16_23h05.32.264,jm_natural_scene_simialrity_2-12-2021_version2,2021.2.3,Win32,50.14290729,5f6bc9d6b572cb13770b5c45,61bbc5c79a1c66460f44041e,61bbc5e9adb589f90781bff3,,,,,,32,-88,1,0,0,response3disk,2.6795,4,12,1,0,0,rectangle,4,12,1,0,0,-4,-2,"[4,33,14,141,129,30,20,63,91,72]",4,12,1,0,0,1,74,155,63,1,DarkBlue,DarkBlue.jpg,LightGreen,LightGreen.jpg,,
,,,,,,,,,,,,,,,,,,-2,,,,,,,,,,,,,,,,,,,,,,,,,,,,001,2021-12-16_23h05.32.264,jm_natural_scene_simialrity_2-12-2021_version2,2021.2.3,Win32,50.14290729,5f6bc9d6b572cb13770b5c45,61bbc5c79a1c66460f44041e,61bbc5e9adb589f90781bff3,,,,,,-93,-41,1,0,0,response5disk,1.6396,-9,-20,1,0,0,rectangle,-9,-20,1,0,0,-4,-1,"[4,33,14,141,129,30,20,63,91,72]",-9,-20,1,0,0,1,75,156,8,1,Red,Red.jpg,Purple,Purple.jpg,,
,,,,,,,,,,,,,,,,,,-4,,,,,,,,,,,,,,,,,,,,,,,,,,,,001,2021-12-16_23h05.32.264,jm_natural_scene_simialrity_2-12-2021_version2,2021.2.3,Win32,50.14290729,5f6bc9d6b572cb13770b5c45,61bbc5c79a1c66460f44041e,61bbc5e9adb589f90781bff3,,,,,,-57,85,1,0,0,response7disk,2.4194,-14,9,1,0,0,rectangle,-14,9,1,0,0,-4,-2,"[4,33,14,141,129,30,20,63,91,72]",-14,9,1,0,0,1,76,157,23,1,LightGreen,LightGreen.jpg,Purple,Purple.jpg,,
,,,,,,,,,,,,,,,,,,-4,,,,,,,,,,,,,,,,,,,,,,,,,,,,001,2021-12-16_23h05.32.264,jm_natural_scene_simialrity_2-12-2021_version2,2021.2.3,Win32,50.14290729,5f6bc9d6b572cb13770b5c45,61bbc5c79a1c66460f44041e,61bbc5e9adb589f90781bff3,,,,,,-37,76,1,0,0,response7disk,0.76,-4,16,1,0,0,rectangle,-4,16,1,0,0,-4,-4,"[4,33,14,141,129,30,20,63,91,72]",-4,16,1,0,0,1,77,158,75,1,DarkBlue,DarkBlue.jpg,LightBlue,LightBlue.jpg,,
,,,,,,,,,,,,,,,,,,4,,,,,,,,,,,,,,,,,,,,,,,,,,,,001,2021-12-16_23h05.32.264,jm_natural_scene_simialrity_2-12-2021_version2,2021.2.3,Win32,50.14290729,5f6bc9d6b572cb13770b5c45,61bbc5c79a1c66460f44041e,61bbc5e9adb589f90781bff3,,,,,,35,74,1,0,0,response1disk,1.1196,16,13,1,0,0,rectangle,16,13,1,0,0,-4,3,"[4,33,14,141,129,30,20,63,91,72]",16,13,1,0,0,1,78,159,60,1,DarkGreen,DarkGreen.jpg,LightGreen,LightGreen.jpg,,
,,,,,,,,,,,,,,,,,,4,,,,,,,,,,,,,,,,,,,,,,,,,,,,001,2021-12-16_23h05.32.264,jm_natural_scene_simialrity_2-12-2021_version2,2021.2.3,Win32,50.14290729,5f6bc9d6b572cb13770b5c45,61bbc5c79a1c66460f44041e,61bbc5e9adb589f90781bff3,,,,,,50,82,1,0,0,response1disk,0.84,10,15,1,0,0,rectangle,10,15,1,0,0,-4,3,"[4,33,14,141,129,30,20,63,91,72]",10,15,1,0,0,1,79,160,7,1,Red,Red.jpg,Pink,Pink.jpg,,
,,,,,,,,,,,,,,,,,,-3,,,,,,,,,,,,,,,,,,,,,,,,,,,,001,2021-12-16_23h05.32.264,jm_natural_scene_simialrity_2-12-2021_version2,2021.2.3,Win32,50.14290729,5f6bc9d6b572cb13770b5c45,61bbc5c79a1c66460f44041e,61bbc5e9adb589f90781bff3,,,,,,-61,44,1,0,0,response7disk,2.2195,6,18,1,0,0,rectangle,6,18,1,0,0,-4,-3,"[4,33,14,141,129,30,20,63,91,72]",6,18,1,0,0,1,80,161,16,1,Yellow,Yellow.jpg,Purple,Purple.jpg,,
