key_resp.keys,key_resp.rt,key_resp_16.keys,key_resp_16.rt,key_resp_2.keys,key_resp_2.rt,key_resp_3.keys,key_resp_3.rt,key_resp_19.keys,key_resp_19.rt,key_resp_10.keys,key_resp_10.rt,mouse_prac.x,mouse_prac.y,mouse_prac.leftButton,mouse_prac.midButton,mouse_prac.rightButton,mouse_prac.clicked_name,similarity,mouse_10.x,mouse_10.y,mouse_10.leftButton,mouse_10.midButton,mouse_10.rightButton,mouse_10.clicked_name,mouse_catch_prac.x,mouse_catch_prac.y,mouse_catch_prac.leftButton,mouse_catch_prac.midButton,mouse_catch_prac.rightButton,catchnumberprac,mouse_6.x,mouse_6.y,mouse_6.leftButton,mouse_6.midButton,mouse_6.rightButton,during_prac.thisRepN,during_prac.thisTrialN,during_prac.thisN,during_prac.thisIndex,during_prac.ran,trailimage1,trial1adress,trailimage2,trial2adress,participant,session,date,expName,psychopyVersion,OS,frameRate,PROLIFIC_PID,STUDY_ID,SESSION_ID,mouse_catch_prac.clicked_name,catchprac,mouse_6.clicked_name,key_resp_22.keys,key_resp_22.rt,mouse.x,mouse.y,mouse.leftButton,mouse.midButton,mouse.rightButton,mouse.clicked_name,response_time,mouse_2.x,mouse_2.y,mouse_2.leftButton,mouse_2.midButton,mouse_2.rightButton,mouse_2.clicked_name,mouse_3.x,mouse_3.y,mouse_3.leftButton,mouse_3.midButton,mouse_3.rightButton,catchresponse,catchnumber,catchtrialorder,mouse_11.x,mouse_11.y,mouse_11.leftButton,mouse_11.midButton,mouse_11.rightButton,trials_2.thisRepN,trials_2.thisTrialN,trials_2.thisN,trials_2.thisIndex,trials_2.ran,image1,image1adress,image2,image2adress,mouse_3.clicked_name,mouse_11.clicked_name
space,1.2153,space,0.9119,space,1.8835,space,4.1959,space,8.5648,space,2.8193,55.1328125,-112.4765625,1,0,0,response3disk_5,1,-4.578125,9.83203125,1,0,0,rectangle_8,-4.578125,9.83203125,1,0,0,3,-4.578125,9.83203125,1,0,0,0,0,0,5,1,trail3,trail3.jpg,trail3,trail3.jpg,,001,2021-12-16_17h18.31.216,jm_natural_scene_simialrity_2-12-2021_version2,2021.2.3,MacIntel,60.14675809,613d4999d6cec3e6772576d0,61bbc5c79a1c66460f44041e,61bbc60ce7ec0f522d4d0667,,,,,,,,,,,,,,,,,,,,,,,,,,,,,,,,,,,,,,,,,,
,,,,,,,,,,,,92.6328125,-49.87109375,1,0,0,response3disk_5,2,5.19140625,15.18359375,1,0,0,rectangle_8,5.19140625,15.18359375,1,0,0,3,5.19140625,15.18359375,1,0,0,0,1,1,0,1,trail1,trail1.jpg,trail1,trail1.jpg,,001,2021-12-16_17h18.31.216,jm_natural_scene_simialrity_2-12-2021_version2,2021.2.3,MacIntel,60.14675809,613d4999d6cec3e6772576d0,61bbc5c79a1c66460f44041e,61bbc60ce7ec0f522d4d0667,,,,,,,,,,,,,,,,,,,,,,,,,,,,,,,,,,,,,,,,,,
,,,,,,,,,,,,-50.5,78.671875,1,0,0,response7disk_5,-4,-6.11328125,-14.14453125,1,0,0,rectangle_8,122.9882813,63.890625,1,0,0,3,3.93359375,-10.4921875,1,0,0,0,2,2,4,1,trail2,trail2.jpg,trail3,trail3.jpg,,001,2021-12-16_17h18.31.216,jm_natural_scene_simialrity_2-12-2021_version2,2021.2.3,MacIntel,60.14675809,613d4999d6cec3e6772576d0,61bbc5c79a1c66460f44041e,61bbc60ce7ec0f522d4d0667,response1disk_7,3,rectangle_4,,,,,,,,,,,,,,,,,,,,,,,,,,,,,,,,,,,,,,,
,,,,,,,,,,,,-80.3671875,41.78515625,1,0,0,response7disk_5,-3,-3.8125,2.22265625,1,0,0,rectangle_8,93.73046875,44.53515625,1,0,0,3,-2.55859375,-12.42578125,1,0,0,0,3,3,1,1,trail1,trail1.jpg,trail2,trail2.jpg,,001,2021-12-16_17h18.31.216,jm_natural_scene_simialrity_2-12-2021_version2,2021.2.3,MacIntel,60.14675809,613d4999d6cec3e6772576d0,61bbc5c79a1c66460f44041e,61bbc60ce7ec0f522d4d0667,response1disk_7,3,rectangle_4,,,,,,,,,,,,,,,,,,,,,,,,,,,,,,,,,,,,,,,
,,,,,,,,,,,,-27.81640625,-101.984375,1,0,0,response5disk_5,-1,-9.70703125,1.21484375,1,0,0,rectangle_8,-9.70703125,1.21484375,1,0,0,3,-9.70703125,1.21484375,1,0,0,0,4,4,2,1,trail1,trail1.jpg,trail3,trail3.jpg,,001,2021-12-16_17h18.31.216,jm_natural_scene_simialrity_2-12-2021_version2,2021.2.3,MacIntel,60.14675809,613d4999d6cec3e6772576d0,61bbc5c79a1c66460f44041e,61bbc60ce7ec0f522d4d0667,,,,,,,,,,,,,,,,,,,,,,,,,,,,,,,,,,,,,,,,,,
,,,,,,,,,,,,44.4765625,97.83984375,1,0,0,response1disk_5,4,7.62890625,9.67578125,1,0,0,rectangle_8,7.62890625,9.67578125,1,0,0,3,7.62890625,9.67578125,1,0,0,0,5,5,3,1,trail2,trail2.jpg,trail2,trail2.jpg,,001,2021-12-16_17h18.31.216,jm_natural_scene_simialrity_2-12-2021_version2,2021.2.3,MacIntel,60.14675809,613d4999d6cec3e6772576d0,61bbc5c79a1c66460f44041e,61bbc60ce7ec0f522d4d0667,,,,,,,,,,,,,,,,,,,,,,,,,,,,,,,,,,,,,,,,,,
,,,,,,,,,,,,,,,,,,3,,,,,,,,,,,,,,,,,,,,,,,,,,,,001,2021-12-16_17h18.31.216,jm_natural_scene_simialrity_2-12-2021_version2,2021.2.3,MacIntel,60.14675809,613d4999d6cec3e6772576d0,61bbc5c79a1c66460f44041e,61bbc60ce7ec0f522d4d0667,,,,space,10.8533,113.6484375,32.78125,1,0,0,response1disk,1.8295,9.51953125,11.5703125,1,0,0,rectangle,9.51953125,11.5703125,1,0,0,,-1,"[152,13,129,112,42,130,74,102,138,119]",9.51953125,11.5703125,1,0,0,0,0,0,61,1,Turquiose,Turquiose.jpg,LightGreen,LightGreen.jpg,,
,,,,,,,,,,,,,,,,,,-4,,,,,,,,,,,,,,,,,,,,,,,,,,,,001,2021-12-16_17h18.31.216,jm_natural_scene_simialrity_2-12-2021_version2,2021.2.3,MacIntel,60.14675809,613d4999d6cec3e6772576d0,61bbc5c79a1c66460f44041e,61bbc60ce7ec0f522d4d0667,,,,,,-60.41796875,95.75,1,0,0,response7disk,2.8557,8.8671875,-1.2734375,1,0,0,rectangle,8.8671875,-1.2734375,1,0,0,,1,"[152,13,129,112,42,130,74,102,138,119]",8.8671875,-1.2734375,1,0,0,0,1,1,54,1,DarkGreen,DarkGreen.jpg,Yellow,Yellow.jpg,,
,,,,,,,,,,,,,,,,,,-4,,,,,,,,,,,,,,,,,,,,,,,,,,,,001,2021-12-16_17h18.31.216,jm_natural_scene_simialrity_2-12-2021_version2,2021.2.3,MacIntel,60.14675809,613d4999d6cec3e6772576d0,61bbc5c79a1c66460f44041e,61bbc60ce7ec0f522d4d0667,,,,,,-51.0390625,90.11328125,1,0,0,response7disk,2.3776,6.7890625,-8.1015625,1,0,0,rectangle,6.7890625,-8.1015625,1,0,0,,-1,"[152,13,129,112,42,130,74,102,138,119]",6.7890625,-8.1015625,1,0,0,0,2,2,16,1,Yellow,Yellow.jpg,Purple,Purple.jpg,,
,,,,,,,,,,,,,,,,,,-1,,,,,,,,,,,,,,,,,,,,,,,,,,,,001,2021-12-16_17h18.31.216,jm_natural_scene_simialrity_2-12-2021_version2,2021.2.3,MacIntel,60.14675809,613d4999d6cec3e6772576d0,61bbc5c79a1c66460f44041e,61bbc60ce7ec0f522d4d0667,,,,,,-30.953125,-104.3242188,1,0,0,response5disk,2.2613,16.03125,0.52734375,1,0,0,rectangle,16.03125,0.52734375,1,0,0,,-4,"[152,13,129,112,42,130,74,102,138,119]",16.03125,0.52734375,1,0,0,0,3,3,77,1,Purple,Purple.jpg,LightBlue,LightBlue.jpg,,
,,,,,,,,,,,,,,,,,,-1,,,,,,,,,,,,,,,,,,,,,,,,,,,,001,2021-12-16_17h18.31.216,jm_natural_scene_simialrity_2-12-2021_version2,2021.2.3,MacIntel,60.14675809,613d4999d6cec3e6772576d0,61bbc5c79a1c66460f44041e,61bbc60ce7ec0f522d4d0667,,,,,,-35.98046875,-104.140625,1,0,0,response5disk,2.5267,-9.3984375,-10.046875,1,0,0,rectangle,-9.3984375,-10.046875,1,0,0,,-3,"[152,13,129,112,42,130,74,102,138,119]",-9.3984375,-10.046875,1,0,0,0,4,4,26,1,DarkGreen,DarkGreen.jpg,LightBlue,LightBlue.jpg,,
,,,,,,,,,,,,,,,,,,-4,,,,,,,,,,,,,,,,,,,,,,,,,,,,001,2021-12-16_17h18.31.216,jm_natural_scene_simialrity_2-12-2021_version2,2021.2.3,MacIntel,60.14675809,613d4999d6cec3e6772576d0,61bbc5c79a1c66460f44041e,61bbc60ce7ec0f522d4d0667,,,,,,-50.90234375,74.28125,1,0,0,response7disk,2.7255,4.328125,0.33203125,1,0,0,rectangle,4.328125,0.33203125,1,0,0,,2,"[152,13,129,112,42,130,74,102,138,119]",4.328125,0.33203125,1,0,0,0,5,5,69,1,Pink,Pink.jpg,DarkGreen,DarkGreen.jpg,,
,,,,,,,,,,,,,,,,,,-4,,,,,,,,,,,,,,,,,,,,,,,,,,,,001,2021-12-16_17h18.31.216,jm_natural_scene_simialrity_2-12-2021_version2,2021.2.3,MacIntel,60.14675809,613d4999d6cec3e6772576d0,61bbc5c79a1c66460f44041e,61bbc60ce7ec0f522d4d0667,,,,,,-44.015625,118.5898438,1,0,0,response7disk,1.8454,9.12890625,-12.94140625,1,0,0,rectangle,9.12890625,-12.94140625,1,0,0,,-3,"[152,13,129,112,42,130,74,102,138,119]",9.12890625,-12.94140625,1,0,0,0,6,6,5,1,Red,Red.jpg,LightBlue,LightBlue.jpg,,
,,,,,,,,,,,,,,,,,,1,,,,,,,,,,,,,,,,,,,,,,,,,,,,001,2021-12-16_17h18.31.216,jm_natural_scene_simialrity_2-12-2021_version2,2021.2.3,MacIntel,60.14675809,613d4999d6cec3e6772576d0,61bbc5c79a1c66460f44041e,61bbc60ce7ec0f522d4d0667,,,,,,56.71484375,-86.421875,1,0,0,response3disk,4.7896,-3.39453125,6.56640625,1,0,0,rectangle,-3.39453125,6.56640625,1,0,0,,1,"[152,13,129,112,42,130,74,102,138,119]",-3.39453125,6.56640625,1,0,0,0,7,7,43,1,Pink,Pink.jpg,Purple,Purple.jpg,,
,,,,,,,,,,,,,,,,,,4,,,,,,,,,,,,,,,,,,,,,,,,,,,,001,2021-12-16_17h18.31.216,jm_natural_scene_simialrity_2-12-2021_version2,2021.2.3,MacIntel,60.14675809,613d4999d6cec3e6772576d0,61bbc5c79a1c66460f44041e,61bbc60ce7ec0f522d4d0667,,,,,,47.22265625,88.1171875,1,0,0,response1disk,1.097,-3.08203125,-4.890625,1,0,0,rectangle,-3.08203125,-4.890625,1,0,0,,1,"[152,13,129,112,42,130,74,102,138,119]",-3.08203125,-4.890625,1,0,0,0,8,8,0,1,Red,Red.jpg,Red,Red.jpg,,
,,,,,,,,,,,,,,,,,,-2,,,,,,,,,,,,,,,,,,,,,,,,,,,,001,2021-12-16_17h18.31.216,jm_natural_scene_simialrity_2-12-2021_version2,2021.2.3,MacIntel,60.14675809,613d4999d6cec3e6772576d0,61bbc5c79a1c66460f44041e,61bbc60ce7ec0f522d4d0667,,,,,,-57.22265625,-39.84375,1,0,0,response5disk,2.0443,2.2734375,2.23046875,1,0,0,rectangle,2.2734375,2.23046875,1,0,0,,2,"[152,13,129,112,42,130,74,102,138,119]",2.2734375,2.23046875,1,0,0,0,9,9,28,1,DarkGreen,DarkGreen.jpg,Pink,Pink.jpg,,
,,,,,,,,,,,,,,,,,,-3,,,,,,,,,,,,,,,,,,,,,,,,,,,,001,2021-12-16_17h18.31.216,jm_natural_scene_simialrity_2-12-2021_version2,2021.2.3,MacIntel,60.14675809,613d4999d6cec3e6772576d0,61bbc5c79a1c66460f44041e,61bbc60ce7ec0f522d4d0667,,,,,,-89.62109375,30.69921875,1,0,0,response7disk,2.3777,9.1328125,-18.890625,1,0,0,rectangle,9.1328125,-18.890625,1,0,0,,-1,"[152,13,129,112,42,130,74,102,138,119]",9.1328125,-18.890625,1,0,0,0,10,10,32,1,Turquiose,Turquiose.jpg,DarkBlue,DarkBlue.jpg,,
,,,,,,,,,,,,,,,,,,-4,,,,,,,,,,,,,,,,,,,,,,,,,,,,001,2021-12-16_17h18.31.216,jm_natural_scene_simialrity_2-12-2021_version2,2021.2.3,MacIntel,60.14675809,613d4999d6cec3e6772576d0,61bbc5c79a1c66460f44041e,61bbc60ce7ec0f522d4d0667,,,,,,-53.8671875,105.2578125,1,0,0,response7disk,1.8124,1.58984375,-10.5859375,1,0,0,rectangle,1.58984375,-10.5859375,1,0,0,,3,"[152,13,129,112,42,130,74,102,138,119]",1.58984375,-10.5859375,1,0,0,0,11,11,33,1,Turquiose,Turquiose.jpg,Pink,Pink.jpg,,
,,,,,,,,,,,,,,,,,,1,,,,,,,,,,,,,,,,,,,,,,,,,,,,001,2021-12-16_17h18.31.216,jm_natural_scene_simialrity_2-12-2021_version2,2021.2.3,MacIntel,60.14675809,613d4999d6cec3e6772576d0,61bbc5c79a1c66460f44041e,61bbc60ce7ec0f522d4d0667,,,,,,65.3984375,-76.39453125,1,0,0,response3disk,2.2603,11.2578125,-5.390625,1,0,0,rectangle,-104.2148438,-48.9375,1,0,0,,-2,"[152,13,129,112,42,130,74,102,138,119]",-0.41015625,5.71484375,1,0,0,0,12,12,52,1,Purple,Purple.jpg,Red,Red.jpg,response5disk_3,rectangle
,,,,,,,,,,,,,,,,,,2,,,,,,,,,,,,,,,,,,,,,,,,,,,,001,2021-12-16_17h18.31.216,jm_natural_scene_simialrity_2-12-2021_version2,2021.2.3,MacIntel,60.14675809,613d4999d6cec3e6772576d0,61bbc5c79a1c66460f44041e,61bbc60ce7ec0f522d4d0667,,,,,,112.6875,-33.34765625,1,0,0,response3disk,2.0125,-6.4921875,-4.4375,1,0,0,rectangle,-6.4921875,-4.4375,1,0,0,,-4,"[152,13,129,112,42,130,74,102,138,119]",-6.4921875,-4.4375,1,0,0,0,13,13,76,1,Pink,Pink.jpg,LightBlue,LightBlue.jpg,,
,,,,,,,,,,,,,,,,,,3,,,,,,,,,,,,,,,,,,,,,,,,,,,,001,2021-12-16_17h18.31.216,jm_natural_scene_simialrity_2-12-2021_version2,2021.2.3,MacIntel,60.14675809,613d4999d6cec3e6772576d0,61bbc5c79a1c66460f44041e,61bbc60ce7ec0f522d4d0667,,,,,,73.2265625,32.8125,1,0,0,response1disk,1.6459,-7.15625,2.76953125,1,0,0,rectangle,-7.15625,2.76953125,1,0,0,,-3,"[152,13,129,112,42,130,74,102,138,119]",-7.15625,2.76953125,1,0,0,0,14,14,71,1,LightBlue,LightBlue.jpg,Turquiose,Turquiose.jpg,,
,,,,,,,,,,,,,,,,,,-2,,,,,,,,,,,,,,,,,,,,,,,,,,,,001,2021-12-16_17h18.31.216,jm_natural_scene_simialrity_2-12-2021_version2,2021.2.3,MacIntel,60.14675809,613d4999d6cec3e6772576d0,61bbc5c79a1c66460f44041e,61bbc60ce7ec0f522d4d0667,,,,,,-63.4609375,-36.91015625,1,0,0,response5disk,2.395,-4.7734375,-16.29296875,1,0,0,rectangle,-4.7734375,-16.29296875,1,0,0,,1,"[152,13,129,112,42,130,74,102,138,119]",-4.7734375,-16.29296875,1,0,0,0,15,15,59,1,Purple,Purple.jpg,Yellow,Yellow.jpg,,
,,,,,,,,,,,,,,,,,,4,,,,,,,,,,,,,,,,,,,,,,,,,,,,001,2021-12-16_17h18.31.216,jm_natural_scene_simialrity_2-12-2021_version2,2021.2.3,MacIntel,60.14675809,613d4999d6cec3e6772576d0,61bbc5c79a1c66460f44041e,61bbc60ce7ec0f522d4d0667,,,,,,41.98046875,119.6914063,1,0,0,response1disk,1.447,-8.27734375,0.71875,1,0,0,rectangle,-8.27734375,0.71875,1,0,0,,-4,"[152,13,129,112,42,130,74,102,138,119]",-8.27734375,0.71875,1,0,0,0,16,16,24,1,DarkGreen,DarkGreen.jpg,DarkGreen,DarkGreen.jpg,,
,,,,,,,,,,,,,,,,,,2,,,,,,,,,,,,,,,,,,,,,,,,,,,,001,2021-12-16_17h18.31.216,jm_natural_scene_simialrity_2-12-2021_version2,2021.2.3,MacIntel,60.14675809,613d4999d6cec3e6772576d0,61bbc5c79a1c66460f44041e,61bbc60ce7ec0f522d4d0667,,,,,,111.0273438,-40.88671875,1,0,0,response3disk,2.8263,-0.6484375,1.3046875,1,0,0,rectangle,-0.6484375,1.3046875,1,0,0,,3,"[152,13,129,112,42,130,74,102,138,119]",-0.6484375,1.3046875,1,0,0,0,17,17,38,1,LightBlue,LightBlue.jpg,Purple,Purple.jpg,,
,,,,,,,,,,,,,,,,,,-3,,,,,,,,,,,,,,,,,,,,,,,,,,,,001,2021-12-16_17h18.31.216,jm_natural_scene_simialrity_2-12-2021_version2,2021.2.3,MacIntel,60.14675809,613d4999d6cec3e6772576d0,61bbc5c79a1c66460f44041e,61bbc60ce7ec0f522d4d0667,,,,,,-62.38671875,45.12890625,1,0,0,response7disk,2.461,2.2890625,-5.69921875,1,0,0,rectangle,2.2890625,-5.69921875,1,0,0,,-3,"[152,13,129,112,42,130,74,102,138,119]",2.2890625,-5.69921875,1,0,0,0,18,18,55,1,Turquiose,Turquiose.jpg,Yellow,Yellow.jpg,,
,,,,,,,,,,,,,,,,,,-3,,,,,,,,,,,,,,,,,,,,,,,,,,,,001,2021-12-16_17h18.31.216,jm_natural_scene_simialrity_2-12-2021_version2,2021.2.3,MacIntel,60.14675809,613d4999d6cec3e6772576d0,61bbc5c79a1c66460f44041e,61bbc60ce7ec0f522d4d0667,,,,,,-70.15625,31.53125,1,0,0,response7disk,2.1283,-4.2734375,-1.40625,1,0,0,rectangle,-4.2734375,-1.40625,1,0,0,,1,"[152,13,129,112,42,130,74,102,138,119]",-4.2734375,-1.40625,1,0,0,0,19,19,64,1,Pink,Pink.jpg,LightGreen,LightGreen.jpg,,
,,,,,,,,,,,,,,,,,,1,,,,,,,,,,,,,,,,,,,,,,,,,,,,001,2021-12-16_17h18.31.216,jm_natural_scene_simialrity_2-12-2021_version2,2021.2.3,MacIntel,60.14675809,613d4999d6cec3e6772576d0,61bbc5c79a1c66460f44041e,61bbc60ce7ec0f522d4d0667,,,,,,46.890625,-72.46875,1,0,0,response3disk,1.7784,-4.32421875,-2.21875,1,0,0,rectangle,-4.32421875,-2.21875,1,0,0,,1,"[152,13,129,112,42,130,74,102,138,119]",-4.32421875,-2.21875,1,0,0,0,20,20,8,1,Red,Red.jpg,Purple,Purple.jpg,,
,,,,,,,,,,,,,,,,,,2,,,,,,,,,,,,,,,,,,,,,,,,,,,,001,2021-12-16_17h18.31.216,jm_natural_scene_simialrity_2-12-2021_version2,2021.2.3,MacIntel,60.14675809,613d4999d6cec3e6772576d0,61bbc5c79a1c66460f44041e,61bbc60ce7ec0f522d4d0667,,,,,,71.99609375,-44.1875,1,0,0,response3disk,2.8936,8.72265625,-15.734375,1,0,0,rectangle,8.72265625,-15.734375,1,0,0,,-1,"[152,13,129,112,42,130,74,102,138,119]",8.72265625,-15.734375,1,0,0,0,21,21,36,1,LightBlue,LightBlue.jpg,DarkBlue,DarkBlue.jpg,,
,,,,,,,,,,,,,,,,,,3,,,,,,,,,,,,,,,,,,,,,,,,,,,,001,2021-12-16_17h18.31.216,jm_natural_scene_simialrity_2-12-2021_version2,2021.2.3,MacIntel,60.14675809,613d4999d6cec3e6772576d0,61bbc5c79a1c66460f44041e,61bbc60ce7ec0f522d4d0667,,,,,,81.34375,44.1015625,1,0,0,response1disk,1.3301,13.06640625,-24.5859375,1,0,0,rectangle,13.06640625,-24.5859375,1,0,0,,-4,"[152,13,129,112,42,130,74,102,138,119]",13.06640625,-24.5859375,1,0,0,0,22,22,60,1,DarkGreen,DarkGreen.jpg,LightGreen,LightGreen.jpg,,
,,,,,,,,,,,,,,,,,,-2,,,,,,,,,,,,,,,,,,,,,,,,,,,,001,2021-12-16_17h18.31.216,jm_natural_scene_simialrity_2-12-2021_version2,2021.2.3,MacIntel,60.14675809,613d4999d6cec3e6772576d0,61bbc5c79a1c66460f44041e,61bbc60ce7ec0f522d4d0667,,,,,,-70.32421875,-23.625,1,0,0,response5disk,1.5304,-15.03125,-0.98828125,1,0,0,rectangle,-15.03125,-0.98828125,1,0,0,,-3,"[152,13,129,112,42,130,74,102,138,119]",-15.03125,-0.98828125,1,0,0,0,23,23,29,1,DarkGreen,DarkGreen.jpg,Purple,Purple.jpg,,
,,,,,,,,,,,,,,,,,,2,,,,,,,,,,,,,,,,,,,,,,,,,,,,001,2021-12-16_17h18.31.216,jm_natural_scene_simialrity_2-12-2021_version2,2021.2.3,MacIntel,60.14675809,613d4999d6cec3e6772576d0,61bbc5c79a1c66460f44041e,61bbc60ce7ec0f522d4d0667,,,,,,81.36328125,-35.33203125,1,0,0,response3disk,1.7632,16.47265625,-10.96484375,1,0,0,rectangle,16.47265625,-10.96484375,1,0,0,,1,"[152,13,129,112,42,130,74,102,138,119]",16.47265625,-10.96484375,1,0,0,0,24,24,15,1,Yellow,Yellow.jpg,Pink,Pink.jpg,,
,,,,,,,,,,,,,,,,,,-2,,,,,,,,,,,,,,,,,,,,,,,,,,,,001,2021-12-16_17h18.31.216,jm_natural_scene_simialrity_2-12-2021_version2,2021.2.3,MacIntel,60.14675809,613d4999d6cec3e6772576d0,61bbc5c79a1c66460f44041e,61bbc60ce7ec0f522d4d0667,,,,,,-72.56640625,-58.6640625,1,0,0,response5disk,2.2787,8.3671875,-21.4921875,1,0,0,rectangle,8.3671875,-21.4921875,1,0,0,,3,"[152,13,129,112,42,130,74,102,138,119]",8.3671875,-21.4921875,1,0,0,0,25,25,74,1,Purple,Purple.jpg,Turquiose,Turquiose.jpg,,
,,,,,,,,,,,,,,,,,,4,,,,,,,,,,,,,,,,,,,,,,,,,,,,001,2021-12-16_17h18.31.216,jm_natural_scene_simialrity_2-12-2021_version2,2021.2.3,MacIntel,60.14675809,613d4999d6cec3e6772576d0,61bbc5c79a1c66460f44041e,61bbc60ce7ec0f522d4d0667,,,,,,50.90625,82.67578125,1,0,0,response1disk,1.0644,-3.96875,4.6796875,1,0,0,rectangle,-3.96875,4.6796875,1,0,0,,1,"[152,13,129,112,42,130,74,102,138,119]",-3.96875,4.6796875,1,0,0,0,26,26,44,1,Purple,Purple.jpg,Purple,Purple.jpg,,
,,,,,,,,,,,,,,,,,,1,,,,,,,,,,,,,,,,,,,,,,,,,,,,001,2021-12-16_17h18.31.216,jm_natural_scene_simialrity_2-12-2021_version2,2021.2.3,MacIntel,60.14675809,613d4999d6cec3e6772576d0,61bbc5c79a1c66460f44041e,61bbc60ce7ec0f522d4d0667,,,,,,37.42578125,-79.69140625,1,0,0,response3disk,1.8123,-0.4765625,-10.17578125,1,0,0,rectangle,-0.4765625,-10.17578125,1,0,0,,-2,"[152,13,129,112,42,130,74,102,138,119]",-0.4765625,-10.17578125,1,0,0,0,27,27,37,1,LightBlue,LightBlue.jpg,Pink,Pink.jpg,,
,,,,,,,,,,,,,,,,,,2,,,,,,,,,,,,,,,,,,,,,,,,,,,,001,2021-12-16_17h18.31.216,jm_natural_scene_simialrity_2-12-2021_version2,2021.2.3,MacIntel,60.14675809,613d4999d6cec3e6772576d0,61bbc5c79a1c66460f44041e,61bbc60ce7ec0f522d4d0667,,,,,,111.0976563,-22.43359375,1,0,0,response3disk,1.7296,3.9296875,14.0390625,1,0,0,rectangle,3.9296875,14.0390625,1,0,0,,-3,"[152,13,129,112,42,130,74,102,138,119]",3.9296875,14.0390625,1,0,0,0,28,28,31,1,Turquiose,Turquiose.jpg,LightBlue,LightBlue.jpg,,
,,,,,,,,,,,,,,,,,,2,,,,,,,,,,,,,,,,,,,,,,,,,,,,001,2021-12-16_17h18.31.216,jm_natural_scene_simialrity_2-12-2021_version2,2021.2.3,MacIntel,60.14675809,613d4999d6cec3e6772576d0,61bbc5c79a1c66460f44041e,61bbc60ce7ec0f522d4d0667,,,,,,75.4296875,-63.94140625,1,0,0,response3disk,4.6396,9.8515625,-13.97265625,1,0,0,rectangle,9.8515625,-13.97265625,1,0,0,,-2,"[152,13,129,112,42,130,74,102,138,119]",9.8515625,-13.97265625,1,0,0,0,29,29,75,1,DarkBlue,DarkBlue.jpg,LightBlue,LightBlue.jpg,,
,,,,,,,,,,,,,,,,,,3,,,,,,,,,,,,,,,,,,,,,,,,,,,,001,2021-12-16_17h18.31.216,jm_natural_scene_simialrity_2-12-2021_version2,2021.2.3,MacIntel,60.14675809,613d4999d6cec3e6772576d0,61bbc5c79a1c66460f44041e,61bbc60ce7ec0f522d4d0667,,,,,,98.45703125,47.21875,1,0,0,response1disk,2.9768,-11.640625,0.32421875,1,0,0,rectangle,-11.640625,0.32421875,1,0,0,,1,"[152,13,129,112,42,130,74,102,138,119]",-11.640625,0.32421875,1,0,0,0,30,30,58,1,Pink,Pink.jpg,Yellow,Yellow.jpg,,
,,,,,,,,,,,,,,,,,,-4,,,,,,,,,,,,,,,,,,,,,,,,,,,,001,2021-12-16_17h18.31.216,jm_natural_scene_simialrity_2-12-2021_version2,2021.2.3,MacIntel,60.14675809,613d4999d6cec3e6772576d0,61bbc5c79a1c66460f44041e,61bbc60ce7ec0f522d4d0667,,,,,,-77.90625,116.140625,1,0,0,response7disk,1.6785,13.3359375,-7.7890625,1,0,0,rectangle,13.3359375,-7.7890625,1,0,0,,-4,"[152,13,129,112,42,130,74,102,138,119]",13.3359375,-7.7890625,1,0,0,0,31,31,57,1,DarkBlue,DarkBlue.jpg,Yellow,Yellow.jpg,,
,,,,,,,,,,,,,,,,,,-1,,,,,,,,,,,,,,,,,,,,,,,,,,,,001,2021-12-16_17h18.31.216,jm_natural_scene_simialrity_2-12-2021_version2,2021.2.3,MacIntel,60.14675809,613d4999d6cec3e6772576d0,61bbc5c79a1c66460f44041e,61bbc60ce7ec0f522d4d0667,,,,,,-49.9609375,-98.46875,1,0,0,response5disk,1.247,5.59375,-3.41015625,1,0,0,rectangle,5.59375,-3.41015625,1,0,0,,-1,"[152,13,129,112,42,130,74,102,138,119]",5.59375,-3.41015625,1,0,0,0,32,32,34,1,Turquiose,Turquiose.jpg,Purple,Purple.jpg,,
,,,,,,,,,,,,,,,,,,-2,,,,,,,,,,,,,,,,,,,,,,,,,,,,001,2021-12-16_17h18.31.216,jm_natural_scene_simialrity_2-12-2021_version2,2021.2.3,MacIntel,60.14675809,613d4999d6cec3e6772576d0,61bbc5c79a1c66460f44041e,61bbc60ce7ec0f522d4d0667,,,,,,-93.03515625,-48.16015625,1,0,0,response5disk,2.0618,11.265625,17.32421875,1,0,0,rectangle,11.265625,17.32421875,1,0,0,,-4,"[152,13,129,112,42,130,74,102,138,119]",11.265625,17.32421875,1,0,0,0,33,33,63,1,DarkBlue,DarkBlue.jpg,LightGreen,LightGreen.jpg,,
,,,,,,,,,,,,,,,,,,-2,,,,,,,,,,,,,,,,,,,,,,,,,,,,001,2021-12-16_17h18.31.216,jm_natural_scene_simialrity_2-12-2021_version2,2021.2.3,MacIntel,60.14675809,613d4999d6cec3e6772576d0,61bbc5c79a1c66460f44041e,61bbc60ce7ec0f522d4d0667,,,,,,-64.89453125,-40.69140625,1,0,0,response5disk,1.0652,-17.44921875,-5.55078125,1,0,0,rectangle,-17.44921875,-5.55078125,1,0,0,,-2,"[152,13,129,112,42,130,74,102,138,119]",-17.44921875,-5.55078125,1,0,0,0,34,34,73,1,Pink,Pink.jpg,Turquiose,Turquiose.jpg,,
,,,,,,,,,,,,,,,,,,-2,,,,,,,,,,,,,,,,,,,,,,,,,,,,001,2021-12-16_17h18.31.216,jm_natural_scene_simialrity_2-12-2021_version2,2021.2.3,MacIntel,60.14675809,613d4999d6cec3e6772576d0,61bbc5c79a1c66460f44041e,61bbc60ce7ec0f522d4d0667,,,,,,-60.46875,-26.234375,1,0,0,response5disk,1.0475,-6.86328125,23.04296875,1,0,0,rectangle,-6.86328125,23.04296875,1,0,0,,-1,"[152,13,129,112,42,130,74,102,138,119]",-6.86328125,23.04296875,1,0,0,0,35,35,70,1,Purple,Purple.jpg,DarkGreen,DarkGreen.jpg,,
,,,,,,,,,,,,,,,,,,-3,,,,,,,,,,,,,,,,,,,,,,,,,,,,001,2021-12-16_17h18.31.216,jm_natural_scene_simialrity_2-12-2021_version2,2021.2.3,MacIntel,60.14675809,613d4999d6cec3e6772576d0,61bbc5c79a1c66460f44041e,61bbc60ce7ec0f522d4d0667,,,,,,-108.9257813,33.4140625,1,0,0,response7disk,1.1808,-10.4921875,4.8671875,1,0,0,rectangle,-10.4921875,4.8671875,1,0,0,,-4,"[152,13,129,112,42,130,74,102,138,119]",-10.4921875,4.8671875,1,0,0,0,36,36,21,1,LightGreen,LightGreen.jpg,DarkBlue,DarkBlue.jpg,,
,,,,,,,,,,,,,,,,,,2,,,,,,,,,,,,,,,,,,,,,,,,,,,,001,2021-12-16_17h18.31.216,jm_natural_scene_simialrity_2-12-2021_version2,2021.2.3,MacIntel,60.14675809,613d4999d6cec3e6772576d0,61bbc5c79a1c66460f44041e,61bbc60ce7ec0f522d4d0667,,,,,,112.53125,-40.74609375,1,0,0,response3disk,1.4453,7.828125,-13.44140625,1,0,0,rectangle,7.828125,-13.44140625,1,0,0,,2,"[152,13,129,112,42,130,74,102,138,119]",7.828125,-13.44140625,1,0,0,0,37,37,51,1,Pink,Pink.jpg,Red,Red.jpg,,
,,,,,,,,,,,,,,,,,,-1,,,,,,,,,,,,,,,,,,,,,,,,,,,,001,2021-12-16_17h18.31.216,jm_natural_scene_simialrity_2-12-2021_version2,2021.2.3,MacIntel,60.14675809,613d4999d6cec3e6772576d0,61bbc5c79a1c66460f44041e,61bbc60ce7ec0f522d4d0667,,,,,,-62.625,-92.515625,1,0,0,response5disk,1.065,-7.8515625,-6.40234375,1,0,0,rectangle,-7.8515625,-6.40234375,1,0,0,,-2,"[152,13,129,112,42,130,74,102,138,119]",-7.8515625,-6.40234375,1,0,0,0,38,38,2,1,Red,Red.jpg,LightGreen,LightGreen.jpg,,
,,,,,,,,,,,,,,,,,,3,,,,,,,,,,,,,,,,,,,,,,,,,,,,001,2021-12-16_17h18.31.216,jm_natural_scene_simialrity_2-12-2021_version2,2021.2.3,MacIntel,60.14675809,613d4999d6cec3e6772576d0,61bbc5c79a1c66460f44041e,61bbc60ce7ec0f522d4d0667,,,,,,91.77734375,50.96484375,1,0,0,response1disk,1.146,9.9375,10.078125,1,0,0,rectangle,9.9375,10.078125,1,0,0,,-2,"[152,13,129,112,42,130,74,102,138,119]",9.9375,10.078125,1,0,0,0,39,39,35,1,LightBlue,LightBlue.jpg,LightBlue,LightBlue.jpg,,
,,,,,,,,,,,,,,,,,,-2,,,,,,,,,,,,,,,,,,,,,,,,,,,,001,2021-12-16_17h18.31.216,jm_natural_scene_simialrity_2-12-2021_version2,2021.2.3,MacIntel,60.14675809,613d4999d6cec3e6772576d0,61bbc5c79a1c66460f44041e,61bbc60ce7ec0f522d4d0667,,,,,,-69.91796875,-33.67578125,1,0,0,response5disk,1.1305,-10.96484375,3.7890625,1,0,0,rectangle,-10.96484375,3.7890625,1,0,0,,-1,"[152,13,129,112,42,130,74,102,138,119]",-10.96484375,3.7890625,1,0,0,0,40,40,10,1,Yellow,Yellow.jpg,LightGreen,LightGreen.jpg,,
,,,,,,,,,,,,,,,,,,-2,,,,,,,,,,,,,,,,,,,,,,,,,,,,001,2021-12-16_17h18.31.216,jm_natural_scene_simialrity_2-12-2021_version2,2021.2.3,MacIntel,60.14675809,613d4999d6cec3e6772576d0,61bbc5c79a1c66460f44041e,61bbc60ce7ec0f522d4d0667,,,,,,-86.953125,-43.85546875,1,0,0,response5disk,1.3637,-13.140625,12.859375,1,0,0,rectangle,-33.25,-98.58203125,1,0,0,-1,-1,"[152,13,129,112,42,130,74,102,138,119]",-6.3984375,12.3671875,1,0,0,0,41,41,40,1,DarkBlue,DarkBlue.jpg,Pink,Pink.jpg,response5disk_3,rectangle
,,,,,,,,,,,,,,,,,,-2,,,,,,,,,,,,,,,,,,,,,,,,,,,,001,2021-12-16_17h18.31.216,jm_natural_scene_simialrity_2-12-2021_version2,2021.2.3,MacIntel,60.14675809,613d4999d6cec3e6772576d0,61bbc5c79a1c66460f44041e,61bbc60ce7ec0f522d4d0667,,,,,,-64.0546875,-36.06640625,1,0,0,response5disk,1.8956,14.21484375,8.3046875,1,0,0,rectangle,14.21484375,8.3046875,1,0,0,-1,-2,"[152,13,129,112,42,130,74,102,138,119]",14.21484375,8.3046875,1,0,0,0,42,42,4,1,Red,Red.jpg,Turquiose,Turquiose.jpg,,
,,,,,,,,,,,,,,,,,,-2,,,,,,,,,,,,,,,,,,,,,,,,,,,,001,2021-12-16_17h18.31.216,jm_natural_scene_simialrity_2-12-2021_version2,2021.2.3,MacIntel,60.14675809,613d4999d6cec3e6772576d0,61bbc5c79a1c66460f44041e,61bbc60ce7ec0f522d4d0667,,,,,,-45.984375,-33.50390625,1,0,0,response5disk,2.4931,-21.21875,-15.51953125,1,0,0,rectangle,-21.21875,-15.51953125,1,0,0,-1,-4,"[152,13,129,112,42,130,74,102,138,119]",-21.21875,-15.51953125,1,0,0,0,43,43,11,1,Yellow,Yellow.jpg,DarkGreen,DarkGreen.jpg,,
,,,,,,,,,,,,,,,,,,2,,,,,,,,,,,,,,,,,,,,,,,,,,,,001,2021-12-16_17h18.31.216,jm_natural_scene_simialrity_2-12-2021_version2,2021.2.3,MacIntel,60.14675809,613d4999d6cec3e6772576d0,61bbc5c79a1c66460f44041e,61bbc60ce7ec0f522d4d0667,,,,,,117.5703125,-30.0625,1,0,0,response3disk,1.4802,-6.5625,-3.16015625,1,0,0,rectangle,-6.5625,-3.16015625,1,0,0,-1,-2,"[152,13,129,112,42,130,74,102,138,119]",-6.5625,-3.16015625,1,0,0,0,44,44,1,1,Red,Red.jpg,Yellow,Yellow.jpg,,
,,,,,,,,,,,,,,,,,,2,,,,,,,,,,,,,,,,,,,,,,,,,,,,001,2021-12-16_17h18.31.216,jm_natural_scene_simialrity_2-12-2021_version2,2021.2.3,MacIntel,60.14675809,613d4999d6cec3e6772576d0,61bbc5c79a1c66460f44041e,61bbc60ce7ec0f522d4d0667,,,,,,94.73828125,-32.00390625,1,0,0,response3disk,1.2461,-0.77734375,2.83203125,1,0,0,rectangle,-0.77734375,2.83203125,1,0,0,-1,2,"[152,13,129,112,42,130,74,102,138,119]",-0.77734375,2.83203125,1,0,0,0,45,45,19,1,LightGreen,LightGreen.jpg,Turquiose,Turquiose.jpg,,
,,,,,,,,,,,,,,,,,,-2,,,,,,,,,,,,,,,,,,,,,,,,,,,,001,2021-12-16_17h18.31.216,jm_natural_scene_simialrity_2-12-2021_version2,2021.2.3,MacIntel,60.14675809,613d4999d6cec3e6772576d0,61bbc5c79a1c66460f44041e,61bbc60ce7ec0f522d4d0667,,,,,,-84.2734375,-47.3125,1,0,0,response5disk,1.2641,-8.09375,-15.5703125,1,0,0,rectangle,-8.09375,-15.5703125,1,0,0,-1,1,"[152,13,129,112,42,130,74,102,138,119]",-8.09375,-15.5703125,1,0,0,0,46,46,56,1,LightBlue,LightBlue.jpg,Yellow,Yellow.jpg,,
,,,,,,,,,,,,,,,,,,1,,,,,,,,,,,,,,,,,,,,,,,,,,,,001,2021-12-16_17h18.31.216,jm_natural_scene_simialrity_2-12-2021_version2,2021.2.3,MacIntel,60.14675809,613d4999d6cec3e6772576d0,61bbc5c79a1c66460f44041e,61bbc60ce7ec0f522d4d0667,,,,,,26.12109375,-56.0703125,1,0,0,response3disk,1.4133,-5.09375,-13.88671875,1,0,0,rectangle,-5.09375,-13.88671875,1,0,0,-1,2,"[152,13,129,112,42,130,74,102,138,119]",-5.09375,-13.88671875,1,0,0,0,47,47,80,1,Purple,Purple.jpg,Pink,Pink.jpg,,
,,,,,,,,,,,,,,,,,,4,,,,,,,,,,,,,,,,,,,,,,,,,,,,001,2021-12-16_17h18.31.216,jm_natural_scene_simialrity_2-12-2021_version2,2021.2.3,MacIntel,60.14675809,613d4999d6cec3e6772576d0,61bbc5c79a1c66460f44041e,61bbc60ce7ec0f522d4d0667,,,,,,43.00390625,66.84765625,1,0,0,response1disk,1.047,0.79296875,-8.44921875,1,0,0,rectangle,0.79296875,-8.44921875,1,0,0,-1,-3,"[152,13,129,112,42,130,74,102,138,119]",0.79296875,-8.44921875,1,0,0,0,48,48,42,1,Pink,Pink.jpg,Pink,Pink.jpg,,
,,,,,,,,,,,,,,,,,,-2,,,,,,,,,,,,,,,,,,,,,,,,,,,,001,2021-12-16_17h18.31.216,jm_natural_scene_simialrity_2-12-2021_version2,2021.2.3,MacIntel,60.14675809,613d4999d6cec3e6772576d0,61bbc5c79a1c66460f44041e,61bbc60ce7ec0f522d4d0667,,,,,,-46.8515625,-26.77734375,1,0,0,response5disk,1.5131,12.59375,6.97265625,1,0,0,rectangle,12.59375,6.97265625,1,0,0,-1,1,"[152,13,129,112,42,130,74,102,138,119]",12.59375,6.97265625,1,0,0,0,49,49,12,1,Yellow,Yellow.jpg,Turquiose,Turquiose.jpg,,
,,,,,,,,,,,,,,,,,,2,,,,,,,,,,,,,,,,,,,,,,,,,,,,001,2021-12-16_17h18.31.216,jm_natural_scene_simialrity_2-12-2021_version2,2021.2.3,MacIntel,60.14675809,613d4999d6cec3e6772576d0,61bbc5c79a1c66460f44041e,61bbc60ce7ec0f522d4d0667,,,,,,77.30859375,-32.3671875,1,0,0,response3disk,1.3132,-1.7890625,-6.64453125,1,0,0,rectangle,-1.7890625,-6.64453125,1,0,0,-1,3,"[152,13,129,112,42,130,74,102,138,119]",-1.7890625,-6.64453125,1,0,0,0,50,50,66,1,Turquiose,Turquiose.jpg,DarkGreen,DarkGreen.jpg,,
,,,,,,,,,,,,,,,,,,-2,,,,,,,,,,,,,,,,,,,,,,,,,,,,001,2021-12-16_17h18.31.216,jm_natural_scene_simialrity_2-12-2021_version2,2021.2.3,MacIntel,60.14675809,613d4999d6cec3e6772576d0,61bbc5c79a1c66460f44041e,61bbc60ce7ec0f522d4d0667,,,,,,-66.7578125,-26.10546875,1,0,0,response5disk,1.3627,-6.82421875,-6.11328125,1,0,0,rectangle,-6.82421875,-6.11328125,1,0,0,-1,2,"[152,13,129,112,42,130,74,102,138,119]",-6.82421875,-6.11328125,1,0,0,0,51,51,23,1,LightGreen,LightGreen.jpg,Purple,Purple.jpg,,
,,,,,,,,,,,,,,,,,,3,,,,,,,,,,,,,,,,,,,,,,,,,,,,001,2021-12-16_17h18.31.216,jm_natural_scene_simialrity_2-12-2021_version2,2021.2.3,MacIntel,60.14675809,613d4999d6cec3e6772576d0,61bbc5c79a1c66460f44041e,61bbc60ce7ec0f522d4d0667,,,,,,50.69921875,33.48828125,1,0,0,response1disk,1.0806,-10.09375,10.4375,1,0,0,rectangle,-10.09375,10.4375,1,0,0,-1,2,"[152,13,129,112,42,130,74,102,138,119]",-10.09375,10.4375,1,0,0,0,52,52,27,1,DarkGreen,DarkGreen.jpg,DarkBlue,DarkBlue.jpg,,
,,,,,,,,,,,,,,,,,,-3,,,,,,,,,,,,,,,,,,,,,,,,,,,,001,2021-12-16_17h18.31.216,jm_natural_scene_simialrity_2-12-2021_version2,2021.2.3,MacIntel,60.14675809,613d4999d6cec3e6772576d0,61bbc5c79a1c66460f44041e,61bbc60ce7ec0f522d4d0667,,,,,,-66.28125,33.296875,1,0,0,response7disk,1.131,5.43359375,5.75390625,1,0,0,rectangle,5.43359375,5.75390625,1,0,0,-1,2,"[152,13,129,112,42,130,74,102,138,119]",5.43359375,5.75390625,1,0,0,0,53,53,22,1,LightGreen,LightGreen.jpg,Pink,Pink.jpg,,
,,,,,,,,,,,,,,,,,,4,,,,,,,,,,,,,,,,,,,,,,,,,,,,001,2021-12-16_17h18.31.216,jm_natural_scene_simialrity_2-12-2021_version2,2021.2.3,MacIntel,60.14675809,613d4999d6cec3e6772576d0,61bbc5c79a1c66460f44041e,61bbc60ce7ec0f522d4d0667,,,,,,43.2578125,72.6328125,1,0,0,response1disk,0.716,-2.953125,9.55078125,1,0,0,rectangle,-2.953125,9.55078125,1,0,0,-1,-1,"[152,13,129,112,42,130,74,102,138,119]",-2.953125,9.55078125,1,0,0,0,54,54,18,1,LightGreen,LightGreen.jpg,DarkGreen,DarkGreen.jpg,,
,,,,,,,,,,,,,,,,,,-2,,,,,,,,,,,,,,,,,,,,,,,,,,,,001,2021-12-16_17h18.31.216,jm_natural_scene_simialrity_2-12-2021_version2,2021.2.3,MacIntel,60.14675809,613d4999d6cec3e6772576d0,61bbc5c79a1c66460f44041e,61bbc60ce7ec0f522d4d0667,,,,,,-92.01953125,-67.9765625,1,0,0,response5disk,0.9477,16.8671875,-11.15625,1,0,0,rectangle,16.8671875,-11.15625,1,0,0,-1,-3,"[152,13,129,112,42,130,74,102,138,119]",16.8671875,-11.15625,1,0,0,0,55,55,3,1,Red,Red.jpg,DarkGreen,DarkGreen.jpg,,
,,,,,,,,,,,,,,,,,,-2,,,,,,,,,,,,,,,,,,,,,,,,,,,,001,2021-12-16_17h18.31.216,jm_natural_scene_simialrity_2-12-2021_version2,2021.2.3,MacIntel,60.14675809,613d4999d6cec3e6772576d0,61bbc5c79a1c66460f44041e,61bbc60ce7ec0f522d4d0667,,,,,,-49.97265625,-18.95703125,1,0,0,response5disk,1.1307,7.66796875,14.55078125,1,0,0,rectangle,7.66796875,14.55078125,1,0,0,-1,3,"[152,13,129,112,42,130,74,102,138,119]",7.66796875,14.55078125,1,0,0,0,56,56,25,1,DarkGreen,DarkGreen.jpg,Turquiose,Turquiose.jpg,,
,,,,,,,,,,,,,,,,,,4,,,,,,,,,,,,,,,,,,,,,,,,,,,,001,2021-12-16_17h18.31.216,jm_natural_scene_simialrity_2-12-2021_version2,2021.2.3,MacIntel,60.14675809,613d4999d6cec3e6772576d0,61bbc5c79a1c66460f44041e,61bbc60ce7ec0f522d4d0667,,,,,,20.33203125,33.859375,1,0,0,response1disk,2.1674,0.4765625,11.671875,1,0,0,rectangle,0.4765625,11.671875,1,0,0,-1,-3,"[152,13,129,112,42,130,74,102,138,119]",0.4765625,11.671875,1,0,0,0,57,57,39,1,DarkBlue,DarkBlue.jpg,DarkBlue,DarkBlue.jpg,,
,,,,,,,,,,,,,,,,,,-2,,,,,,,,,,,,,,,,,,,,,,,,,,,,001,2021-12-16_17h18.31.216,jm_natural_scene_simialrity_2-12-2021_version2,2021.2.3,MacIntel,60.14675809,613d4999d6cec3e6772576d0,61bbc5c79a1c66460f44041e,61bbc60ce7ec0f522d4d0667,,,,,,-44.66796875,-29.65234375,1,0,0,response5disk,1.5308,15.921875,-9.015625,1,0,0,rectangle,15.921875,-9.015625,1,0,0,-1,3,"[152,13,129,112,42,130,74,102,138,119]",15.921875,-9.015625,1,0,0,0,58,58,7,1,Red,Red.jpg,Pink,Pink.jpg,,
,,,,,,,,,,,,,,,,,,-2,,,,,,,,,,,,,,,,,,,,,,,,,,,,001,2021-12-16_17h18.31.216,jm_natural_scene_simialrity_2-12-2021_version2,2021.2.3,MacIntel,60.14675809,613d4999d6cec3e6772576d0,61bbc5c79a1c66460f44041e,61bbc60ce7ec0f522d4d0667,,,,,,-75.97265625,-30.10546875,1,0,0,response5disk,1.114,-10,5.234375,1,0,0,rectangle,-10,5.234375,1,0,0,-1,-3,"[152,13,129,112,42,130,74,102,138,119]",-10,5.234375,1,0,0,0,59,59,49,1,LightBlue,LightBlue.jpg,Red,Red.jpg,,
,,,,,,,,,,,,,,,,,,-3,,,,,,,,,,,,,,,,,,,,,,,,,,,,001,2021-12-16_17h18.31.216,jm_natural_scene_simialrity_2-12-2021_version2,2021.2.3,MacIntel,60.14675809,613d4999d6cec3e6772576d0,61bbc5c79a1c66460f44041e,61bbc60ce7ec0f522d4d0667,,,,,,-82.33984375,26.875,1,0,0,response7disk,1.4958,8.81640625,-0.3125,1,0,0,rectangle,8.81640625,-0.3125,1,0,0,-1,3,"[152,13,129,112,42,130,74,102,138,119]",8.81640625,-0.3125,1,0,0,0,60,60,6,1,Red,Red.jpg,DarkBlue,DarkBlue.jpg,,
,,,,,,,,,,,,,,,,,,-3,,,,,,,,,,,,,,,,,,,,,,,,,,,,001,2021-12-16_17h18.31.216,jm_natural_scene_simialrity_2-12-2021_version2,2021.2.3,MacIntel,60.14675809,613d4999d6cec3e6772576d0,61bbc5c79a1c66460f44041e,61bbc60ce7ec0f522d4d0667,,,,,,-72.91015625,25.7265625,1,0,0,response7disk,1.3132,-6.4140625,7.8984375,1,0,0,rectangle,-6.4140625,7.8984375,1,0,0,-1,-4,"[152,13,129,112,42,130,74,102,138,119]",-6.4140625,7.8984375,1,0,0,0,61,61,53,1,LightGreen,LightGreen.jpg,Yellow,Yellow.jpg,,
,,,,,,,,,,,,,,,,,,2,,,,,,,,,,,,,,,,,,,,,,,,,,,,001,2021-12-16_17h18.31.216,jm_natural_scene_simialrity_2-12-2021_version2,2021.2.3,MacIntel,60.14675809,613d4999d6cec3e6772576d0,61bbc5c79a1c66460f44041e,61bbc60ce7ec0f522d4d0667,,,,,,113.5429688,-31.57421875,1,0,0,response3disk,2.8263,17.83203125,-10.453125,1,0,0,rectangle,17.83203125,-10.453125,1,0,0,-1,-2,"[152,13,129,112,42,130,74,102,138,119]",17.83203125,-10.453125,1,0,0,0,62,62,62,1,LightBlue,LightBlue.jpg,LightGreen,LightGreen.jpg,,
,,,,,,,,,,,,,,,,,,-2,,,,,,,,,,,,,,,,,,,,,,,,,,,,001,2021-12-16_17h18.31.216,jm_natural_scene_simialrity_2-12-2021_version2,2021.2.3,MacIntel,60.14675809,613d4999d6cec3e6772576d0,61bbc5c79a1c66460f44041e,61bbc60ce7ec0f522d4d0667,,,,,,-106.5117188,-62.51171875,1,0,0,response5disk,1.1471,1.37890625,-3.08984375,1,0,0,rectangle,1.37890625,-3.08984375,1,0,0,-1,-1,"[152,13,129,112,42,130,74,102,138,119]",1.37890625,-3.08984375,1,0,0,0,63,63,72,1,DarkBlue,DarkBlue.jpg,Turquiose,Turquiose.jpg,,
,,,,,,,,,,,,,,,,,,2,,,,,,,,,,,,,,,,,,,,,,,,,,,,001,2021-12-16_17h18.31.216,jm_natural_scene_simialrity_2-12-2021_version2,2021.2.3,MacIntel,60.14675809,613d4999d6cec3e6772576d0,61bbc5c79a1c66460f44041e,61bbc60ce7ec0f522d4d0667,,,,,,85.45703125,-50.71875,1,0,0,response3disk,2.9426,8.23828125,-4.02734375,1,0,0,rectangle,8.23828125,-4.02734375,1,0,0,-1,-4,"[152,13,129,112,42,130,74,102,138,119]",8.23828125,-4.02734375,1,0,0,0,64,64,67,1,LightBlue,LightBlue.jpg,DarkGreen,DarkGreen.jpg,,
,,,,,,,,,,,,,,,,,,4,,,,,,,,,,,,,,,,,,,,,,,,,,,,001,2021-12-16_17h18.31.216,jm_natural_scene_simialrity_2-12-2021_version2,2021.2.3,MacIntel,60.14675809,613d4999d6cec3e6772576d0,61bbc5c79a1c66460f44041e,61bbc60ce7ec0f522d4d0667,,,,,,60.63671875,82.3359375,1,0,0,response1disk,1.7458,-2.08984375,6.1328125,1,0,0,rectangle,-2.08984375,6.1328125,1,0,0,-1,-3,"[152,13,129,112,42,130,74,102,138,119]",-2.08984375,6.1328125,1,0,0,0,65,65,9,1,Yellow,Yellow.jpg,Yellow,Yellow.jpg,,
,,,,,,,,,,,,,,,,,,1,,,,,,,,,,,,,,,,,,,,,,,,,,,,001,2021-12-16_17h18.31.216,jm_natural_scene_simialrity_2-12-2021_version2,2021.2.3,MacIntel,60.14675809,613d4999d6cec3e6772576d0,61bbc5c79a1c66460f44041e,61bbc60ce7ec0f522d4d0667,,,,,,69.2265625,-74.625,1,0,0,response3disk,2.4281,9.07421875,-5.05078125,1,0,0,rectangle,9.07421875,-5.05078125,1,0,0,-1,-3,"[152,13,129,112,42,130,74,102,138,119]",9.07421875,-5.05078125,1,0,0,0,66,66,68,1,DarkBlue,DarkBlue.jpg,DarkGreen,DarkGreen.jpg,,
,,,,,,,,,,,,,,,,,,-2,,,,,,,,,,,,,,,,,,,,,,,,,,,,001,2021-12-16_17h18.31.216,jm_natural_scene_simialrity_2-12-2021_version2,2021.2.3,MacIntel,60.14675809,613d4999d6cec3e6772576d0,61bbc5c79a1c66460f44041e,61bbc60ce7ec0f522d4d0667,,,,,,-70.84765625,-30.81640625,1,0,0,response5disk,1.0143,-3.76953125,-7.29296875,1,0,0,rectangle,-3.76953125,-7.29296875,1,0,0,-1,-2,"[152,13,129,112,42,130,74,102,138,119]",-3.76953125,-7.29296875,1,0,0,0,67,67,65,1,Purple,Purple.jpg,LightGreen,LightGreen.jpg,,
,,,,,,,,,,,,,,,,,,-2,,,,,,,,,,,,,,,,,,,,,,,,,,,,001,2021-12-16_17h18.31.216,jm_natural_scene_simialrity_2-12-2021_version2,2021.2.3,MacIntel,60.14675809,613d4999d6cec3e6772576d0,61bbc5c79a1c66460f44041e,61bbc60ce7ec0f522d4d0667,,,,,,-69.9765625,-39.97265625,1,0,0,response5disk,1.43,2.9765625,-17.109375,1,0,0,rectangle,2.9765625,-17.109375,1,0,0,-1,-2,"[152,13,129,112,42,130,74,102,138,119]",2.9765625,-17.109375,1,0,0,0,68,68,79,1,Purple,Purple.jpg,DarkBlue,DarkBlue.jpg,,
,,,,,,,,,,,,,,,,,,-3,,,,,,,,,,,,,,,,,,,,,,,,,,,,001,2021-12-16_17h18.31.216,jm_natural_scene_simialrity_2-12-2021_version2,2021.2.3,MacIntel,60.14675809,613d4999d6cec3e6772576d0,61bbc5c79a1c66460f44041e,61bbc60ce7ec0f522d4d0667,,,,,,-80.49609375,40.09765625,1,0,0,response7disk,1.8132,-1.515625,14.80859375,1,0,0,rectangle,-1.515625,14.80859375,1,0,0,-1,-1,"[152,13,129,112,42,130,74,102,138,119]",-1.515625,14.80859375,1,0,0,0,69,69,46,1,LightGreen,LightGreen.jpg,Red,Red.jpg,,
,,,,,,,,,,,,,,,,,,4,,,,,,,,,,,,,,,,,,,,,,,,,,,,001,2021-12-16_17h18.31.216,jm_natural_scene_simialrity_2-12-2021_version2,2021.2.3,MacIntel,60.14675809,613d4999d6cec3e6772576d0,61bbc5c79a1c66460f44041e,61bbc60ce7ec0f522d4d0667,,,,,,40.53515625,87.15234375,1,0,0,response1disk,1.6971,-11.9453125,-0.21875,1,0,0,rectangle,-11.9453125,-0.21875,1,0,0,-1,-2,"[152,13,129,112,42,130,74,102,138,119]",-11.9453125,-0.21875,1,0,0,0,70,70,30,1,Turquiose,Turquiose.jpg,Turquiose,Turquiose.jpg,,
,,,,,,,,,,,,,,,,,,2,,,,,,,,,,,,,,,,,,,,,,,,,,,,001,2021-12-16_17h18.31.216,jm_natural_scene_simialrity_2-12-2021_version2,2021.2.3,MacIntel,60.14675809,613d4999d6cec3e6772576d0,61bbc5c79a1c66460f44041e,61bbc60ce7ec0f522d4d0667,,,,,,80.81640625,-33.33203125,1,0,0,response3disk,3.325,0.703125,-8.0703125,1,0,0,rectangle,0.703125,-8.0703125,1,0,0,-1,-3,"[152,13,129,112,42,130,74,102,138,119]",0.703125,-8.0703125,1,0,0,0,71,71,20,1,LightGreen,LightGreen.jpg,LightBlue,LightBlue.jpg,,
,,,,,,,,,,,,,,,,,,-4,,,,,,,,,,,,,,,,,,,,,,,,,,,,001,2021-12-16_17h18.31.216,jm_natural_scene_simialrity_2-12-2021_version2,2021.2.3,MacIntel,60.14675809,613d4999d6cec3e6772576d0,61bbc5c79a1c66460f44041e,61bbc60ce7ec0f522d4d0667,,,,,,-35.5234375,58.33203125,1,0,0,response7disk,3.1094,5.54296875,0.05859375,1,0,0,rectangle,5.54296875,0.05859375,1,0,0,-1,2,"[152,13,129,112,42,130,74,102,138,119]",5.54296875,0.05859375,1,0,0,0,72,72,50,1,DarkBlue,DarkBlue.jpg,Red,Red.jpg,,
,,,,,,,,,,,,,,,,,,2,,,,,,,,,,,,,,,,,,,,,,,,,,,,001,2021-12-16_17h18.31.216,jm_natural_scene_simialrity_2-12-2021_version2,2021.2.3,MacIntel,60.14675809,613d4999d6cec3e6772576d0,61bbc5c79a1c66460f44041e,61bbc60ce7ec0f522d4d0667,,,,,,97.5,-22.22265625,1,0,0,response3disk,1.4299,22.01953125,0.97265625,1,0,0,rectangle,-58.80078125,99.93359375,1,0,0,-4,-4,"[152,13,129,112,42,130,74,102,138,119]",4.48046875,8.984375,1,0,0,0,73,73,45,1,Yellow,Yellow.jpg,Red,Red.jpg,response7disk_3,rectangle
,,,,,,,,,,,,,,,,,,-2,,,,,,,,,,,,,,,,,,,,,,,,,,,,001,2021-12-16_17h18.31.216,jm_natural_scene_simialrity_2-12-2021_version2,2021.2.3,MacIntel,60.14675809,613d4999d6cec3e6772576d0,61bbc5c79a1c66460f44041e,61bbc60ce7ec0f522d4d0667,,,,,,-73.90234375,-50.98828125,1,0,0,response5disk,1.6635,6.8359375,8.59375,1,0,0,rectangle,6.8359375,8.59375,1,0,0,-4,2,"[152,13,129,112,42,130,74,102,138,119]",6.8359375,8.59375,1,0,0,0,74,74,48,1,Turquiose,Turquiose.jpg,Red,Red.jpg,,
,,,,,,,,,,,,,,,,,,-3,,,,,,,,,,,,,,,,,,,,,,,,,,,,001,2021-12-16_17h18.31.216,jm_natural_scene_simialrity_2-12-2021_version2,2021.2.3,MacIntel,60.14675809,613d4999d6cec3e6772576d0,61bbc5c79a1c66460f44041e,61bbc60ce7ec0f522d4d0667,,,,,,-66.640625,37.9765625,1,0,0,response7disk,1.6293,4.20703125,-9.49609375,1,0,0,rectangle,4.20703125,-9.49609375,1,0,0,-4,2,"[152,13,129,112,42,130,74,102,138,119]",4.20703125,-9.49609375,1,0,0,0,75,75,78,1,Pink,Pink.jpg,DarkBlue,DarkBlue.jpg,,
,,,,,,,,,,,,,,,,,,-3,,,,,,,,,,,,,,,,,,,,,,,,,,,,001,2021-12-16_17h18.31.216,jm_natural_scene_simialrity_2-12-2021_version2,2021.2.3,MacIntel,60.14675809,613d4999d6cec3e6772576d0,61bbc5c79a1c66460f44041e,61bbc60ce7ec0f522d4d0667,,,,,,-64.62109375,19.42578125,1,0,0,response7disk,1.2141,-1.60546875,-10.953125,1,0,0,rectangle,-1.60546875,-10.953125,1,0,0,-4,2,"[152,13,129,112,42,130,74,102,138,119]",-1.60546875,-10.953125,1,0,0,0,76,76,13,1,Yellow,Yellow.jpg,LightBlue,LightBlue.jpg,,
,,,,,,,,,,,,,,,,,,-4,,,,,,,,,,,,,,,,,,,,,,,,,,,,001,2021-12-16_17h18.31.216,jm_natural_scene_simialrity_2-12-2021_version2,2021.2.3,MacIntel,60.14675809,613d4999d6cec3e6772576d0,61bbc5c79a1c66460f44041e,61bbc60ce7ec0f522d4d0667,,,,,,-47.65625,72.3515625,1,0,0,response7disk,1.5473,-1.88671875,3.78515625,1,0,0,rectangle,-1.88671875,3.78515625,1,0,0,-4,-2,"[152,13,129,112,42,130,74,102,138,119]",-1.88671875,3.78515625,1,0,0,0,77,77,47,1,DarkGreen,DarkGreen.jpg,Red,Red.jpg,,
,,,,,,,,,,,,,,,,,,1,,,,,,,,,,,,,,,,,,,,,,,,,,,,001,2021-12-16_17h18.31.216,jm_natural_scene_simialrity_2-12-2021_version2,2021.2.3,MacIntel,60.14675809,613d4999d6cec3e6772576d0,61bbc5c79a1c66460f44041e,61bbc60ce7ec0f522d4d0667,,,,,,63.875,-87.76953125,1,0,0,response3disk,1.0135,12.84765625,13.1484375,1,0,0,rectangle,12.84765625,13.1484375,1,0,0,-4,3,"[152,13,129,112,42,130,74,102,138,119]",12.84765625,13.1484375,1,0,0,0,78,78,41,1,DarkBlue,DarkBlue.jpg,Purple,Purple.jpg,,
,,,,,,,,,,,,,,,,,,3,,,,,,,,,,,,,,,,,,,,,,,,,,,,001,2021-12-16_17h18.31.216,jm_natural_scene_simialrity_2-12-2021_version2,2021.2.3,MacIntel,60.14675809,613d4999d6cec3e6772576d0,61bbc5c79a1c66460f44041e,61bbc60ce7ec0f522d4d0667,,,,,,82.29296875,40.91015625,1,0,0,response1disk,0.964,18.30078125,3.75390625,1,0,0,rectangle,18.30078125,3.75390625,1,0,0,-4,-2,"[152,13,129,112,42,130,74,102,138,119]",18.30078125,3.75390625,1,0,0,0,79,79,17,1,LightGreen,LightGreen.jpg,LightGreen,LightGreen.jpg,,
,,,,,,,,,,,,,,,,,,-3,,,,,,,,,,,,,,,,,,,,,,,,,,,,001,2021-12-16_17h18.31.216,jm_natural_scene_simialrity_2-12-2021_version2,2021.2.3,MacIntel,60.14675809,613d4999d6cec3e6772576d0,61bbc5c79a1c66460f44041e,61bbc60ce7ec0f522d4d0667,,,,,,-117.1171875,58.046875,1,0,0,response7disk,1.3138,-9.8828125,4.35546875,1,0,0,rectangle,-9.8828125,4.35546875,1,0,0,-4,-4,"[152,13,129,112,42,130,74,102,138,119]",-9.8828125,4.35546875,1,0,0,0,80,80,14,1,Yellow,Yellow.jpg,DarkBlue,DarkBlue.jpg,,
,,,,,,,,,,,,,,,,,,4,,,,,,,,,,,,,,,,,,,,,,,,,,,,001,2021-12-16_17h18.31.216,jm_natural_scene_simialrity_2-12-2021_version2,2021.2.3,MacIntel,60.14675809,613d4999d6cec3e6772576d0,61bbc5c79a1c66460f44041e,61bbc60ce7ec0f522d4d0667,,,,,,59.64453125,80.71875,1,0,0,response1disk,0.9314,10.68359375,15.62109375,1,0,0,rectangle,10.68359375,15.62109375,1,0,0,-4,-3,"[152,13,129,112,42,130,74,102,138,119]",10.68359375,15.62109375,1,0,0,1,0,81,44,1,Purple,Purple.jpg,Purple,Purple.jpg,,
,,,,,,,,,,,,,,,,,,-2,,,,,,,,,,,,,,,,,,,,,,,,,,,,001,2021-12-16_17h18.31.216,jm_natural_scene_simialrity_2-12-2021_version2,2021.2.3,MacIntel,60.14675809,613d4999d6cec3e6772576d0,61bbc5c79a1c66460f44041e,61bbc60ce7ec0f522d4d0667,,,,,,-67.40625,-29.39453125,1,0,0,response5disk,0.8972,7.87109375,6.28125,1,0,0,rectangle,7.87109375,6.28125,1,0,0,-4,2,"[152,13,129,112,42,130,74,102,138,119]",7.87109375,6.28125,1,0,0,1,1,82,55,1,Turquiose,Turquiose.jpg,Yellow,Yellow.jpg,,
,,,,,,,,,,,,,,,,,,-3,,,,,,,,,,,,,,,,,,,,,,,,,,,,001,2021-12-16_17h18.31.216,jm_natural_scene_simialrity_2-12-2021_version2,2021.2.3,MacIntel,60.14675809,613d4999d6cec3e6772576d0,61bbc5c79a1c66460f44041e,61bbc60ce7ec0f522d4d0667,,,,,,-106.2734375,42.44140625,1,0,0,response7disk,1.2143,11.5390625,-5.34765625,1,0,0,rectangle,11.5390625,-5.34765625,1,0,0,-4,3,"[152,13,129,112,42,130,74,102,138,119]",11.5390625,-5.34765625,1,0,0,1,2,83,12,1,Yellow,Yellow.jpg,Turquiose,Turquiose.jpg,,
,,,,,,,,,,,,,,,,,,-4,,,,,,,,,,,,,,,,,,,,,,,,,,,,001,2021-12-16_17h18.31.216,jm_natural_scene_simialrity_2-12-2021_version2,2021.2.3,MacIntel,60.14675809,613d4999d6cec3e6772576d0,61bbc5c79a1c66460f44041e,61bbc60ce7ec0f522d4d0667,,,,,,-54.91015625,65.05078125,1,0,0,response7disk,1.7639,0.58203125,4.32421875,1,0,0,rectangle,0.58203125,4.32421875,1,0,0,-4,-1,"[152,13,129,112,42,130,74,102,138,119]",0.58203125,4.32421875,1,0,0,1,3,84,20,1,LightGreen,LightGreen.jpg,LightBlue,LightBlue.jpg,,
,,,,,,,,,,,,,,,,,,-4,,,,,,,,,,,,,,,,,,,,,,,,,,,,001,2021-12-16_17h18.31.216,jm_natural_scene_simialrity_2-12-2021_version2,2021.2.3,MacIntel,60.14675809,613d4999d6cec3e6772576d0,61bbc5c79a1c66460f44041e,61bbc60ce7ec0f522d4d0667,,,,,,-42.1015625,50.0859375,1,0,0,response7disk,1.613,-3.22265625,-2.04296875,1,0,0,rectangle,-3.22265625,-2.04296875,1,0,0,-4,3,"[152,13,129,112,42,130,74,102,138,119]",-3.22265625,-2.04296875,1,0,0,1,4,85,21,1,LightGreen,LightGreen.jpg,DarkBlue,DarkBlue.jpg,,
,,,,,,,,,,,,,,,,,,-4,,,,,,,,,,,,,,,,,,,,,,,,,,,,001,2021-12-16_17h18.31.216,jm_natural_scene_simialrity_2-12-2021_version2,2021.2.3,MacIntel,60.14675809,613d4999d6cec3e6772576d0,61bbc5c79a1c66460f44041e,61bbc60ce7ec0f522d4d0667,,,,,,-46.91015625,80.43359375,1,0,0,response7disk,2.8101,-4.0859375,14.19140625,1,0,0,rectangle,-4.0859375,14.19140625,1,0,0,-4,2,"[152,13,129,112,42,130,74,102,138,119]",-4.0859375,14.19140625,1,0,0,1,5,86,5,1,Red,Red.jpg,LightBlue,LightBlue.jpg,,
,,,,,,,,,,,,,,,,,,-2,,,,,,,,,,,,,,,,,,,,,,,,,,,,001,2021-12-16_17h18.31.216,jm_natural_scene_simialrity_2-12-2021_version2,2021.2.3,MacIntel,60.14675809,613d4999d6cec3e6772576d0,61bbc5c79a1c66460f44041e,61bbc60ce7ec0f522d4d0667,,,,,,-62.94921875,-32.06640625,1,0,0,response5disk,1.2477,-13.0625,15.55078125,1,0,0,rectangle,-13.0625,15.55078125,1,0,0,-4,1,"[152,13,129,112,42,130,74,102,138,119]",-13.0625,15.55078125,1,0,0,1,6,87,19,1,LightGreen,LightGreen.jpg,Turquiose,Turquiose.jpg,,
,,,,,,,,,,,,,,,,,,2,,,,,,,,,,,,,,,,,,,,,,,,,,,,001,2021-12-16_17h18.31.216,jm_natural_scene_simialrity_2-12-2021_version2,2021.2.3,MacIntel,60.14675809,613d4999d6cec3e6772576d0,61bbc5c79a1c66460f44041e,61bbc60ce7ec0f522d4d0667,,,,,,83.484375,-21.21484375,1,0,0,response3disk,2.5763,6.27734375,17.03125,1,0,0,rectangle,6.27734375,17.03125,1,0,0,-4,2,"[152,13,129,112,42,130,74,102,138,119]",6.27734375,17.03125,1,0,0,1,7,88,43,1,Pink,Pink.jpg,Purple,Purple.jpg,,
,,,,,,,,,,,,,,,,,,-3,,,,,,,,,,,,,,,,,,,,,,,,,,,,001,2021-12-16_17h18.31.216,jm_natural_scene_simialrity_2-12-2021_version2,2021.2.3,MacIntel,60.14675809,613d4999d6cec3e6772576d0,61bbc5c79a1c66460f44041e,61bbc60ce7ec0f522d4d0667,,,,,,-72.0859375,37.6015625,1,0,0,response7disk,3.2084,-19.1875,3.91796875,1,0,0,rectangle,-19.1875,3.91796875,1,0,0,-4,-3,"[152,13,129,112,42,130,74,102,138,119]",-19.1875,3.91796875,1,0,0,1,8,89,47,1,DarkGreen,DarkGreen.jpg,Red,Red.jpg,,
,,,,,,,,,,,,,,,,,,2,,,,,,,,,,,,,,,,,,,,,,,,,,,,001,2021-12-16_17h18.31.216,jm_natural_scene_simialrity_2-12-2021_version2,2021.2.3,MacIntel,60.14675809,613d4999d6cec3e6772576d0,61bbc5c79a1c66460f44041e,61bbc60ce7ec0f522d4d0667,,,,,,81.90625,-28.23828125,1,0,0,response3disk,3.6248,19.58984375,9.0625,1,0,0,rectangle,19.58984375,9.0625,1,0,0,-4,1,"[152,13,129,112,42,130,74,102,138,119]",19.58984375,9.0625,1,0,0,1,9,90,26,1,DarkGreen,DarkGreen.jpg,LightBlue,LightBlue.jpg,,
,,,,,,,,,,,,,,,,,,3,,,,,,,,,,,,,,,,,,,,,,,,,,,,001,2021-12-16_17h18.31.216,jm_natural_scene_simialrity_2-12-2021_version2,2021.2.3,MacIntel,60.14675809,613d4999d6cec3e6772576d0,61bbc5c79a1c66460f44041e,61bbc60ce7ec0f522d4d0667,,,,,,78.9921875,40.0546875,1,0,0,response1disk,1.2139,20.828125,2.21484375,1,0,0,rectangle,20.828125,2.21484375,1,0,0,-4,-1,"[152,13,129,112,42,130,74,102,138,119]",20.828125,2.21484375,1,0,0,1,10,91,38,1,LightBlue,LightBlue.jpg,Purple,Purple.jpg,,
,,,,,,,,,,,,,,,,,,2,,,,,,,,,,,,,,,,,,,,,,,,,,,,001,2021-12-16_17h18.31.216,jm_natural_scene_simialrity_2-12-2021_version2,2021.2.3,MacIntel,60.14675809,613d4999d6cec3e6772576d0,61bbc5c79a1c66460f44041e,61bbc60ce7ec0f522d4d0667,,,,,,93.20703125,-52.33984375,1,0,0,response3disk,1.2969,7.328125,-12.22265625,1,0,0,rectangle,7.328125,-12.22265625,1,0,0,-4,-3,"[152,13,129,112,42,130,74,102,138,119]",7.328125,-12.22265625,1,0,0,1,11,92,76,1,Pink,Pink.jpg,LightBlue,LightBlue.jpg,,
,,,,,,,,,,,,,,,,,,2,,,,,,,,,,,,,,,,,,,,,,,,,,,,001,2021-12-16_17h18.31.216,jm_natural_scene_simialrity_2-12-2021_version2,2021.2.3,MacIntel,60.14675809,613d4999d6cec3e6772576d0,61bbc5c79a1c66460f44041e,61bbc60ce7ec0f522d4d0667,,,,,,107.1054688,-36.33203125,1,0,0,response3disk,3.127,6.82421875,-1.56640625,1,0,0,rectangle,6.82421875,-1.56640625,1,0,0,-4,2,"[152,13,129,112,42,130,74,102,138,119]",6.82421875,-1.56640625,1,0,0,1,12,93,70,1,Purple,Purple.jpg,DarkGreen,DarkGreen.jpg,,
,,,,,,,,,,,,,,,,,,-3,,,,,,,,,,,,,,,,,,,,,,,,,,,,001,2021-12-16_17h18.31.216,jm_natural_scene_simialrity_2-12-2021_version2,2021.2.3,MacIntel,60.14675809,613d4999d6cec3e6772576d0,61bbc5c79a1c66460f44041e,61bbc60ce7ec0f522d4d0667,,,,,,-79.41015625,50.37890625,1,0,0,response7disk,1.147,9.97265625,-4.09375,1,0,0,rectangle,9.97265625,-4.09375,1,0,0,-4,3,"[152,13,129,112,42,130,74,102,138,119]",9.97265625,-4.09375,1,0,0,1,13,94,4,1,Red,Red.jpg,Turquiose,Turquiose.jpg,,
,,,,,,,,,,,,,,,,,,-3,,,,,,,,,,,,,,,,,,,,,,,,,,,,001,2021-12-16_17h18.31.216,jm_natural_scene_simialrity_2-12-2021_version2,2021.2.3,MacIntel,60.14675809,613d4999d6cec3e6772576d0,61bbc5c79a1c66460f44041e,61bbc60ce7ec0f522d4d0667,,,,,,-50.671875,40.515625,1,0,0,response7disk,1.1309,9.44921875,3.05078125,1,0,0,rectangle,9.44921875,3.05078125,1,0,0,-4,3,"[152,13,129,112,42,130,74,102,138,119]",9.44921875,3.05078125,1,0,0,1,14,95,1,1,Red,Red.jpg,Yellow,Yellow.jpg,,
,,,,,,,,,,,,,,,,,,-1,,,,,,,,,,,,,,,,,,,,,,,,,,,,001,2021-12-16_17h18.31.216,jm_natural_scene_simialrity_2-12-2021_version2,2021.2.3,MacIntel,60.14675809,613d4999d6cec3e6772576d0,61bbc5c79a1c66460f44041e,61bbc60ce7ec0f522d4d0667,,,,,,-36.83203125,-97.51953125,1,0,0,response5disk,1.6962,5.0859375,18.69921875,1,0,0,rectangle,5.0859375,18.69921875,1,0,0,-4,-2,"[152,13,129,112,42,130,74,102,138,119]",5.0859375,18.69921875,1,0,0,1,15,96,41,1,DarkBlue,DarkBlue.jpg,Purple,Purple.jpg,,
,,,,,,,,,,,,,,,,,,4,,,,,,,,,,,,,,,,,,,,,,,,,,,,001,2021-12-16_17h18.31.216,jm_natural_scene_simialrity_2-12-2021_version2,2021.2.3,MacIntel,60.14675809,613d4999d6cec3e6772576d0,61bbc5c79a1c66460f44041e,61bbc60ce7ec0f522d4d0667,,,,,,36.1640625,88.24609375,1,0,0,response1disk,1.2474,-18.46484375,-14.08984375,1,0,0,rectangle,-18.46484375,-14.08984375,1,0,0,-4,-2,"[152,13,129,112,42,130,74,102,138,119]",-18.46484375,-14.08984375,1,0,0,1,16,97,39,1,DarkBlue,DarkBlue.jpg,DarkBlue,DarkBlue.jpg,,
,,,,,,,,,,,,,,,,,,-3,,,,,,,,,,,,,,,,,,,,,,,,,,,,001,2021-12-16_17h18.31.216,jm_natural_scene_simialrity_2-12-2021_version2,2021.2.3,MacIntel,60.14675809,613d4999d6cec3e6772576d0,61bbc5c79a1c66460f44041e,61bbc60ce7ec0f522d4d0667,,,,,,-83.08203125,38.31640625,1,0,0,response7disk,1.0808,-7.109375,-1.76171875,1,0,0,rectangle,-7.109375,-1.76171875,1,0,0,-4,-2,"[152,13,129,112,42,130,74,102,138,119]",-7.109375,-1.76171875,1,0,0,1,17,98,53,1,LightGreen,LightGreen.jpg,Yellow,Yellow.jpg,,
,,,,,,,,,,,,,,,,,,-2,,,,,,,,,,,,,,,,,,,,,,,,,,,,001,2021-12-16_17h18.31.216,jm_natural_scene_simialrity_2-12-2021_version2,2021.2.3,MacIntel,60.14675809,613d4999d6cec3e6772576d0,61bbc5c79a1c66460f44041e,61bbc60ce7ec0f522d4d0667,,,,,,-54.5390625,-31.3671875,1,0,0,response5disk,1.0313,-10.68359375,-8.76171875,1,0,0,rectangle,-10.68359375,-8.76171875,1,0,0,-4,2,"[152,13,129,112,42,130,74,102,138,119]",-10.68359375,-8.76171875,1,0,0,1,18,99,74,1,Purple,Purple.jpg,Turquiose,Turquiose.jpg,,
,,,,,,,,,,,,,,,,,,-2,,,,,,,,,,,,,,,,,,,,,,,,,,,,001,2021-12-16_17h18.31.216,jm_natural_scene_simialrity_2-12-2021_version2,2021.2.3,MacIntel,60.14675809,613d4999d6cec3e6772576d0,61bbc5c79a1c66460f44041e,61bbc60ce7ec0f522d4d0667,,,,,,-113.6679688,-31.88671875,1,0,0,response5disk,1.5961,16.34375,9.73046875,1,0,0,rectangle,16.34375,9.73046875,1,0,0,-4,1,"[152,13,129,112,42,130,74,102,138,119]",16.34375,9.73046875,1,0,0,1,19,100,49,1,LightBlue,LightBlue.jpg,Red,Red.jpg,,
,,,,,,,,,,,,,,,,,,2,,,,,,,,,,,,,,,,,,,,,,,,,,,,001,2021-12-16_17h18.31.216,jm_natural_scene_simialrity_2-12-2021_version2,2021.2.3,MacIntel,60.14675809,613d4999d6cec3e6772576d0,61bbc5c79a1c66460f44041e,61bbc60ce7ec0f522d4d0667,,,,,,95.8203125,-51.50390625,1,0,0,response3disk,1.2644,-17.8203125,24.171875,1,0,0,rectangle,-77.8203125,-41.421875,1,0,0,-4,3,"[152,13,129,112,42,130,74,102,138,119]",-0.3359375,0.0859375,1,0,0,1,20,101,45,1,Yellow,Yellow.jpg,Red,Red.jpg,response5disk_3,rectangle
,,,,,,,,,,,,,,,,,,-2,,,,,,,,,,,,,,,,,,,,,,,,,,,,001,2021-12-16_17h18.31.216,jm_natural_scene_simialrity_2-12-2021_version2,2021.2.3,MacIntel,60.14675809,613d4999d6cec3e6772576d0,61bbc5c79a1c66460f44041e,61bbc60ce7ec0f522d4d0667,,,,,,-50.4921875,-39.6875,1,0,0,response5disk,3.9908,10.2578125,-3.9765625,1,0,0,rectangle,10.2578125,-3.9765625,1,0,0,-4,-4,"[152,13,129,112,42,130,74,102,138,119]",10.2578125,-3.9765625,1,0,0,1,21,102,56,1,LightBlue,LightBlue.jpg,Yellow,Yellow.jpg,,
,,,,,,,,,,,,,,,,,,4,,,,,,,,,,,,,,,,,,,,,,,,,,,,001,2021-12-16_17h18.31.216,jm_natural_scene_simialrity_2-12-2021_version2,2021.2.3,MacIntel,60.14675809,613d4999d6cec3e6772576d0,61bbc5c79a1c66460f44041e,61bbc60ce7ec0f522d4d0667,,,,,,42.8046875,87.63671875,1,0,0,response1disk,0.9463,13.12109375,-13.82421875,1,0,0,rectangle,13.12109375,-13.82421875,1,0,0,-4,-3,"[152,13,129,112,42,130,74,102,138,119]",13.12109375,-13.82421875,1,0,0,1,22,103,42,1,Pink,Pink.jpg,Pink,Pink.jpg,,
,,,,,,,,,,,,,,,,,,-3,,,,,,,,,,,,,,,,,,,,,,,,,,,,001,2021-12-16_17h18.31.216,jm_natural_scene_simialrity_2-12-2021_version2,2021.2.3,MacIntel,60.14675809,613d4999d6cec3e6772576d0,61bbc5c79a1c66460f44041e,61bbc60ce7ec0f522d4d0667,,,,,,-81.328125,29.4140625,1,0,0,response7disk,3.3587,7.6171875,3.25,1,0,0,rectangle,7.6171875,3.25,1,0,0,-4,-1,"[152,13,129,112,42,130,74,102,138,119]",7.6171875,3.25,1,0,0,1,23,104,13,1,Yellow,Yellow.jpg,LightBlue,LightBlue.jpg,,
,,,,,,,,,,,,,,,,,,4,,,,,,,,,,,,,,,,,,,,,,,,,,,,001,2021-12-16_17h18.31.216,jm_natural_scene_simialrity_2-12-2021_version2,2021.2.3,MacIntel,60.14675809,613d4999d6cec3e6772576d0,61bbc5c79a1c66460f44041e,61bbc60ce7ec0f522d4d0667,,,,,,30.32421875,77.4453125,1,0,0,response1disk,0.9473,-1.43359375,-12.84375,1,0,0,rectangle,-1.43359375,-12.84375,1,0,0,-4,-1,"[152,13,129,112,42,130,74,102,138,119]",-1.43359375,-12.84375,1,0,0,1,24,105,35,1,LightBlue,LightBlue.jpg,LightBlue,LightBlue.jpg,,
,,,,,,,,,,,,,,,,,,4,,,,,,,,,,,,,,,,,,,,,,,,,,,,001,2021-12-16_17h18.31.216,jm_natural_scene_simialrity_2-12-2021_version2,2021.2.3,MacIntel,60.14675809,613d4999d6cec3e6772576d0,61bbc5c79a1c66460f44041e,61bbc60ce7ec0f522d4d0667,,,,,,32.2890625,77.37109375,1,0,0,response1disk,1.0135,19.8515625,-4.078125,1,0,0,rectangle,19.8515625,-4.078125,1,0,0,-4,-1,"[152,13,129,112,42,130,74,102,138,119]",19.8515625,-4.078125,1,0,0,1,25,106,18,1,LightGreen,LightGreen.jpg,DarkGreen,DarkGreen.jpg,,
,,,,,,,,,,,,,,,,,,3,,,,,,,,,,,,,,,,,,,,,,,,,,,,001,2021-12-16_17h18.31.216,jm_natural_scene_simialrity_2-12-2021_version2,2021.2.3,MacIntel,60.14675809,613d4999d6cec3e6772576d0,61bbc5c79a1c66460f44041e,61bbc60ce7ec0f522d4d0667,,,,,,131.2265625,60.27734375,1,0,0,response1disk,2.3767,6.23046875,15.5546875,1,0,0,rectangle,6.23046875,15.5546875,1,0,0,-4,-3,"[152,13,129,112,42,130,74,102,138,119]",6.23046875,15.5546875,1,0,0,1,26,107,27,1,DarkGreen,DarkGreen.jpg,DarkBlue,DarkBlue.jpg,,
,,,,,,,,,,,,,,,,,,-2,,,,,,,,,,,,,,,,,,,,,,,,,,,,001,2021-12-16_17h18.31.216,jm_natural_scene_simialrity_2-12-2021_version2,2021.2.3,MacIntel,60.14675809,613d4999d6cec3e6772576d0,61bbc5c79a1c66460f44041e,61bbc60ce7ec0f522d4d0667,,,,,,-74.25,-36.6015625,1,0,0,response5disk,0.9971,10.16796875,2.02734375,1,0,0,rectangle,10.16796875,2.02734375,1,0,0,-4,3,"[152,13,129,112,42,130,74,102,138,119]",10.16796875,2.02734375,1,0,0,1,27,108,57,1,DarkBlue,DarkBlue.jpg,Yellow,Yellow.jpg,,
,,,,,,,,,,,,,,,,,,1,,,,,,,,,,,,,,,,,,,,,,,,,,,,001,2021-12-16_17h18.31.216,jm_natural_scene_simialrity_2-12-2021_version2,2021.2.3,MacIntel,60.14675809,613d4999d6cec3e6772576d0,61bbc5c79a1c66460f44041e,61bbc60ce7ec0f522d4d0667,,,,,,33.10546875,-100.5351563,1,0,0,response3disk,2.5448,-10.10546875,-10.328125,1,0,0,rectangle,-10.10546875,-10.328125,1,0,0,-4,-1,"[152,13,129,112,42,130,74,102,138,119]",-10.10546875,-10.328125,1,0,0,1,28,109,28,1,DarkGreen,DarkGreen.jpg,Pink,Pink.jpg,,
,,,,,,,,,,,,,,,,,,4,,,,,,,,,,,,,,,,,,,,,,,,,,,,001,2021-12-16_17h18.31.216,jm_natural_scene_simialrity_2-12-2021_version2,2021.2.3,MacIntel,60.14675809,613d4999d6cec3e6772576d0,61bbc5c79a1c66460f44041e,61bbc60ce7ec0f522d4d0667,,,,,,31.28515625,74.12890625,1,0,0,response1disk,1.1302,4.33203125,-4.6796875,1,0,0,rectangle,4.33203125,-4.6796875,1,0,0,-4,-1,"[152,13,129,112,42,130,74,102,138,119]",4.33203125,-4.6796875,1,0,0,1,29,110,51,1,Pink,Pink.jpg,Red,Red.jpg,,
,,,,,,,,,,,,,,,,,,-3,,,,,,,,,,,,,,,,,,,,,,,,,,,,001,2021-12-16_17h18.31.216,jm_natural_scene_simialrity_2-12-2021_version2,2021.2.3,MacIntel,60.14675809,613d4999d6cec3e6772576d0,61bbc5c79a1c66460f44041e,61bbc60ce7ec0f522d4d0667,,,,,,-73.359375,31.1796875,1,0,0,response7disk,1.1638,-4.3828125,13.0546875,1,0,0,rectangle,103.6523438,24.15234375,1,0,0,3,2,"[152,13,129,112,42,130,74,102,138,119]",13.54296875,5.82421875,1,0,0,1,30,111,80,1,Purple,Purple.jpg,Pink,Pink.jpg,response1disk_3,rectangle
,,,,,,,,,,,,,,,,,,-2,,,,,,,,,,,,,,,,,,,,,,,,,,,,001,2021-12-16_17h18.31.216,jm_natural_scene_simialrity_2-12-2021_version2,2021.2.3,MacIntel,60.14675809,613d4999d6cec3e6772576d0,61bbc5c79a1c66460f44041e,61bbc60ce7ec0f522d4d0667,,,,,,-93.0859375,-27.9140625,1,0,0,response5disk,2.1774,9.36328125,9.9140625,1,0,0,rectangle,9.36328125,9.9140625,1,0,0,3,3,"[152,13,129,112,42,130,74,102,138,119]",9.36328125,9.9140625,1,0,0,1,31,112,34,1,Turquiose,Turquiose.jpg,Purple,Purple.jpg,,
,,,,,,,,,,,,,,,,,,-2,,,,,,,,,,,,,,,,,,,,,,,,,,,,001,2021-12-16_17h18.31.216,jm_natural_scene_simialrity_2-12-2021_version2,2021.2.3,MacIntel,60.14675809,613d4999d6cec3e6772576d0,61bbc5c79a1c66460f44041e,61bbc60ce7ec0f522d4d0667,,,,,,-75.23046875,-64.18359375,1,0,0,response5disk,2.7276,1.48828125,0.2109375,1,0,0,rectangle,1.48828125,0.2109375,1,0,0,3,1,"[152,13,129,112,42,130,74,102,138,119]",1.48828125,0.2109375,1,0,0,1,32,113,36,1,LightBlue,LightBlue.jpg,DarkBlue,DarkBlue.jpg,,
,,,,,,,,,,,,,,,,,,-2,,,,,,,,,,,,,,,,,,,,,,,,,,,,001,2021-12-16_17h18.31.216,jm_natural_scene_simialrity_2-12-2021_version2,2021.2.3,MacIntel,60.14675809,613d4999d6cec3e6772576d0,61bbc5c79a1c66460f44041e,61bbc60ce7ec0f522d4d0667,,,,,,-53.26953125,-38.4921875,1,0,0,response5disk,1.4466,-0.5859375,-7.4375,1,0,0,rectangle,-0.5859375,-7.4375,1,0,0,3,-1,"[152,13,129,112,42,130,74,102,138,119]",-0.5859375,-7.4375,1,0,0,1,33,114,32,1,Turquiose,Turquiose.jpg,DarkBlue,DarkBlue.jpg,,
,,,,,,,,,,,,,,,,,,4,,,,,,,,,,,,,,,,,,,,,,,,,,,,001,2021-12-16_17h18.31.216,jm_natural_scene_simialrity_2-12-2021_version2,2021.2.3,MacIntel,60.14675809,613d4999d6cec3e6772576d0,61bbc5c79a1c66460f44041e,61bbc60ce7ec0f522d4d0667,,,,,,47.3046875,81.16796875,1,0,0,response1disk,1.0808,3.25390625,-7.6171875,1,0,0,rectangle,3.25390625,-7.6171875,1,0,0,3,-1,"[152,13,129,112,42,130,74,102,138,119]",3.25390625,-7.6171875,1,0,0,1,34,115,9,1,Yellow,Yellow.jpg,Yellow,Yellow.jpg,,
,,,,,,,,,,,,,,,,,,-2,,,,,,,,,,,,,,,,,,,,,,,,,,,,001,2021-12-16_17h18.31.216,jm_natural_scene_simialrity_2-12-2021_version2,2021.2.3,MacIntel,60.14675809,613d4999d6cec3e6772576d0,61bbc5c79a1c66460f44041e,61bbc60ce7ec0f522d4d0667,,,,,,-59.79296875,-32.49609375,1,0,0,response5disk,1.6967,-2.1875,15.234375,1,0,0,rectangle,-2.1875,15.234375,1,0,0,3,3,"[152,13,129,112,42,130,74,102,138,119]",-2.1875,15.234375,1,0,0,1,35,116,2,1,Red,Red.jpg,LightGreen,LightGreen.jpg,,
,,,,,,,,,,,,,,,,,,-3,,,,,,,,,,,,,,,,,,,,,,,,,,,,001,2021-12-16_17h18.31.216,jm_natural_scene_simialrity_2-12-2021_version2,2021.2.3,MacIntel,60.14675809,613d4999d6cec3e6772576d0,61bbc5c79a1c66460f44041e,61bbc60ce7ec0f522d4d0667,,,,,,-64.3515625,42.73828125,1,0,0,response7disk,1.9285,-6.49609375,2.1953125,1,0,0,rectangle,-6.49609375,2.1953125,1,0,0,3,-1,"[152,13,129,112,42,130,74,102,138,119]",-6.49609375,2.1953125,1,0,0,1,36,117,14,1,Yellow,Yellow.jpg,DarkBlue,DarkBlue.jpg,,
,,,,,,,,,,,,,,,,,,-2,,,,,,,,,,,,,,,,,,,,,,,,,,,,001,2021-12-16_17h18.31.216,jm_natural_scene_simialrity_2-12-2021_version2,2021.2.3,MacIntel,60.14675809,613d4999d6cec3e6772576d0,61bbc5c79a1c66460f44041e,61bbc60ce7ec0f522d4d0667,,,,,,-82.3203125,-55.15234375,1,0,0,response5disk,3.3918,0.484375,5.58984375,1,0,0,rectangle,-92.15625,33.30859375,1,0,0,-3,-4,"[152,13,129,112,42,130,74,102,138,119]",-4.38671875,18.109375,1,0,0,1,37,118,78,1,Pink,Pink.jpg,DarkBlue,DarkBlue.jpg,response7disk_3,rectangle
,,,,,,,,,,,,,,,,,,2,,,,,,,,,,,,,,,,,,,,,,,,,,,,001,2021-12-16_17h18.31.216,jm_natural_scene_simialrity_2-12-2021_version2,2021.2.3,MacIntel,60.14675809,613d4999d6cec3e6772576d0,61bbc5c79a1c66460f44041e,61bbc60ce7ec0f522d4d0667,,,,,,88.453125,-88.1640625,1,0,0,response3disk,1.3795,5.83984375,11.42578125,1,0,0,rectangle,5.83984375,11.42578125,1,0,0,-3,-4,"[152,13,129,112,42,130,74,102,138,119]",5.83984375,11.42578125,1,0,0,1,38,119,68,1,DarkBlue,DarkBlue.jpg,DarkGreen,DarkGreen.jpg,,
,,,,,,,,,,,,,,,,,,-1,,,,,,,,,,,,,,,,,,,,,,,,,,,,001,2021-12-16_17h18.31.216,jm_natural_scene_simialrity_2-12-2021_version2,2021.2.3,MacIntel,60.14675809,613d4999d6cec3e6772576d0,61bbc5c79a1c66460f44041e,61bbc60ce7ec0f522d4d0667,,,,,,-64.1328125,-66.98046875,1,0,0,response5disk,2.4278,12.2578125,2.3828125,1,0,0,rectangle,12.2578125,2.3828125,1,0,0,-3,-3,"[152,13,129,112,42,130,74,102,138,119]",12.2578125,2.3828125,1,0,0,1,39,120,22,1,LightGreen,LightGreen.jpg,Pink,Pink.jpg,,
,,,,,,,,,,,,,,,,,,-2,,,,,,,,,,,,,,,,,,,,,,,,,,,,001,2021-12-16_17h18.31.216,jm_natural_scene_simialrity_2-12-2021_version2,2021.2.3,MacIntel,60.14675809,613d4999d6cec3e6772576d0,61bbc5c79a1c66460f44041e,61bbc60ce7ec0f522d4d0667,,,,,,-75.8671875,-52.4296875,1,0,0,response5disk,2.9597,-10.5,-15.6328125,1,0,0,rectangle,-10.5,-15.6328125,1,0,0,-3,-3,"[152,13,129,112,42,130,74,102,138,119]",-10.5,-15.6328125,1,0,0,1,40,121,58,1,Pink,Pink.jpg,Yellow,Yellow.jpg,,
,,,,,,,,,,,,,,,,,,3,,,,,,,,,,,,,,,,,,,,,,,,,,,,001,2021-12-16_17h18.31.216,jm_natural_scene_simialrity_2-12-2021_version2,2021.2.3,MacIntel,60.14675809,613d4999d6cec3e6772576d0,61bbc5c79a1c66460f44041e,61bbc60ce7ec0f522d4d0667,,,,,,80.67578125,30.65625,1,0,0,response1disk,1.1466,-20.30078125,-5.8828125,1,0,0,rectangle,-20.30078125,-5.8828125,1,0,0,-3,-3,"[152,13,129,112,42,130,74,102,138,119]",-20.30078125,-5.8828125,1,0,0,1,41,122,10,1,Yellow,Yellow.jpg,LightGreen,LightGreen.jpg,,
,,,,,,,,,,,,,,,,,,3,,,,,,,,,,,,,,,,,,,,,,,,,,,,001,2021-12-16_17h18.31.216,jm_natural_scene_simialrity_2-12-2021_version2,2021.2.3,MacIntel,60.14675809,613d4999d6cec3e6772576d0,61bbc5c79a1c66460f44041e,61bbc60ce7ec0f522d4d0667,,,,,,65.29296875,20.73828125,1,0,0,response1disk,1.0984,-1.85546875,3.5390625,1,0,0,rectangle,-1.85546875,3.5390625,1,0,0,-3,-1,"[152,13,129,112,42,130,74,102,138,119]",-1.85546875,3.5390625,1,0,0,1,42,123,67,1,LightBlue,LightBlue.jpg,DarkGreen,DarkGreen.jpg,,
,,,,,,,,,,,,,,,,,,3,,,,,,,,,,,,,,,,,,,,,,,,,,,,001,2021-12-16_17h18.31.216,jm_natural_scene_simialrity_2-12-2021_version2,2021.2.3,MacIntel,60.14675809,613d4999d6cec3e6772576d0,61bbc5c79a1c66460f44041e,61bbc60ce7ec0f522d4d0667,,,,,,67.44140625,34.2734375,1,0,0,response1disk,1.0143,-8.51171875,12.5546875,1,0,0,rectangle,-8.51171875,12.5546875,1,0,0,-3,-2,"[152,13,129,112,42,130,74,102,138,119]",-8.51171875,12.5546875,1,0,0,1,43,124,15,1,Yellow,Yellow.jpg,Pink,Pink.jpg,,
,,,,,,,,,,,,,,,,,,2,,,,,,,,,,,,,,,,,,,,,,,,,,,,001,2021-12-16_17h18.31.216,jm_natural_scene_simialrity_2-12-2021_version2,2021.2.3,MacIntel,60.14675809,613d4999d6cec3e6772576d0,61bbc5c79a1c66460f44041e,61bbc60ce7ec0f522d4d0667,,,,,,112.078125,-29.5234375,1,0,0,response3disk,1.2629,11.1171875,10.2421875,1,0,0,rectangle,11.1171875,10.2421875,1,0,0,-3,3,"[152,13,129,112,42,130,74,102,138,119]",11.1171875,10.2421875,1,0,0,1,44,125,25,1,DarkGreen,DarkGreen.jpg,Turquiose,Turquiose.jpg,,
,,,,,,,,,,,,,,,,,,1,,,,,,,,,,,,,,,,,,,,,,,,,,,,001,2021-12-16_17h18.31.216,jm_natural_scene_simialrity_2-12-2021_version2,2021.2.3,MacIntel,60.14675809,613d4999d6cec3e6772576d0,61bbc5c79a1c66460f44041e,61bbc60ce7ec0f522d4d0667,,,,,,45.7109375,-76.91796875,1,0,0,response3disk,1.6472,9.7734375,-11.7890625,1,0,0,rectangle,9.7734375,-11.7890625,1,0,0,-3,1,"[152,13,129,112,42,130,74,102,138,119]",9.7734375,-11.7890625,1,0,0,1,45,126,66,1,Turquiose,Turquiose.jpg,DarkGreen,DarkGreen.jpg,,
,,,,,,,,,,,,,,,,,,-1,,,,,,,,,,,,,,,,,,,,,,,,,,,,001,2021-12-16_17h18.31.216,jm_natural_scene_simialrity_2-12-2021_version2,2021.2.3,MacIntel,60.14675809,613d4999d6cec3e6772576d0,61bbc5c79a1c66460f44041e,61bbc60ce7ec0f522d4d0667,,,,,,-53.546875,-124.2109375,1,0,0,response5disk,1.0804,-2.19921875,14.24609375,1,0,0,rectangle,-2.19921875,14.24609375,1,0,0,-3,-4,"[152,13,129,112,42,130,74,102,138,119]",-2.19921875,14.24609375,1,0,0,1,46,127,31,1,Turquiose,Turquiose.jpg,LightBlue,LightBlue.jpg,,
,,,,,,,,,,,,,,,,,,-2,,,,,,,,,,,,,,,,,,,,,,,,,,,,001,2021-12-16_17h18.31.216,jm_natural_scene_simialrity_2-12-2021_version2,2021.2.3,MacIntel,60.14675809,613d4999d6cec3e6772576d0,61bbc5c79a1c66460f44041e,61bbc60ce7ec0f522d4d0667,,,,,,-91.31640625,-53.96484375,1,0,0,response5disk,1.9785,11.40234375,19.43359375,1,0,0,rectangle,-81.90234375,-43.8125,1,0,0,-3,-1,"[152,13,129,112,42,130,74,102,138,119]",1.8046875,4.125,1,0,0,1,47,128,37,1,LightBlue,LightBlue.jpg,Pink,Pink.jpg,response5disk_3,rectangle
,,,,,,,,,,,,,,,,,,-2,,,,,,,,,,,,,,,,,,,,,,,,,,,,001,2021-12-16_17h18.31.216,jm_natural_scene_simialrity_2-12-2021_version2,2021.2.3,MacIntel,60.14675809,613d4999d6cec3e6772576d0,61bbc5c79a1c66460f44041e,61bbc60ce7ec0f522d4d0667,,,,,,-95.0390625,-32.22265625,1,0,0,response5disk,3.592,14.5390625,18.859375,1,0,0,rectangle,-112.8710938,42.3203125,1,0,0,-3,-1,"[152,13,129,112,42,130,74,102,138,119]",-5.22265625,20.828125,1,0,0,1,48,129,64,1,Pink,Pink.jpg,LightGreen,LightGreen.jpg,response7disk_3,rectangle
,,,,,,,,,,,,,,,,,,-4,,,,,,,,,,,,,,,,,,,,,,,,,,,,001,2021-12-16_17h18.31.216,jm_natural_scene_simialrity_2-12-2021_version2,2021.2.3,MacIntel,60.14675809,613d4999d6cec3e6772576d0,61bbc5c79a1c66460f44041e,61bbc60ce7ec0f522d4d0667,,,,,,-64.92578125,80.1171875,1,0,0,response7disk,1.9791,5.7109375,-9.3828125,1,0,0,rectangle,5.7109375,-9.3828125,1,0,0,-3,-2,"[152,13,129,112,42,130,74,102,138,119]",5.7109375,-9.3828125,1,0,0,1,49,130,46,1,LightGreen,LightGreen.jpg,Red,Red.jpg,,
,,,,,,,,,,,,,,,,,,4,,,,,,,,,,,,,,,,,,,,,,,,,,,,001,2021-12-16_17h18.31.216,jm_natural_scene_simialrity_2-12-2021_version2,2021.2.3,MacIntel,60.14675809,613d4999d6cec3e6772576d0,61bbc5c79a1c66460f44041e,61bbc60ce7ec0f522d4d0667,,,,,,55.921875,84.4765625,1,0,0,response1disk,0.8645,8.58203125,3.86328125,1,0,0,rectangle,8.58203125,3.86328125,1,0,0,-3,3,"[152,13,129,112,42,130,74,102,138,119]",8.58203125,3.86328125,1,0,0,1,50,131,30,1,Turquiose,Turquiose.jpg,Turquiose,Turquiose.jpg,,
,,,,,,,,,,,,,,,,,,4,,,,,,,,,,,,,,,,,,,,,,,,,,,,001,2021-12-16_17h18.31.216,jm_natural_scene_simialrity_2-12-2021_version2,2021.2.3,MacIntel,60.14675809,613d4999d6cec3e6772576d0,61bbc5c79a1c66460f44041e,61bbc60ce7ec0f522d4d0667,,,,,,35.65234375,92.53125,1,0,0,response1disk,0.8476,13.87890625,11.75390625,1,0,0,rectangle,13.87890625,11.75390625,1,0,0,-3,2,"[152,13,129,112,42,130,74,102,138,119]",13.87890625,11.75390625,1,0,0,1,51,132,24,1,DarkGreen,DarkGreen.jpg,DarkGreen,DarkGreen.jpg,,
,,,,,,,,,,,,,,,,,,-2,,,,,,,,,,,,,,,,,,,,,,,,,,,,001,2021-12-16_17h18.31.216,jm_natural_scene_simialrity_2-12-2021_version2,2021.2.3,MacIntel,60.14675809,613d4999d6cec3e6772576d0,61bbc5c79a1c66460f44041e,61bbc60ce7ec0f522d4d0667,,,,,,-85.109375,-26.8984375,1,0,0,response5disk,1.3462,-4.5078125,18.7890625,1,0,0,rectangle,-4.5078125,18.7890625,1,0,0,-3,-2,"[152,13,129,112,42,130,74,102,138,119]",-4.5078125,18.7890625,1,0,0,1,52,133,79,1,Purple,Purple.jpg,DarkBlue,DarkBlue.jpg,,
,,,,,,,,,,,,,,,,,,-3,,,,,,,,,,,,,,,,,,,,,,,,,,,,001,2021-12-16_17h18.31.216,jm_natural_scene_simialrity_2-12-2021_version2,2021.2.3,MacIntel,60.14675809,613d4999d6cec3e6772576d0,61bbc5c79a1c66460f44041e,61bbc60ce7ec0f522d4d0667,,,,,,-94.6171875,52.63671875,1,0,0,response7disk,0.9481,10.44140625,6.3671875,1,0,0,rectangle,10.44140625,6.3671875,1,0,0,-3,-4,"[152,13,129,112,42,130,74,102,138,119]",10.44140625,6.3671875,1,0,0,1,53,134,54,1,DarkGreen,DarkGreen.jpg,Yellow,Yellow.jpg,,
,,,,,,,,,,,,,,,,,,-3,,,,,,,,,,,,,,,,,,,,,,,,,,,,001,2021-12-16_17h18.31.216,jm_natural_scene_simialrity_2-12-2021_version2,2021.2.3,MacIntel,60.14675809,613d4999d6cec3e6772576d0,61bbc5c79a1c66460f44041e,61bbc60ce7ec0f522d4d0667,,,,,,-103.84375,42.64453125,1,0,0,response7disk,0.7983,-4.50390625,23.28515625,1,0,0,rectangle,-4.50390625,23.28515625,1,0,0,-3,-4,"[152,13,129,112,42,130,74,102,138,119]",-4.50390625,23.28515625,1,0,0,1,54,135,3,1,Red,Red.jpg,DarkGreen,DarkGreen.jpg,,
,,,,,,,,,,,,,,,,,,-3,,,,,,,,,,,,,,,,,,,,,,,,,,,,001,2021-12-16_17h18.31.216,jm_natural_scene_simialrity_2-12-2021_version2,2021.2.3,MacIntel,60.14675809,613d4999d6cec3e6772576d0,61bbc5c79a1c66460f44041e,61bbc60ce7ec0f522d4d0667,,,,,,-101.7695313,49.51953125,1,0,0,response7disk,0.8982,16.0703125,-1.56640625,1,0,0,rectangle,16.0703125,-1.56640625,1,0,0,-3,-1,"[152,13,129,112,42,130,74,102,138,119]",16.0703125,-1.56640625,1,0,0,1,55,136,73,1,Pink,Pink.jpg,Turquiose,Turquiose.jpg,,
,,,,,,,,,,,,,,,,,,-3,,,,,,,,,,,,,,,,,,,,,,,,,,,,001,2021-12-16_17h18.31.216,jm_natural_scene_simialrity_2-12-2021_version2,2021.2.3,MacIntel,60.14675809,613d4999d6cec3e6772576d0,61bbc5c79a1c66460f44041e,61bbc60ce7ec0f522d4d0667,,,,,,-84.08984375,66.18359375,1,0,0,response7disk,1.4469,9.36328125,8,1,0,0,rectangle,-51.515625,-115.4609375,1,0,0,-1,-1,"[152,13,129,112,42,130,74,102,138,119]",4.1640625,-3.44921875,1,0,0,1,56,137,29,1,DarkGreen,DarkGreen.jpg,Purple,Purple.jpg,response5disk_3,rectangle
,,,,,,,,,,,,,,,,,,-3,,,,,,,,,,,,,,,,,,,,,,,,,,,,001,2021-12-16_17h18.31.216,jm_natural_scene_simialrity_2-12-2021_version2,2021.2.3,MacIntel,60.14675809,613d4999d6cec3e6772576d0,61bbc5c79a1c66460f44041e,61bbc60ce7ec0f522d4d0667,,,,,,-114.25,45.91015625,1,0,0,response7disk,1.4807,-12.75390625,-13.57421875,1,0,0,rectangle,-12.75390625,-13.57421875,1,0,0,-1,-1,"[152,13,129,112,42,130,74,102,138,119]",-12.75390625,-13.57421875,1,0,0,1,57,138,69,1,Pink,Pink.jpg,DarkGreen,DarkGreen.jpg,,
,,,,,,,,,,,,,,,,,,4,,,,,,,,,,,,,,,,,,,,,,,,,,,,001,2021-12-16_17h18.31.216,jm_natural_scene_simialrity_2-12-2021_version2,2021.2.3,MacIntel,60.14675809,613d4999d6cec3e6772576d0,61bbc5c79a1c66460f44041e,61bbc60ce7ec0f522d4d0667,,,,,,33.69140625,82.1875,1,0,0,response1disk,0.8633,-6.57421875,21.66015625,1,0,0,rectangle,-6.57421875,21.66015625,1,0,0,-1,-1,"[152,13,129,112,42,130,74,102,138,119]",-6.57421875,21.66015625,1,0,0,1,58,139,17,1,LightGreen,LightGreen.jpg,LightGreen,LightGreen.jpg,,
,,,,,,,,,,,,,,,,,,-1,,,,,,,,,,,,,,,,,,,,,,,,,,,,001,2021-12-16_17h18.31.216,jm_natural_scene_simialrity_2-12-2021_version2,2021.2.3,MacIntel,60.14675809,613d4999d6cec3e6772576d0,61bbc5c79a1c66460f44041e,61bbc60ce7ec0f522d4d0667,,,,,,-25.5390625,-98.4375,1,0,0,response5disk,1.7623,0.6484375,15.3125,1,0,0,rectangle,0.6484375,15.3125,1,0,0,-1,1,"[152,13,129,112,42,130,74,102,138,119]",0.6484375,15.3125,1,0,0,1,59,140,59,1,Purple,Purple.jpg,Yellow,Yellow.jpg,,
,,,,,,,,,,,,,,,,,,-1,,,,,,,,,,,,,,,,,,,,,,,,,,,,001,2021-12-16_17h18.31.216,jm_natural_scene_simialrity_2-12-2021_version2,2021.2.3,MacIntel,60.14675809,613d4999d6cec3e6772576d0,61bbc5c79a1c66460f44041e,61bbc60ce7ec0f522d4d0667,,,,,,-34.72265625,-86.07421875,1,0,0,response5disk,1.0643,-4.453125,7.84765625,1,0,0,rectangle,-4.453125,7.84765625,1,0,0,-1,2,"[152,13,129,112,42,130,74,102,138,119]",-4.453125,7.84765625,1,0,0,1,60,141,65,1,Purple,Purple.jpg,LightGreen,LightGreen.jpg,,
,,,,,,,,,,,,,,,,,,-3,,,,,,,,,,,,,,,,,,,,,,,,,,,,001,2021-12-16_17h18.31.216,jm_natural_scene_simialrity_2-12-2021_version2,2021.2.3,MacIntel,60.14675809,613d4999d6cec3e6772576d0,61bbc5c79a1c66460f44041e,61bbc60ce7ec0f522d4d0667,,,,,,-76.48828125,47.43359375,1,0,0,response7disk,1.1473,6.09765625,17.171875,1,0,0,rectangle,6.09765625,17.171875,1,0,0,-1,-1,"[152,13,129,112,42,130,74,102,138,119]",6.09765625,17.171875,1,0,0,1,61,142,48,1,Turquiose,Turquiose.jpg,Red,Red.jpg,,
,,,,,,,,,,,,,,,,,,-3,,,,,,,,,,,,,,,,,,,,,,,,,,,,001,2021-12-16_17h18.31.216,jm_natural_scene_simialrity_2-12-2021_version2,2021.2.3,MacIntel,60.14675809,613d4999d6cec3e6772576d0,61bbc5c79a1c66460f44041e,61bbc60ce7ec0f522d4d0667,,,,,,-78.86328125,42.5390625,1,0,0,response7disk,0.8147,10.24609375,18.34765625,1,0,0,rectangle,10.24609375,18.34765625,1,0,0,-1,-3,"[152,13,129,112,42,130,74,102,138,119]",10.24609375,18.34765625,1,0,0,1,62,143,71,1,LightBlue,LightBlue.jpg,Turquiose,Turquiose.jpg,,
,,,,,,,,,,,,,,,,,,-2,,,,,,,,,,,,,,,,,,,,,,,,,,,,001,2021-12-16_17h18.31.216,jm_natural_scene_simialrity_2-12-2021_version2,2021.2.3,MacIntel,60.14675809,613d4999d6cec3e6772576d0,61bbc5c79a1c66460f44041e,61bbc60ce7ec0f522d4d0667,,,,,,-77.13671875,-25.55078125,1,0,0,response5disk,1.5456,-3.04296875,-13.56640625,1,0,0,rectangle,-3.04296875,-13.56640625,1,0,0,-1,-3,"[152,13,129,112,42,130,74,102,138,119]",-3.04296875,-13.56640625,1,0,0,1,63,144,72,1,DarkBlue,DarkBlue.jpg,Turquiose,Turquiose.jpg,,
,,,,,,,,,,,,,,,,,,-4,,,,,,,,,,,,,,,,,,,,,,,,,,,,001,2021-12-16_17h18.31.216,jm_natural_scene_simialrity_2-12-2021_version2,2021.2.3,MacIntel,60.14675809,613d4999d6cec3e6772576d0,61bbc5c79a1c66460f44041e,61bbc60ce7ec0f522d4d0667,,,,,,-66.37109375,91.41015625,1,0,0,response7disk,1.6129,-19.73828125,3.9375,1,0,0,rectangle,-19.73828125,3.9375,1,0,0,-1,-1,"[152,13,129,112,42,130,74,102,138,119]",-19.73828125,3.9375,1,0,0,1,64,145,11,1,Yellow,Yellow.jpg,DarkGreen,DarkGreen.jpg,,
,,,,,,,,,,,,,,,,,,-4,,,,,,,,,,,,,,,,,,,,,,,,,,,,001,2021-12-16_17h18.31.216,jm_natural_scene_simialrity_2-12-2021_version2,2021.2.3,MacIntel,60.14675809,613d4999d6cec3e6772576d0,61bbc5c79a1c66460f44041e,61bbc60ce7ec0f522d4d0667,,,,,,-53.2890625,72.359375,1,0,0,response7disk,1.2802,2.37109375,7.09765625,1,0,0,rectangle,2.37109375,7.09765625,1,0,0,-1,3,"[152,13,129,112,42,130,74,102,138,119]",2.37109375,7.09765625,1,0,0,1,65,146,6,1,Red,Red.jpg,DarkBlue,DarkBlue.jpg,,
,,,,,,,,,,,,,,,,,,-4,,,,,,,,,,,,,,,,,,,,,,,,,,,,001,2021-12-16_17h18.31.216,jm_natural_scene_simialrity_2-12-2021_version2,2021.2.3,MacIntel,60.14675809,613d4999d6cec3e6772576d0,61bbc5c79a1c66460f44041e,61bbc60ce7ec0f522d4d0667,,,,,,-54.41796875,98.140625,1,0,0,response7disk,1.0145,2.56640625,5.765625,1,0,0,rectangle,2.56640625,5.765625,1,0,0,-1,-2,"[152,13,129,112,42,130,74,102,138,119]",2.56640625,5.765625,1,0,0,1,66,147,33,1,Turquiose,Turquiose.jpg,Pink,Pink.jpg,,
,,,,,,,,,,,,,,,,,,-4,,,,,,,,,,,,,,,,,,,,,,,,,,,,001,2021-12-16_17h18.31.216,jm_natural_scene_simialrity_2-12-2021_version2,2021.2.3,MacIntel,60.14675809,613d4999d6cec3e6772576d0,61bbc5c79a1c66460f44041e,61bbc60ce7ec0f522d4d0667,,,,,,-53.99609375,76.98046875,1,0,0,response7disk,1.0984,13.46875,-14.95703125,1,0,0,rectangle,13.46875,-14.95703125,1,0,0,-1,3,"[152,13,129,112,42,130,74,102,138,119]",13.46875,-14.95703125,1,0,0,1,67,148,77,1,Purple,Purple.jpg,LightBlue,LightBlue.jpg,,
,,,,,,,,,,,,,,,,,,4,,,,,,,,,,,,,,,,,,,,,,,,,,,,001,2021-12-16_17h18.31.216,jm_natural_scene_simialrity_2-12-2021_version2,2021.2.3,MacIntel,60.14675809,613d4999d6cec3e6772576d0,61bbc5c79a1c66460f44041e,61bbc60ce7ec0f522d4d0667,,,,,,54.6328125,90.33984375,1,0,0,response1disk,1.0304,-4.88671875,11.953125,1,0,0,rectangle,-4.88671875,11.953125,1,0,0,-1,-4,"[152,13,129,112,42,130,74,102,138,119]",-4.88671875,11.953125,1,0,0,1,68,149,0,1,Red,Red.jpg,Red,Red.jpg,,
,,,,,,,,,,,,,,,,,,-3,,,,,,,,,,,,,,,,,,,,,,,,,,,,001,2021-12-16_17h18.31.216,jm_natural_scene_simialrity_2-12-2021_version2,2021.2.3,MacIntel,60.14675809,613d4999d6cec3e6772576d0,61bbc5c79a1c66460f44041e,61bbc60ce7ec0f522d4d0667,,,,,,-108.515625,48.5,1,0,0,response7disk,1.0803,17.0390625,8.28125,1,0,0,rectangle,17.0390625,8.28125,1,0,0,-1,1,"[152,13,129,112,42,130,74,102,138,119]",17.0390625,8.28125,1,0,0,1,69,150,50,1,DarkBlue,DarkBlue.jpg,Red,Red.jpg,,
,,,,,,,,,,,,,,,,,,-2,,,,,,,,,,,,,,,,,,,,,,,,,,,,001,2021-12-16_17h18.31.216,jm_natural_scene_simialrity_2-12-2021_version2,2021.2.3,MacIntel,60.14675809,613d4999d6cec3e6772576d0,61bbc5c79a1c66460f44041e,61bbc60ce7ec0f522d4d0667,,,,,,-74.39453125,-38.6875,1,0,0,response5disk,2.2459,-1.31640625,1.10546875,1,0,0,rectangle,-115.5390625,-43.125,1,0,0,-1,-2,"[152,13,129,112,42,130,74,102,138,119]",-7.921875,-2.11328125,1,0,0,1,70,151,52,1,Purple,Purple.jpg,Red,Red.jpg,response5disk_3,rectangle
,,,,,,,,,,,,,,,,,,-3,,,,,,,,,,,,,,,,,,,,,,,,,,,,001,2021-12-16_17h18.31.216,jm_natural_scene_simialrity_2-12-2021_version2,2021.2.3,MacIntel,60.14675809,613d4999d6cec3e6772576d0,61bbc5c79a1c66460f44041e,61bbc60ce7ec0f522d4d0667,,,,,,-75.30859375,57.296875,1,0,0,response7disk,1.2637,-16.63671875,4.828125,1,0,0,rectangle,-16.63671875,4.828125,1,0,0,-1,3,"[152,13,129,112,42,130,74,102,138,119]",-16.63671875,4.828125,1,0,0,1,71,152,40,1,DarkBlue,DarkBlue.jpg,Pink,Pink.jpg,,
,,,,,,,,,,,,,,,,,,-3,,,,,,,,,,,,,,,,,,,,,,,,,,,,001,2021-12-16_17h18.31.216,jm_natural_scene_simialrity_2-12-2021_version2,2021.2.3,MacIntel,60.14675809,613d4999d6cec3e6772576d0,61bbc5c79a1c66460f44041e,61bbc60ce7ec0f522d4d0667,,,,,,-89.296875,39.55859375,1,0,0,response7disk,1.081,2.76171875,-2.49609375,1,0,0,rectangle,2.76171875,-2.49609375,1,0,0,-1,1,"[152,13,129,112,42,130,74,102,138,119]",2.76171875,-2.49609375,1,0,0,1,72,153,61,1,Turquiose,Turquiose.jpg,LightGreen,LightGreen.jpg,,
,,,,,,,,,,,,,,,,,,2,,,,,,,,,,,,,,,,,,,,,,,,,,,,001,2021-12-16_17h18.31.216,jm_natural_scene_simialrity_2-12-2021_version2,2021.2.3,MacIntel,60.14675809,613d4999d6cec3e6772576d0,61bbc5c79a1c66460f44041e,61bbc60ce7ec0f522d4d0667,,,,,,112.7851563,-41.02734375,1,0,0,response3disk,1.4974,21.5703125,19.640625,1,0,0,rectangle,21.5703125,19.640625,1,0,0,3,-4,"[152,13,129,112,42,130,74,102,138,119]",21.5703125,19.640625,1,0,0,1,73,154,62,1,LightBlue,LightBlue.jpg,LightGreen,LightGreen.jpg,,
,,,,,,,,,,,,,,,,,,-1,,,,,,,,,,,,,,,,,,,,,,,,,,,,001,2021-12-16_17h18.31.216,jm_natural_scene_simialrity_2-12-2021_version2,2021.2.3,MacIntel,60.14675809,613d4999d6cec3e6772576d0,61bbc5c79a1c66460f44041e,61bbc60ce7ec0f522d4d0667,,,,,,-31.8671875,-35.05078125,1,0,0,response5disk,1.1134,-22.01953125,4.28515625,1,0,0,rectangle,-22.01953125,4.28515625,1,0,0,3,3,"[152,13,129,112,42,130,74,102,138,119]",-22.01953125,4.28515625,1,0,0,1,74,155,63,1,DarkBlue,DarkBlue.jpg,LightGreen,LightGreen.jpg,,
,,,,,,,,,,,,,,,,,,-2,,,,,,,,,,,,,,,,,,,,,,,,,,,,001,2021-12-16_17h18.31.216,jm_natural_scene_simialrity_2-12-2021_version2,2021.2.3,MacIntel,60.14675809,613d4999d6cec3e6772576d0,61bbc5c79a1c66460f44041e,61bbc60ce7ec0f522d4d0667,,,,,,-85.84765625,-60.9375,1,0,0,response5disk,1.3301,2.609375,-9.1171875,1,0,0,rectangle,2.609375,-9.1171875,1,0,0,3,1,"[152,13,129,112,42,130,74,102,138,119]",2.609375,-9.1171875,1,0,0,1,75,156,8,1,Red,Red.jpg,Purple,Purple.jpg,,
,,,,,,,,,,,,,,,,,,-1,,,,,,,,,,,,,,,,,,,,,,,,,,,,001,2021-12-16_17h18.31.216,jm_natural_scene_simialrity_2-12-2021_version2,2021.2.3,MacIntel,60.14675809,613d4999d6cec3e6772576d0,61bbc5c79a1c66460f44041e,61bbc60ce7ec0f522d4d0667,,,,,,-35.82421875,-120.2304688,1,0,0,response5disk,1.5468,-7.74609375,-11.0234375,1,0,0,rectangle,-7.74609375,-11.0234375,1,0,0,3,2,"[152,13,129,112,42,130,74,102,138,119]",-7.74609375,-11.0234375,1,0,0,1,76,157,23,1,LightGreen,LightGreen.jpg,Purple,Purple.jpg,,
,,,,,,,,,,,,,,,,,,-2,,,,,,,,,,,,,,,,,,,,,,,,,,,,001,2021-12-16_17h18.31.216,jm_natural_scene_simialrity_2-12-2021_version2,2021.2.3,MacIntel,60.14675809,613d4999d6cec3e6772576d0,61bbc5c79a1c66460f44041e,61bbc60ce7ec0f522d4d0667,,,,,,-101.7734375,-48.01171875,1,0,0,response5disk,1.7781,-10.23828125,-3.48828125,1,0,0,rectangle,-10.23828125,-3.48828125,1,0,0,3,1,"[152,13,129,112,42,130,74,102,138,119]",-10.23828125,-3.48828125,1,0,0,1,77,158,75,1,DarkBlue,DarkBlue.jpg,LightBlue,LightBlue.jpg,,
,,,,,,,,,,,,,,,,,,4,,,,,,,,,,,,,,,,,,,,,,,,,,,,001,2021-12-16_17h18.31.216,jm_natural_scene_simialrity_2-12-2021_version2,2021.2.3,MacIntel,60.14675809,613d4999d6cec3e6772576d0,61bbc5c79a1c66460f44041e,61bbc60ce7ec0f522d4d0667,,,,,,30.44921875,65.7421875,1,0,0,response1disk,0.9972,-9.72265625,-3.36328125,1,0,0,rectangle,-9.72265625,-3.36328125,1,0,0,3,2,"[152,13,129,112,42,130,74,102,138,119]",-9.72265625,-3.36328125,1,0,0,1,78,159,60,1,DarkGreen,DarkGreen.jpg,LightGreen,LightGreen.jpg,,
,,,,,,,,,,,,,,,,,,2,,,,,,,,,,,,,,,,,,,,,,,,,,,,001,2021-12-16_17h18.31.216,jm_natural_scene_simialrity_2-12-2021_version2,2021.2.3,MacIntel,60.14675809,613d4999d6cec3e6772576d0,61bbc5c79a1c66460f44041e,61bbc60ce7ec0f522d4d0667,,,,,,83.26953125,-52.90234375,1,0,0,response3disk,2.4772,18.6640625,-20.5390625,1,0,0,rectangle,18.6640625,-20.5390625,1,0,0,1,-1,"[152,13,129,112,42,130,74,102,138,119]",18.6640625,-20.5390625,1,0,0,1,79,160,7,1,Red,Red.jpg,Pink,Pink.jpg,,
,,,,,,,,,,,,,,,,,,-3,,,,,,,,,,,,,,,,,,,,,,,,,,,,001,2021-12-16_17h18.31.216,jm_natural_scene_simialrity_2-12-2021_version2,2021.2.3,MacIntel,60.14675809,613d4999d6cec3e6772576d0,61bbc5c79a1c66460f44041e,61bbc60ce7ec0f522d4d0667,,,,,,-60.41796875,31.97265625,1,0,0,response7disk,3.9572,14.515625,0.8125,1,0,0,rectangle,14.515625,0.8125,1,0,0,1,1,"[152,13,129,112,42,130,74,102,138,119]",14.515625,0.8125,1,0,0,1,80,161,16,1,Yellow,Yellow.jpg,Purple,Purple.jpg,,
