key_resp.keys,key_resp.rt,key_resp_16.keys,key_resp_16.rt,key_resp_2.keys,key_resp_2.rt,key_resp_3.keys,key_resp_3.rt,key_resp_19.keys,key_resp_19.rt,key_resp_10.keys,key_resp_10.rt,mouse_prac.x,mouse_prac.y,mouse_prac.leftButton,mouse_prac.midButton,mouse_prac.rightButton,mouse_prac.clicked_name,similarity,mouse_10.x,mouse_10.y,mouse_10.leftButton,mouse_10.midButton,mouse_10.rightButton,mouse_10.clicked_name,mouse_catch_prac.x,mouse_catch_prac.y,mouse_catch_prac.leftButton,mouse_catch_prac.midButton,mouse_catch_prac.rightButton,mouse_catch_prac.clicked_name,catchprac,catchnumberprac,mouse_6.x,mouse_6.y,mouse_6.leftButton,mouse_6.midButton,mouse_6.rightButton,mouse_6.clicked_name,during_prac.thisRepN,during_prac.thisTrialN,during_prac.thisN,during_prac.thisIndex,during_prac.ran,trailimage1,trial1adress,trailimage2,trial2adress,participant,session,date,expName,psychopyVersion,OS,frameRate,PROLIFIC_PID,STUDY_ID,SESSION_ID,key_resp_22.keys,key_resp_22.rt,mouse.x,mouse.y,mouse.leftButton,mouse.midButton,mouse.rightButton,mouse.clicked_name,response_time,mouse_2.x,mouse_2.y,mouse_2.leftButton,mouse_2.midButton,mouse_2.rightButton,mouse_2.clicked_name,mouse_3.x,mouse_3.y,mouse_3.leftButton,mouse_3.midButton,mouse_3.rightButton,catchresponse,catchnumber,catchtrialorder,mouse_11.x,mouse_11.y,mouse_11.leftButton,mouse_11.midButton,mouse_11.rightButton,trials_2.thisRepN,trials_2.thisTrialN,trials_2.thisN,trials_2.thisIndex,trials_2.ran,image1,image1adress,image2,image2adress,mouse_3.clicked_name,mouse_11.clicked_name
space,2.7719,space,15.3871,space,3.7019,space,8.1017,space,15.0935,space,4.1134,-85,62,1,0,0,response7disk_5,-3,3,1,1,0,0,rectangle_8,118,40,1,0,0,response1disk_7,3,3,6,4,1,0,0,rectangle_4,0,0,0,4,1,trail2,trail2.jpg,trail3,trail3.jpg,,001,2021-12-17_24h04.33.604,jm_natural_scene_simialrity_2-12-2021_version2,2021.2.3,Win32,60.13590715,5e67a7d13413ff01776d1ed8,61bbc5c79a1c66460f44041e,61bbc6065f3e205d59c2e42b,,,,,,,,,,,,,,,,,,,,,,,,,,,,,,,,,,,,,,,
,,,,,,,,,,,,-76,-28,1,0,0,response5disk_5,-2,-6,0,1,0,0,rectangle_8,-6,0,1,0,0,,,3,-6,0,1,0,0,,0,1,1,2,1,trail1,trail1.jpg,trail3,trail3.jpg,,001,2021-12-17_24h04.33.604,jm_natural_scene_simialrity_2-12-2021_version2,2021.2.3,Win32,60.13590715,5e67a7d13413ff01776d1ed8,61bbc5c79a1c66460f44041e,61bbc6065f3e205d59c2e42b,,,,,,,,,,,,,,,,,,,,,,,,,,,,,,,,,,,,,,,
,,,,,,,,,,,,-82,-35,1,0,0,response5disk_5,-2,-13,-3,1,0,0,rectangle_8,-13,-3,1,0,0,,,3,-13,-3,1,0,0,,0,2,2,1,1,trail1,trail1.jpg,trail2,trail2.jpg,,001,2021-12-17_24h04.33.604,jm_natural_scene_simialrity_2-12-2021_version2,2021.2.3,Win32,60.13590715,5e67a7d13413ff01776d1ed8,61bbc5c79a1c66460f44041e,61bbc6065f3e205d59c2e42b,,,,,,,,,,,,,,,,,,,,,,,,,,,,,,,,,,,,,,,
,,,,,,,,,,,,45,115,1,0,0,response1disk_5,4,-7,8,1,0,0,rectangle_8,-7,8,1,0,0,,,3,-7,8,1,0,0,,0,3,3,3,1,trail2,trail2.jpg,trail2,trail2.jpg,,001,2021-12-17_24h04.33.604,jm_natural_scene_simialrity_2-12-2021_version2,2021.2.3,Win32,60.13590715,5e67a7d13413ff01776d1ed8,61bbc5c79a1c66460f44041e,61bbc6065f3e205d59c2e42b,,,,,,,,,,,,,,,,,,,,,,,,,,,,,,,,,,,,,,,
,,,,,,,,,,,,41,119,1,0,0,response1disk_5,4,4,-1,1,0,0,rectangle_8,112,41,1,0,0,response1disk_7,3,3,2,7,1,0,0,rectangle_4,0,4,4,0,1,trail1,trail1.jpg,trail1,trail1.jpg,,001,2021-12-17_24h04.33.604,jm_natural_scene_simialrity_2-12-2021_version2,2021.2.3,Win32,60.13590715,5e67a7d13413ff01776d1ed8,61bbc5c79a1c66460f44041e,61bbc6065f3e205d59c2e42b,,,,,,,,,,,,,,,,,,,,,,,,,,,,,,,,,,,,,,,
,,,,,,,,,,,,57,99,1,0,0,response1disk_5,4,-4,6,1,0,0,rectangle_8,-4,6,1,0,0,,,3,-4,6,1,0,0,,0,5,5,5,1,trail3,trail3.jpg,trail3,trail3.jpg,,001,2021-12-17_24h04.33.604,jm_natural_scene_simialrity_2-12-2021_version2,2021.2.3,Win32,60.13590715,5e67a7d13413ff01776d1ed8,61bbc5c79a1c66460f44041e,61bbc6065f3e205d59c2e42b,,,,,,,,,,,,,,,,,,,,,,,,,,,,,,,,,,,,,,,
,,,,,,,,,,,,,,,,,,-2,,,,,,,,,,,,,,,,,,,,,,,,,,,,,,,001,2021-12-17_24h04.33.604,jm_natural_scene_simialrity_2-12-2021_version2,2021.2.3,Win32,60.13590715,5e67a7d13413ff01776d1ed8,61bbc5c79a1c66460f44041e,61bbc6065f3e205d59c2e42b,space,0.9129,-115,-36,1,0,0,response5disk,6.65,-5,-2,1,0,0,rectangle,-5,-2,1,0,0,,-2,"[44,9,101,130,65,88,95,156,58,115]",-5,-2,1,0,0,0,0,0,61,1,Turquiose,Turquiose.jpg,LightGreen,LightGreen.jpg,,
,,,,,,,,,,,,,,,,,,2,,,,,,,,,,,,,,,,,,,,,,,,,,,,,,,001,2021-12-17_24h04.33.604,jm_natural_scene_simialrity_2-12-2021_version2,2021.2.3,Win32,60.13590715,5e67a7d13413ff01776d1ed8,61bbc5c79a1c66460f44041e,61bbc6065f3e205d59c2e42b,,,99,-36,1,0,0,response3disk,12.3162,7,-7,1,0,0,rectangle,7,-7,1,0,0,,2,"[44,9,101,130,65,88,95,156,58,115]",7,-7,1,0,0,0,1,1,54,1,DarkGreen,DarkGreen.jpg,Yellow,Yellow.jpg,,
,,,,,,,,,,,,,,,,,,3,,,,,,,,,,,,,,,,,,,,,,,,,,,,,,,001,2021-12-17_24h04.33.604,jm_natural_scene_simialrity_2-12-2021_version2,2021.2.3,Win32,60.13590715,5e67a7d13413ff01776d1ed8,61bbc5c79a1c66460f44041e,61bbc6065f3e205d59c2e42b,,,100,39,1,0,0,response1disk,4.4332,6,-7,1,0,0,rectangle,6,-7,1,0,0,,-3,"[44,9,101,130,65,88,95,156,58,115]",6,-7,1,0,0,0,2,2,16,1,Yellow,Yellow.jpg,Purple,Purple.jpg,,
,,,,,,,,,,,,,,,,,,2,,,,,,,,,,,,,,,,,,,,,,,,,,,,,,,001,2021-12-17_24h04.33.604,jm_natural_scene_simialrity_2-12-2021_version2,2021.2.3,Win32,60.13590715,5e67a7d13413ff01776d1ed8,61bbc5c79a1c66460f44041e,61bbc6065f3e205d59c2e42b,,,97,-44,1,0,0,response3disk,4.9005,-2,-1,1,0,0,rectangle,-2,-1,1,0,0,,3,"[44,9,101,130,65,88,95,156,58,115]",-2,-1,1,0,0,0,3,3,77,1,Purple,Purple.jpg,LightBlue,LightBlue.jpg,,
,,,,,,,,,,,,,,,,,,1,,,,,,,,,,,,,,,,,,,,,,,,,,,,,,,001,2021-12-17_24h04.33.604,jm_natural_scene_simialrity_2-12-2021_version2,2021.2.3,Win32,60.13590715,5e67a7d13413ff01776d1ed8,61bbc5c79a1c66460f44041e,61bbc6065f3e205d59c2e42b,,,34,-102,1,0,0,response3disk,2.5835,-11,0,1,0,0,rectangle,-11,0,1,0,0,,-3,"[44,9,101,130,65,88,95,156,58,115]",-11,0,1,0,0,0,4,4,26,1,DarkGreen,DarkGreen.jpg,LightBlue,LightBlue.jpg,,
,,,,,,,,,,,,,,,,,,2,,,,,,,,,,,,,,,,,,,,,,,,,,,,,,,001,2021-12-17_24h04.33.604,jm_natural_scene_simialrity_2-12-2021_version2,2021.2.3,Win32,60.13590715,5e67a7d13413ff01776d1ed8,61bbc5c79a1c66460f44041e,61bbc6065f3e205d59c2e42b,,,72,-37,1,0,0,response3disk,2.6331,12,4,1,0,0,rectangle,12,4,1,0,0,,-1,"[44,9,101,130,65,88,95,156,58,115]",12,4,1,0,0,0,5,5,69,1,Pink,Pink.jpg,DarkGreen,DarkGreen.jpg,,
,,,,,,,,,,,,,,,,,,-1,,,,,,,,,,,,,,,,,,,,,,,,,,,,,,,001,2021-12-17_24h04.33.604,jm_natural_scene_simialrity_2-12-2021_version2,2021.2.3,Win32,60.13590715,5e67a7d13413ff01776d1ed8,61bbc5c79a1c66460f44041e,61bbc6065f3e205d59c2e42b,,,-30,-84,1,0,0,response5disk,6.1666,5,3,1,0,0,rectangle,5,3,1,0,0,,-1,"[44,9,101,130,65,88,95,156,58,115]",5,3,1,0,0,0,6,6,5,1,Red,Red.jpg,LightBlue,LightBlue.jpg,,
,,,,,,,,,,,,,,,,,,3,,,,,,,,,,,,,,,,,,,,,,,,,,,,,,,001,2021-12-17_24h04.33.604,jm_natural_scene_simialrity_2-12-2021_version2,2021.2.3,Win32,60.13590715,5e67a7d13413ff01776d1ed8,61bbc5c79a1c66460f44041e,61bbc6065f3e205d59c2e42b,,,102,42,1,0,0,response1disk,1.9999,-6,5,1,0,0,rectangle,-6,5,1,0,0,,2,"[44,9,101,130,65,88,95,156,58,115]",-6,5,1,0,0,0,7,7,43,1,Pink,Pink.jpg,Purple,Purple.jpg,,
,,,,,,,,,,,,,,,,,,4,,,,,,,,,,,,,,,,,,,,,,,,,,,,,,,001,2021-12-17_24h04.33.604,jm_natural_scene_simialrity_2-12-2021_version2,2021.2.3,Win32,60.13590715,5e67a7d13413ff01776d1ed8,61bbc5c79a1c66460f44041e,61bbc6065f3e205d59c2e42b,,,48,102,1,0,0,response1disk,0.9833,-5,-18,1,0,0,rectangle,109,37,1,0,0,3,3,"[44,9,101,130,65,88,95,156,58,115]",-5,1,1,0,0,0,8,8,0,1,Red,Red.jpg,Red,Red.jpg,response1disk_3,rectangle
,,,,,,,,,,,,,,,,,,-1,,,,,,,,,,,,,,,,,,,,,,,,,,,,,,,001,2021-12-17_24h04.33.604,jm_natural_scene_simialrity_2-12-2021_version2,2021.2.3,Win32,60.13590715,5e67a7d13413ff01776d1ed8,61bbc5c79a1c66460f44041e,61bbc6065f3e205d59c2e42b,,,-45,-84,1,0,0,response5disk,5.3165,-1,-17,1,0,0,rectangle,-1,-17,1,0,0,3,2,"[44,9,101,130,65,88,95,156,58,115]",-1,-17,1,0,0,0,9,9,28,1,DarkGreen,DarkGreen.jpg,Pink,Pink.jpg,,
,,,,,,,,,,,,,,,,,,-1,,,,,,,,,,,,,,,,,,,,,,,,,,,,,,,001,2021-12-17_24h04.33.604,jm_natural_scene_simialrity_2-12-2021_version2,2021.2.3,Win32,60.13590715,5e67a7d13413ff01776d1ed8,61bbc5c79a1c66460f44041e,61bbc6065f3e205d59c2e42b,,,-24,-96,1,0,0,response5disk,5.2831,-2,-16,1,0,0,rectangle,-2,-16,1,0,0,3,3,"[44,9,101,130,65,88,95,156,58,115]",-2,-16,1,0,0,0,10,10,32,1,Turquiose,Turquiose.jpg,DarkBlue,DarkBlue.jpg,,
,,,,,,,,,,,,,,,,,,-2,,,,,,,,,,,,,,,,,,,,,,,,,,,,,,,001,2021-12-17_24h04.33.604,jm_natural_scene_simialrity_2-12-2021_version2,2021.2.3,Win32,60.13590715,5e67a7d13413ff01776d1ed8,61bbc5c79a1c66460f44041e,61bbc6065f3e205d59c2e42b,,,-86,-49,1,0,0,response5disk,5.7,-5,-14,1,0,0,rectangle,-5,-14,1,0,0,3,3,"[44,9,101,130,65,88,95,156,58,115]",-5,-14,1,0,0,0,11,11,33,1,Turquiose,Turquiose.jpg,Pink,Pink.jpg,,
,,,,,,,,,,,,,,,,,,2,,,,,,,,,,,,,,,,,,,,,,,,,,,,,,,001,2021-12-17_24h04.33.604,jm_natural_scene_simialrity_2-12-2021_version2,2021.2.3,Win32,60.13590715,5e67a7d13413ff01776d1ed8,61bbc5c79a1c66460f44041e,61bbc6065f3e205d59c2e42b,,,78,-39,1,0,0,response3disk,1.6332,-7,-3,1,0,0,rectangle,-7,-3,1,0,0,3,1,"[44,9,101,130,65,88,95,156,58,115]",-7,-3,1,0,0,0,12,12,52,1,Purple,Purple.jpg,Red,Red.jpg,,
,,,,,,,,,,,,,,,,,,-1,,,,,,,,,,,,,,,,,,,,,,,,,,,,,,,001,2021-12-17_24h04.33.604,jm_natural_scene_simialrity_2-12-2021_version2,2021.2.3,Win32,60.13590715,5e67a7d13413ff01776d1ed8,61bbc5c79a1c66460f44041e,61bbc6065f3e205d59c2e42b,,,-45,-86,1,0,0,response5disk,2.1168,-12,-8,1,0,0,rectangle,-12,-8,1,0,0,3,3,"[44,9,101,130,65,88,95,156,58,115]",-12,-8,1,0,0,0,13,13,76,1,Pink,Pink.jpg,LightBlue,LightBlue.jpg,,
,,,,,,,,,,,,,,,,,,1,,,,,,,,,,,,,,,,,,,,,,,,,,,,,,,001,2021-12-17_24h04.33.604,jm_natural_scene_simialrity_2-12-2021_version2,2021.2.3,Win32,60.13590715,5e67a7d13413ff01776d1ed8,61bbc5c79a1c66460f44041e,61bbc6065f3e205d59c2e42b,,,47,-104,1,0,0,response3disk,2.7,17,1,1,0,0,rectangle,17,1,1,0,0,3,1,"[44,9,101,130,65,88,95,156,58,115]",17,1,1,0,0,0,14,14,71,1,LightBlue,LightBlue.jpg,Turquiose,Turquiose.jpg,,
,,,,,,,,,,,,,,,,,,2,,,,,,,,,,,,,,,,,,,,,,,,,,,,,,,001,2021-12-17_24h04.33.604,jm_natural_scene_simialrity_2-12-2021_version2,2021.2.3,Win32,60.13590715,5e67a7d13413ff01776d1ed8,61bbc5c79a1c66460f44041e,61bbc6065f3e205d59c2e42b,,,95,-22,1,0,0,response3disk,2.1165,7,-6,1,0,0,rectangle,7,-6,1,0,0,3,-2,"[44,9,101,130,65,88,95,156,58,115]",7,-6,1,0,0,0,15,15,59,1,Purple,Purple.jpg,Yellow,Yellow.jpg,,
,,,,,,,,,,,,,,,,,,4,,,,,,,,,,,,,,,,,,,,,,,,,,,,,,,001,2021-12-17_24h04.33.604,jm_natural_scene_simialrity_2-12-2021_version2,2021.2.3,Win32,60.13590715,5e67a7d13413ff01776d1ed8,61bbc5c79a1c66460f44041e,61bbc6065f3e205d59c2e42b,,,40,97,1,0,0,response1disk,0.8839,-10,-11,1,0,0,rectangle,-10,-11,1,0,0,3,-1,"[44,9,101,130,65,88,95,156,58,115]",-10,-11,1,0,0,0,16,16,24,1,DarkGreen,DarkGreen.jpg,DarkGreen,DarkGreen.jpg,,
,,,,,,,,,,,,,,,,,,2,,,,,,,,,,,,,,,,,,,,,,,,,,,,,,,001,2021-12-17_24h04.33.604,jm_natural_scene_simialrity_2-12-2021_version2,2021.2.3,Win32,60.13590715,5e67a7d13413ff01776d1ed8,61bbc5c79a1c66460f44041e,61bbc6065f3e205d59c2e42b,,,93,-22,1,0,0,response3disk,1.2168,-4,2,1,0,0,rectangle,-4,2,1,0,0,3,1,"[44,9,101,130,65,88,95,156,58,115]",-4,2,1,0,0,0,17,17,38,1,LightBlue,LightBlue.jpg,Purple,Purple.jpg,,
,,,,,,,,,,,,,,,,,,1,,,,,,,,,,,,,,,,,,,,,,,,,,,,,,,001,2021-12-17_24h04.33.604,jm_natural_scene_simialrity_2-12-2021_version2,2021.2.3,Win32,60.13590715,5e67a7d13413ff01776d1ed8,61bbc5c79a1c66460f44041e,61bbc6065f3e205d59c2e42b,,,45,-94,1,0,0,response3disk,0.9331,-5,-1,1,0,0,rectangle,-5,-1,1,0,0,3,1,"[44,9,101,130,65,88,95,156,58,115]",-5,-1,1,0,0,0,18,18,55,1,Turquiose,Turquiose.jpg,Yellow,Yellow.jpg,,
,,,,,,,,,,,,,,,,,,2,,,,,,,,,,,,,,,,,,,,,,,,,,,,,,,001,2021-12-17_24h04.33.604,jm_natural_scene_simialrity_2-12-2021_version2,2021.2.3,Win32,60.13590715,5e67a7d13413ff01776d1ed8,61bbc5c79a1c66460f44041e,61bbc6065f3e205d59c2e42b,,,93,-41,1,0,0,response3disk,0.7667,-9,-7,1,0,0,rectangle,-9,-7,1,0,0,3,-3,"[44,9,101,130,65,88,95,156,58,115]",-9,-7,1,0,0,0,19,19,64,1,Pink,Pink.jpg,LightGreen,LightGreen.jpg,,
,,,,,,,,,,,,,,,,,,2,,,,,,,,,,,,,,,,,,,,,,,,,,,,,,,001,2021-12-17_24h04.33.604,jm_natural_scene_simialrity_2-12-2021_version2,2021.2.3,Win32,60.13590715,5e67a7d13413ff01776d1ed8,61bbc5c79a1c66460f44041e,61bbc6065f3e205d59c2e42b,,,81,-40,1,0,0,response3disk,1.1167,9,-9,1,0,0,rectangle,9,-9,1,0,0,3,-1,"[44,9,101,130,65,88,95,156,58,115]",9,-9,1,0,0,0,20,20,8,1,Red,Red.jpg,Purple,Purple.jpg,,
,,,,,,,,,,,,,,,,,,4,,,,,,,,,,,,,,,,,,,,,,,,,,,,,,,001,2021-12-17_24h04.33.604,jm_natural_scene_simialrity_2-12-2021_version2,2021.2.3,Win32,60.13590715,5e67a7d13413ff01776d1ed8,61bbc5c79a1c66460f44041e,61bbc6065f3e205d59c2e42b,,,61,72,1,0,0,response1disk,2.0832,6,8,1,0,0,rectangle,6,8,1,0,0,3,2,"[44,9,101,130,65,88,95,156,58,115]",6,8,1,0,0,0,21,21,36,1,LightBlue,LightBlue.jpg,DarkBlue,DarkBlue.jpg,,
,,,,,,,,,,,,,,,,,,3,,,,,,,,,,,,,,,,,,,,,,,,,,,,,,,001,2021-12-17_24h04.33.604,jm_natural_scene_simialrity_2-12-2021_version2,2021.2.3,Win32,60.13590715,5e67a7d13413ff01776d1ed8,61bbc5c79a1c66460f44041e,61bbc6065f3e205d59c2e42b,,,104,32,1,0,0,response1disk,1.5166,16,6,1,0,0,rectangle,16,6,1,0,0,3,3,"[44,9,101,130,65,88,95,156,58,115]",16,6,1,0,0,0,22,22,60,1,DarkGreen,DarkGreen.jpg,LightGreen,LightGreen.jpg,,
,,,,,,,,,,,,,,,,,,-3,,,,,,,,,,,,,,,,,,,,,,,,,,,,,,,001,2021-12-17_24h04.33.604,jm_natural_scene_simialrity_2-12-2021_version2,2021.2.3,Win32,60.13590715,5e67a7d13413ff01776d1ed8,61bbc5c79a1c66460f44041e,61bbc6065f3e205d59c2e42b,,,-100,49,1,0,0,response7disk,1.5999,-1,1,1,0,0,rectangle,-1,1,1,0,0,3,-2,"[44,9,101,130,65,88,95,156,58,115]",-1,1,1,0,0,0,23,23,29,1,DarkGreen,DarkGreen.jpg,Purple,Purple.jpg,,
,,,,,,,,,,,,,,,,,,3,,,,,,,,,,,,,,,,,,,,,,,,,,,,,,,001,2021-12-17_24h04.33.604,jm_natural_scene_simialrity_2-12-2021_version2,2021.2.3,Win32,60.13590715,5e67a7d13413ff01776d1ed8,61bbc5c79a1c66460f44041e,61bbc6065f3e205d59c2e42b,,,97,37,1,0,0,response1disk,1.0164,-1,3,1,0,0,rectangle,-1,3,1,0,0,3,2,"[44,9,101,130,65,88,95,156,58,115]",-1,3,1,0,0,0,24,24,15,1,Yellow,Yellow.jpg,Pink,Pink.jpg,,
,,,,,,,,,,,,,,,,,,-3,,,,,,,,,,,,,,,,,,,,,,,,,,,,,,,001,2021-12-17_24h04.33.604,jm_natural_scene_simialrity_2-12-2021_version2,2021.2.3,Win32,60.13590715,5e67a7d13413ff01776d1ed8,61bbc5c79a1c66460f44041e,61bbc6065f3e205d59c2e42b,,,-100,51,1,0,0,response7disk,3.0001,0,6,1,0,0,rectangle,0,6,1,0,0,3,2,"[44,9,101,130,65,88,95,156,58,115]",0,6,1,0,0,0,25,25,74,1,Purple,Purple.jpg,Turquiose,Turquiose.jpg,,
,,,,,,,,,,,,,,,,,,4,,,,,,,,,,,,,,,,,,,,,,,,,,,,,,,001,2021-12-17_24h04.33.604,jm_natural_scene_simialrity_2-12-2021_version2,2021.2.3,Win32,60.13590715,5e67a7d13413ff01776d1ed8,61bbc5c79a1c66460f44041e,61bbc6065f3e205d59c2e42b,,,38,101,1,0,0,response1disk,2.2665,-1,4,1,0,0,rectangle,-1,4,1,0,0,3,-2,"[44,9,101,130,65,88,95,156,58,115]",-1,4,1,0,0,0,26,26,44,1,Purple,Purple.jpg,Purple,Purple.jpg,,
,,,,,,,,,,,,,,,,,,3,,,,,,,,,,,,,,,,,,,,,,,,,,,,,,,001,2021-12-17_24h04.33.604,jm_natural_scene_simialrity_2-12-2021_version2,2021.2.3,Win32,60.13590715,5e67a7d13413ff01776d1ed8,61bbc5c79a1c66460f44041e,61bbc6065f3e205d59c2e42b,,,87,48,1,0,0,response1disk,14.3994,11,-5,1,0,0,rectangle,11,-5,1,0,0,3,-2,"[44,9,101,130,65,88,95,156,58,115]",11,-5,1,0,0,0,27,27,37,1,LightBlue,LightBlue.jpg,Pink,Pink.jpg,,
,,,,,,,,,,,,,,,,,,2,,,,,,,,,,,,,,,,,,,,,,,,,,,,,,,001,2021-12-17_24h04.33.604,jm_natural_scene_simialrity_2-12-2021_version2,2021.2.3,Win32,60.13590715,5e67a7d13413ff01776d1ed8,61bbc5c79a1c66460f44041e,61bbc6065f3e205d59c2e42b,,,106,-35,1,0,0,response3disk,1.5001,8,8,1,0,0,rectangle,8,8,1,0,0,3,-4,"[44,9,101,130,65,88,95,156,58,115]",8,8,1,0,0,0,28,28,31,1,Turquiose,Turquiose.jpg,LightBlue,LightBlue.jpg,,
,,,,,,,,,,,,,,,,,,2,,,,,,,,,,,,,,,,,,,,,,,,,,,,,,,001,2021-12-17_24h04.33.604,jm_natural_scene_simialrity_2-12-2021_version2,2021.2.3,Win32,60.13590715,5e67a7d13413ff01776d1ed8,61bbc5c79a1c66460f44041e,61bbc6065f3e205d59c2e42b,,,108,-59,1,0,0,response3disk,1.4498,15,-4,1,0,0,rectangle,15,-4,1,0,0,3,-3,"[44,9,101,130,65,88,95,156,58,115]",15,-4,1,0,0,0,29,29,75,1,DarkBlue,DarkBlue.jpg,LightBlue,LightBlue.jpg,,
,,,,,,,,,,,,,,,,,,3,,,,,,,,,,,,,,,,,,,,,,,,,,,,,,,001,2021-12-17_24h04.33.604,jm_natural_scene_simialrity_2-12-2021_version2,2021.2.3,Win32,60.13590715,5e67a7d13413ff01776d1ed8,61bbc5c79a1c66460f44041e,61bbc6065f3e205d59c2e42b,,,115,34,1,0,0,response1disk,5.633,3,14,1,0,0,rectangle,3,14,1,0,0,3,3,"[44,9,101,130,65,88,95,156,58,115]",3,14,1,0,0,0,30,30,58,1,Pink,Pink.jpg,Yellow,Yellow.jpg,,
,,,,,,,,,,,,,,,,,,-4,,,,,,,,,,,,,,,,,,,,,,,,,,,,,,,001,2021-12-17_24h04.33.604,jm_natural_scene_simialrity_2-12-2021_version2,2021.2.3,Win32,60.13590715,5e67a7d13413ff01776d1ed8,61bbc5c79a1c66460f44041e,61bbc6065f3e205d59c2e42b,,,-32,138,1,0,0,response7disk,1.3497,-10,14,1,0,0,rectangle,-10,14,1,0,0,3,1,"[44,9,101,130,65,88,95,156,58,115]",-10,14,1,0,0,0,31,31,57,1,DarkBlue,DarkBlue.jpg,Yellow,Yellow.jpg,,
,,,,,,,,,,,,,,,,,,1,,,,,,,,,,,,,,,,,,,,,,,,,,,,,,,001,2021-12-17_24h04.33.604,jm_natural_scene_simialrity_2-12-2021_version2,2021.2.3,Win32,60.13590715,5e67a7d13413ff01776d1ed8,61bbc5c79a1c66460f44041e,61bbc6065f3e205d59c2e42b,,,28,-96,1,0,0,response3disk,6.9496,-1,-2,1,0,0,rectangle,-1,-2,1,0,0,3,-2,"[44,9,101,130,65,88,95,156,58,115]",-1,-2,1,0,0,0,32,32,34,1,Turquiose,Turquiose.jpg,Purple,Purple.jpg,,
,,,,,,,,,,,,,,,,,,-2,,,,,,,,,,,,,,,,,,,,,,,,,,,,,,,001,2021-12-17_24h04.33.604,jm_natural_scene_simialrity_2-12-2021_version2,2021.2.3,Win32,60.13590715,5e67a7d13413ff01776d1ed8,61bbc5c79a1c66460f44041e,61bbc6065f3e205d59c2e42b,,,-73,-35,1,0,0,response5disk,1.8664,-6,-4,1,0,0,rectangle,-6,-4,1,0,0,3,-4,"[44,9,101,130,65,88,95,156,58,115]",-6,-4,1,0,0,0,33,33,63,1,DarkBlue,DarkBlue.jpg,LightGreen,LightGreen.jpg,,
,,,,,,,,,,,,,,,,,,-1,,,,,,,,,,,,,,,,,,,,,,,,,,,,,,,001,2021-12-17_24h04.33.604,jm_natural_scene_simialrity_2-12-2021_version2,2021.2.3,Win32,60.13590715,5e67a7d13413ff01776d1ed8,61bbc5c79a1c66460f44041e,61bbc6065f3e205d59c2e42b,,,-31,-96,1,0,0,response5disk,2.0833,11,-8,1,0,0,rectangle,11,-8,1,0,0,3,3,"[44,9,101,130,65,88,95,156,58,115]",11,-8,1,0,0,0,34,34,73,1,Pink,Pink.jpg,Turquiose,Turquiose.jpg,,
,,,,,,,,,,,,,,,,,,-4,,,,,,,,,,,,,,,,,,,,,,,,,,,,,,,001,2021-12-17_24h04.33.604,jm_natural_scene_simialrity_2-12-2021_version2,2021.2.3,Win32,60.13590715,5e67a7d13413ff01776d1ed8,61bbc5c79a1c66460f44041e,61bbc6065f3e205d59c2e42b,,,-58,93,1,0,0,response7disk,12.1328,-7,1,1,0,0,rectangle,-7,1,1,0,0,3,-4,"[44,9,101,130,65,88,95,156,58,115]",-7,1,1,0,0,0,35,35,70,1,Purple,Purple.jpg,DarkGreen,DarkGreen.jpg,,
,,,,,,,,,,,,,,,,,,-3,,,,,,,,,,,,,,,,,,,,,,,,,,,,,,,001,2021-12-17_24h04.33.604,jm_natural_scene_simialrity_2-12-2021_version2,2021.2.3,Win32,60.13590715,5e67a7d13413ff01776d1ed8,61bbc5c79a1c66460f44041e,61bbc6065f3e205d59c2e42b,,,-81,38,1,0,0,response7disk,1.9999,-20,8,1,0,0,rectangle,-20,8,1,0,0,3,-4,"[44,9,101,130,65,88,95,156,58,115]",-20,8,1,0,0,0,36,36,21,1,LightGreen,LightGreen.jpg,DarkBlue,DarkBlue.jpg,,
,,,,,,,,,,,,,,,,,,3,,,,,,,,,,,,,,,,,,,,,,,,,,,,,,,001,2021-12-17_24h04.33.604,jm_natural_scene_simialrity_2-12-2021_version2,2021.2.3,Win32,60.13590715,5e67a7d13413ff01776d1ed8,61bbc5c79a1c66460f44041e,61bbc6065f3e205d59c2e42b,,,101,47,1,0,0,response1disk,1.2833,14,10,1,0,0,rectangle,14,10,1,0,0,3,-2,"[44,9,101,130,65,88,95,156,58,115]",14,10,1,0,0,0,37,37,51,1,Pink,Pink.jpg,Red,Red.jpg,,
,,,,,,,,,,,,,,,,,,1,,,,,,,,,,,,,,,,,,,,,,,,,,,,,,,001,2021-12-17_24h04.33.604,jm_natural_scene_simialrity_2-12-2021_version2,2021.2.3,Win32,60.13590715,5e67a7d13413ff01776d1ed8,61bbc5c79a1c66460f44041e,61bbc6065f3e205d59c2e42b,,,68,-121,1,0,0,response3disk,2.6666,-1,0,1,0,0,rectangle,-1,0,1,0,0,3,3,"[44,9,101,130,65,88,95,156,58,115]",-1,0,1,0,0,0,38,38,2,1,Red,Red.jpg,LightGreen,LightGreen.jpg,,
,,,,,,,,,,,,,,,,,,4,,,,,,,,,,,,,,,,,,,,,,,,,,,,,,,001,2021-12-17_24h04.33.604,jm_natural_scene_simialrity_2-12-2021_version2,2021.2.3,Win32,60.13590715,5e67a7d13413ff01776d1ed8,61bbc5c79a1c66460f44041e,61bbc6065f3e205d59c2e42b,,,67,120,1,0,0,response1disk,0.9001,5,0,1,0,0,rectangle,5,0,1,0,0,3,1,"[44,9,101,130,65,88,95,156,58,115]",5,0,1,0,0,0,39,39,35,1,LightBlue,LightBlue.jpg,LightBlue,LightBlue.jpg,,
,,,,,,,,,,,,,,,,,,3,,,,,,,,,,,,,,,,,,,,,,,,,,,,,,,001,2021-12-17_24h04.33.604,jm_natural_scene_simialrity_2-12-2021_version2,2021.2.3,Win32,60.13590715,5e67a7d13413ff01776d1ed8,61bbc5c79a1c66460f44041e,61bbc6065f3e205d59c2e42b,,,95,40,1,0,0,response1disk,2.7497,15,7,1,0,0,rectangle,15,7,1,0,0,3,-1,"[44,9,101,130,65,88,95,156,58,115]",15,7,1,0,0,0,40,40,10,1,Yellow,Yellow.jpg,LightGreen,LightGreen.jpg,,
,,,,,,,,,,,,,,,,,,-4,,,,,,,,,,,,,,,,,,,,,,,,,,,,,,,001,2021-12-17_24h04.33.604,jm_natural_scene_simialrity_2-12-2021_version2,2021.2.3,Win32,60.13590715,5e67a7d13413ff01776d1ed8,61bbc5c79a1c66460f44041e,61bbc6065f3e205d59c2e42b,,,-42,119,1,0,0,response7disk,3.4999,17,-6,1,0,0,rectangle,17,-6,1,0,0,3,-4,"[44,9,101,130,65,88,95,156,58,115]",17,-6,1,0,0,0,41,41,40,1,DarkBlue,DarkBlue.jpg,Pink,Pink.jpg,,
,,,,,,,,,,,,,,,,,,2,,,,,,,,,,,,,,,,,,,,,,,,,,,,,,,001,2021-12-17_24h04.33.604,jm_natural_scene_simialrity_2-12-2021_version2,2021.2.3,Win32,60.13590715,5e67a7d13413ff01776d1ed8,61bbc5c79a1c66460f44041e,61bbc6065f3e205d59c2e42b,,,93,-40,1,0,0,response3disk,2.1334,9,6,1,0,0,rectangle,9,6,1,0,0,3,-4,"[44,9,101,130,65,88,95,156,58,115]",9,6,1,0,0,0,42,42,4,1,Red,Red.jpg,Turquiose,Turquiose.jpg,,
,,,,,,,,,,,,,,,,,,-1,,,,,,,,,,,,,,,,,,,,,,,,,,,,,,,001,2021-12-17_24h04.33.604,jm_natural_scene_simialrity_2-12-2021_version2,2021.2.3,Win32,60.13590715,5e67a7d13413ff01776d1ed8,61bbc5c79a1c66460f44041e,61bbc6065f3e205d59c2e42b,,,-36,-118,1,0,0,response5disk,3.4833,1,-2,1,0,0,rectangle,105,-34,1,0,0,2,2,"[44,9,101,130,65,88,95,156,58,115]",7,-5,1,0,0,0,43,43,11,1,Yellow,Yellow.jpg,DarkGreen,DarkGreen.jpg,response3disk_3,rectangle
,,,,,,,,,,,,,,,,,,2,,,,,,,,,,,,,,,,,,,,,,,,,,,,,,,001,2021-12-17_24h04.33.604,jm_natural_scene_simialrity_2-12-2021_version2,2021.2.3,Win32,60.13590715,5e67a7d13413ff01776d1ed8,61bbc5c79a1c66460f44041e,61bbc6065f3e205d59c2e42b,,,119,-37,1,0,0,response3disk,2.0998,24,0,1,0,0,rectangle,24,0,1,0,0,2,-1,"[44,9,101,130,65,88,95,156,58,115]",24,0,1,0,0,0,44,44,1,1,Red,Red.jpg,Yellow,Yellow.jpg,,
,,,,,,,,,,,,,,,,,,1,,,,,,,,,,,,,,,,,,,,,,,,,,,,,,,001,2021-12-17_24h04.33.604,jm_natural_scene_simialrity_2-12-2021_version2,2021.2.3,Win32,60.13590715,5e67a7d13413ff01776d1ed8,61bbc5c79a1c66460f44041e,61bbc6065f3e205d59c2e42b,,,54,-104,1,0,0,response3disk,2.6331,20,1,1,0,0,rectangle,20,1,1,0,0,2,1,"[44,9,101,130,65,88,95,156,58,115]",20,1,1,0,0,0,45,45,19,1,LightGreen,LightGreen.jpg,Turquiose,Turquiose.jpg,,
,,,,,,,,,,,,,,,,,,3,,,,,,,,,,,,,,,,,,,,,,,,,,,,,,,001,2021-12-17_24h04.33.604,jm_natural_scene_simialrity_2-12-2021_version2,2021.2.3,Win32,60.13590715,5e67a7d13413ff01776d1ed8,61bbc5c79a1c66460f44041e,61bbc6065f3e205d59c2e42b,,,132,34,1,0,0,response1disk,0.8833,21,3,1,0,0,rectangle,21,3,1,0,0,2,-2,"[44,9,101,130,65,88,95,156,58,115]",21,3,1,0,0,0,46,46,56,1,LightBlue,LightBlue.jpg,Yellow,Yellow.jpg,,
,,,,,,,,,,,,,,,,,,3,,,,,,,,,,,,,,,,,,,,,,,,,,,,,,,001,2021-12-17_24h04.33.604,jm_natural_scene_simialrity_2-12-2021_version2,2021.2.3,Win32,60.13590715,5e67a7d13413ff01776d1ed8,61bbc5c79a1c66460f44041e,61bbc6065f3e205d59c2e42b,,,77,40,1,0,0,response1disk,1.0666,17,1,1,0,0,rectangle,17,1,1,0,0,2,-2,"[44,9,101,130,65,88,95,156,58,115]",17,1,1,0,0,0,47,47,80,1,Purple,Purple.jpg,Pink,Pink.jpg,,
,,,,,,,,,,,,,,,,,,4,,,,,,,,,,,,,,,,,,,,,,,,,,,,,,,001,2021-12-17_24h04.33.604,jm_natural_scene_simialrity_2-12-2021_version2,2021.2.3,Win32,60.13590715,5e67a7d13413ff01776d1ed8,61bbc5c79a1c66460f44041e,61bbc6065f3e205d59c2e42b,,,36,115,1,0,0,response1disk,0.7165,-9,1,1,0,0,rectangle,-9,1,1,0,0,2,2,"[44,9,101,130,65,88,95,156,58,115]",-9,1,1,0,0,0,48,48,42,1,Pink,Pink.jpg,Pink,Pink.jpg,,
,,,,,,,,,,,,,,,,,,-3,,,,,,,,,,,,,,,,,,,,,,,,,,,,,,,001,2021-12-17_24h04.33.604,jm_natural_scene_simialrity_2-12-2021_version2,2021.2.3,Win32,60.13590715,5e67a7d13413ff01776d1ed8,61bbc5c79a1c66460f44041e,61bbc6065f3e205d59c2e42b,,,-82,55,1,0,0,response7disk,1.5665,8,5,1,0,0,rectangle,8,5,1,0,0,2,-1,"[44,9,101,130,65,88,95,156,58,115]",8,5,1,0,0,0,49,49,12,1,Yellow,Yellow.jpg,Turquiose,Turquiose.jpg,,
,,,,,,,,,,,,,,,,,,-3,,,,,,,,,,,,,,,,,,,,,,,,,,,,,,,001,2021-12-17_24h04.33.604,jm_natural_scene_simialrity_2-12-2021_version2,2021.2.3,Win32,60.13590715,5e67a7d13413ff01776d1ed8,61bbc5c79a1c66460f44041e,61bbc6065f3e205d59c2e42b,,,-69,30,1,0,0,response7disk,4.0165,-14,-5,1,0,0,rectangle,-14,-5,1,0,0,2,2,"[44,9,101,130,65,88,95,156,58,115]",-14,-5,1,0,0,0,50,50,66,1,Turquiose,Turquiose.jpg,DarkGreen,DarkGreen.jpg,,
,,,,,,,,,,,,,,,,,,-1,,,,,,,,,,,,,,,,,,,,,,,,,,,,,,,001,2021-12-17_24h04.33.604,jm_natural_scene_simialrity_2-12-2021_version2,2021.2.3,Win32,60.13590715,5e67a7d13413ff01776d1ed8,61bbc5c79a1c66460f44041e,61bbc6065f3e205d59c2e42b,,,-33,-92,1,0,0,response5disk,2.8999,5,-3,1,0,0,rectangle,5,-3,1,0,0,2,-2,"[44,9,101,130,65,88,95,156,58,115]",5,-3,1,0,0,0,51,51,23,1,LightGreen,LightGreen.jpg,Purple,Purple.jpg,,
,,,,,,,,,,,,,,,,,,-1,,,,,,,,,,,,,,,,,,,,,,,,,,,,,,,001,2021-12-17_24h04.33.604,jm_natural_scene_simialrity_2-12-2021_version2,2021.2.3,Win32,60.13590715,5e67a7d13413ff01776d1ed8,61bbc5c79a1c66460f44041e,61bbc6065f3e205d59c2e42b,,,-49,-104,1,0,0,response5disk,1.2668,-10,-11,1,0,0,rectangle,-10,-11,1,0,0,2,1,"[44,9,101,130,65,88,95,156,58,115]",-10,-11,1,0,0,0,52,52,27,1,DarkGreen,DarkGreen.jpg,DarkBlue,DarkBlue.jpg,,
,,,,,,,,,,,,,,,,,,2,,,,,,,,,,,,,,,,,,,,,,,,,,,,,,,001,2021-12-17_24h04.33.604,jm_natural_scene_simialrity_2-12-2021_version2,2021.2.3,Win32,60.13590715,5e67a7d13413ff01776d1ed8,61bbc5c79a1c66460f44041e,61bbc6065f3e205d59c2e42b,,,106,-33,1,0,0,response3disk,3.05,5,12,1,0,0,rectangle,5,12,1,0,0,2,1,"[44,9,101,130,65,88,95,156,58,115]",5,12,1,0,0,0,53,53,22,1,LightGreen,LightGreen.jpg,Pink,Pink.jpg,,
,,,,,,,,,,,,,,,,,,3,,,,,,,,,,,,,,,,,,,,,,,,,,,,,,,001,2021-12-17_24h04.33.604,jm_natural_scene_simialrity_2-12-2021_version2,2021.2.3,Win32,60.13590715,5e67a7d13413ff01776d1ed8,61bbc5c79a1c66460f44041e,61bbc6065f3e205d59c2e42b,,,109,52,1,0,0,response1disk,1.1166,8,-2,1,0,0,rectangle,8,-2,1,0,0,2,-2,"[44,9,101,130,65,88,95,156,58,115]",8,-2,1,0,0,0,54,54,18,1,LightGreen,LightGreen.jpg,DarkGreen,DarkGreen.jpg,,
,,,,,,,,,,,,,,,,,,-1,,,,,,,,,,,,,,,,,,,,,,,,,,,,,,,001,2021-12-17_24h04.33.604,jm_natural_scene_simialrity_2-12-2021_version2,2021.2.3,Win32,60.13590715,5e67a7d13413ff01776d1ed8,61bbc5c79a1c66460f44041e,61bbc6065f3e205d59c2e42b,,,-42,-109,1,0,0,response5disk,1.5999,-8,-2,1,0,0,rectangle,-8,-2,1,0,0,2,-3,"[44,9,101,130,65,88,95,156,58,115]",-8,-2,1,0,0,0,55,55,3,1,Red,Red.jpg,DarkGreen,DarkGreen.jpg,,
,,,,,,,,,,,,,,,,,,-1,,,,,,,,,,,,,,,,,,,,,,,,,,,,,,,001,2021-12-17_24h04.33.604,jm_natural_scene_simialrity_2-12-2021_version2,2021.2.3,Win32,60.13590715,5e67a7d13413ff01776d1ed8,61bbc5c79a1c66460f44041e,61bbc6065f3e205d59c2e42b,,,-30,-119,1,0,0,response5disk,3.5332,6,-8,1,0,0,rectangle,6,-8,1,0,0,2,2,"[44,9,101,130,65,88,95,156,58,115]",6,-8,1,0,0,0,56,56,25,1,DarkGreen,DarkGreen.jpg,Turquiose,Turquiose.jpg,,
,,,,,,,,,,,,,,,,,,4,,,,,,,,,,,,,,,,,,,,,,,,,,,,,,,001,2021-12-17_24h04.33.604,jm_natural_scene_simialrity_2-12-2021_version2,2021.2.3,Win32,60.13590715,5e67a7d13413ff01776d1ed8,61bbc5c79a1c66460f44041e,61bbc6065f3e205d59c2e42b,,,30,114,1,0,0,response1disk,1.5331,-3,22,1,0,0,rectangle,-32,-113,1,0,0,-1,-1,"[44,9,101,130,65,88,95,156,58,115]",11,1,1,0,0,0,57,57,39,1,DarkBlue,DarkBlue.jpg,DarkBlue,DarkBlue.jpg,response5disk_3,rectangle
,,,,,,,,,,,,,,,,,,3,,,,,,,,,,,,,,,,,,,,,,,,,,,,,,,001,2021-12-17_24h04.33.604,jm_natural_scene_simialrity_2-12-2021_version2,2021.2.3,Win32,60.13590715,5e67a7d13413ff01776d1ed8,61bbc5c79a1c66460f44041e,61bbc6065f3e205d59c2e42b,,,99,47,1,0,0,response1disk,1.2,24,17,1,0,0,rectangle,24,17,1,0,0,3,-2,"[44,9,101,130,65,88,95,156,58,115]",24,17,1,0,0,0,58,58,7,1,Red,Red.jpg,Pink,Pink.jpg,,
,,,,,,,,,,,,,,,,,,-2,,,,,,,,,,,,,,,,,,,,,,,,,,,,,,,001,2021-12-17_24h04.33.604,jm_natural_scene_simialrity_2-12-2021_version2,2021.2.3,Win32,60.13590715,5e67a7d13413ff01776d1ed8,61bbc5c79a1c66460f44041e,61bbc6065f3e205d59c2e42b,,,-82,-51,1,0,0,response5disk,1.9665,18,-2,1,0,0,rectangle,18,-2,1,0,0,3,3,"[44,9,101,130,65,88,95,156,58,115]",18,-2,1,0,0,0,59,59,49,1,LightBlue,LightBlue.jpg,Red,Red.jpg,,
,,,,,,,,,,,,,,,,,,-4,,,,,,,,,,,,,,,,,,,,,,,,,,,,,,,001,2021-12-17_24h04.33.604,jm_natural_scene_simialrity_2-12-2021_version2,2021.2.3,Win32,60.13590715,5e67a7d13413ff01776d1ed8,61bbc5c79a1c66460f44041e,61bbc6065f3e205d59c2e42b,,,-45,109,1,0,0,response7disk,2.1167,-7,0,1,0,0,rectangle,-7,0,1,0,0,3,-4,"[44,9,101,130,65,88,95,156,58,115]",-7,0,1,0,0,0,60,60,6,1,Red,Red.jpg,DarkBlue,DarkBlue.jpg,,
,,,,,,,,,,,,,,,,,,1,,,,,,,,,,,,,,,,,,,,,,,,,,,,,,,001,2021-12-17_24h04.33.604,jm_natural_scene_simialrity_2-12-2021_version2,2021.2.3,Win32,60.13590715,5e67a7d13413ff01776d1ed8,61bbc5c79a1c66460f44041e,61bbc6065f3e205d59c2e42b,,,69,-99,1,0,0,response3disk,1.7332,-5,-10,1,0,0,rectangle,-5,-10,1,0,0,3,-1,"[44,9,101,130,65,88,95,156,58,115]",-5,-10,1,0,0,0,61,61,53,1,LightGreen,LightGreen.jpg,Yellow,Yellow.jpg,,
,,,,,,,,,,,,,,,,,,-1,,,,,,,,,,,,,,,,,,,,,,,,,,,,,,,001,2021-12-17_24h04.33.604,jm_natural_scene_simialrity_2-12-2021_version2,2021.2.3,Win32,60.13590715,5e67a7d13413ff01776d1ed8,61bbc5c79a1c66460f44041e,61bbc6065f3e205d59c2e42b,,,-46,-89,1,0,0,response5disk,3.0833,-8,-14,1,0,0,rectangle,-8,-14,1,0,0,3,2,"[44,9,101,130,65,88,95,156,58,115]",-8,-14,1,0,0,0,62,62,62,1,LightBlue,LightBlue.jpg,LightGreen,LightGreen.jpg,,
,,,,,,,,,,,,,,,,,,3,,,,,,,,,,,,,,,,,,,,,,,,,,,,,,,001,2021-12-17_24h04.33.604,jm_natural_scene_simialrity_2-12-2021_version2,2021.2.3,Win32,60.13590715,5e67a7d13413ff01776d1ed8,61bbc5c79a1c66460f44041e,61bbc6065f3e205d59c2e42b,,,107,39,1,0,0,response1disk,1.7498,10,-1,1,0,0,rectangle,10,-1,1,0,0,3,-2,"[44,9,101,130,65,88,95,156,58,115]",10,-1,1,0,0,0,63,63,72,1,DarkBlue,DarkBlue.jpg,Turquiose,Turquiose.jpg,,
,,,,,,,,,,,,,,,,,,-1,,,,,,,,,,,,,,,,,,,,,,,,,,,,,,,001,2021-12-17_24h04.33.604,jm_natural_scene_simialrity_2-12-2021_version2,2021.2.3,Win32,60.13590715,5e67a7d13413ff01776d1ed8,61bbc5c79a1c66460f44041e,61bbc6065f3e205d59c2e42b,,,-27,-94,1,0,0,response5disk,2.3165,2,-11,1,0,0,rectangle,42,-115,1,0,0,1,1,"[44,9,101,130,65,88,95,156,58,115]",4,-12,1,0,0,0,64,64,67,1,LightBlue,LightBlue.jpg,DarkGreen,DarkGreen.jpg,response3disk_3,rectangle
,,,,,,,,,,,,,,,,,,4,,,,,,,,,,,,,,,,,,,,,,,,,,,,,,,001,2021-12-17_24h04.33.604,jm_natural_scene_simialrity_2-12-2021_version2,2021.2.3,Win32,60.13590715,5e67a7d13413ff01776d1ed8,61bbc5c79a1c66460f44041e,61bbc6065f3e205d59c2e42b,,,46,121,1,0,0,response1disk,0.8167,-5,1,1,0,0,rectangle,-5,1,1,0,0,1,-1,"[44,9,101,130,65,88,95,156,58,115]",-5,1,1,0,0,0,65,65,9,1,Yellow,Yellow.jpg,Yellow,Yellow.jpg,,
,,,,,,,,,,,,,,,,,,-3,,,,,,,,,,,,,,,,,,,,,,,,,,,,,,,001,2021-12-17_24h04.33.604,jm_natural_scene_simialrity_2-12-2021_version2,2021.2.3,Win32,60.13590715,5e67a7d13413ff01776d1ed8,61bbc5c79a1c66460f44041e,61bbc6065f3e205d59c2e42b,,,-103,42,1,0,0,response7disk,2.0665,-3,1,1,0,0,rectangle,-3,1,1,0,0,1,2,"[44,9,101,130,65,88,95,156,58,115]",-3,1,1,0,0,0,66,66,68,1,DarkBlue,DarkBlue.jpg,DarkGreen,DarkGreen.jpg,,
,,,,,,,,,,,,,,,,,,1,,,,,,,,,,,,,,,,,,,,,,,,,,,,,,,001,2021-12-17_24h04.33.604,jm_natural_scene_simialrity_2-12-2021_version2,2021.2.3,Win32,60.13590715,5e67a7d13413ff01776d1ed8,61bbc5c79a1c66460f44041e,61bbc6065f3e205d59c2e42b,,,50,-78,1,0,0,response3disk,2.3833,-2,-11,1,0,0,rectangle,-2,-11,1,0,0,1,3,"[44,9,101,130,65,88,95,156,58,115]",-2,-11,1,0,0,0,67,67,65,1,Purple,Purple.jpg,LightGreen,LightGreen.jpg,,
,,,,,,,,,,,,,,,,,,2,,,,,,,,,,,,,,,,,,,,,,,,,,,,,,,001,2021-12-17_24h04.33.604,jm_natural_scene_simialrity_2-12-2021_version2,2021.2.3,Win32,60.13590715,5e67a7d13413ff01776d1ed8,61bbc5c79a1c66460f44041e,61bbc6065f3e205d59c2e42b,,,111,-23,1,0,0,response3disk,3.5832,5,10,1,0,0,rectangle,5,10,1,0,0,1,-4,"[44,9,101,130,65,88,95,156,58,115]",5,10,1,0,0,0,68,68,79,1,Purple,Purple.jpg,DarkBlue,DarkBlue.jpg,,
,,,,,,,,,,,,,,,,,,-2,,,,,,,,,,,,,,,,,,,,,,,,,,,,,,,001,2021-12-17_24h04.33.604,jm_natural_scene_simialrity_2-12-2021_version2,2021.2.3,Win32,60.13590715,5e67a7d13413ff01776d1ed8,61bbc5c79a1c66460f44041e,61bbc6065f3e205d59c2e42b,,,-66,-44,1,0,0,response5disk,2,-13,-11,1,0,0,rectangle,-13,-11,1,0,0,1,-1,"[44,9,101,130,65,88,95,156,58,115]",-13,-11,1,0,0,0,69,69,46,1,LightGreen,LightGreen.jpg,Red,Red.jpg,,
,,,,,,,,,,,,,,,,,,4,,,,,,,,,,,,,,,,,,,,,,,,,,,,,,,001,2021-12-17_24h04.33.604,jm_natural_scene_simialrity_2-12-2021_version2,2021.2.3,Win32,60.13590715,5e67a7d13413ff01776d1ed8,61bbc5c79a1c66460f44041e,61bbc6065f3e205d59c2e42b,,,66,124,1,0,0,response1disk,0.9332,6,-2,1,0,0,rectangle,6,-2,1,0,0,1,-2,"[44,9,101,130,65,88,95,156,58,115]",6,-2,1,0,0,0,70,70,30,1,Turquiose,Turquiose.jpg,Turquiose,Turquiose.jpg,,
,,,,,,,,,,,,,,,,,,1,,,,,,,,,,,,,,,,,,,,,,,,,,,,,,,001,2021-12-17_24h04.33.604,jm_natural_scene_simialrity_2-12-2021_version2,2021.2.3,Win32,60.13590715,5e67a7d13413ff01776d1ed8,61bbc5c79a1c66460f44041e,61bbc6065f3e205d59c2e42b,,,62,-94,1,0,0,response3disk,2.4333,2,-13,1,0,0,rectangle,2,-13,1,0,0,1,-4,"[44,9,101,130,65,88,95,156,58,115]",2,-13,1,0,0,0,71,71,20,1,LightGreen,LightGreen.jpg,LightBlue,LightBlue.jpg,,
,,,,,,,,,,,,,,,,,,-4,,,,,,,,,,,,,,,,,,,,,,,,,,,,,,,001,2021-12-17_24h04.33.604,jm_natural_scene_simialrity_2-12-2021_version2,2021.2.3,Win32,60.13590715,5e67a7d13413ff01776d1ed8,61bbc5c79a1c66460f44041e,61bbc6065f3e205d59c2e42b,,,-44,94,1,0,0,response7disk,1.6998,11,-3,1,0,0,rectangle,11,-3,1,0,0,1,-1,"[44,9,101,130,65,88,95,156,58,115]",11,-3,1,0,0,0,72,72,50,1,DarkBlue,DarkBlue.jpg,Red,Red.jpg,,
,,,,,,,,,,,,,,,,,,3,,,,,,,,,,,,,,,,,,,,,,,,,,,,,,,001,2021-12-17_24h04.33.604,jm_natural_scene_simialrity_2-12-2021_version2,2021.2.3,Win32,60.13590715,5e67a7d13413ff01776d1ed8,61bbc5c79a1c66460f44041e,61bbc6065f3e205d59c2e42b,,,101,30,1,0,0,response1disk,0.95,12,4,1,0,0,rectangle,12,4,1,0,0,1,-2,"[44,9,101,130,65,88,95,156,58,115]",12,4,1,0,0,0,73,73,45,1,Yellow,Yellow.jpg,Red,Red.jpg,,
,,,,,,,,,,,,,,,,,,-4,,,,,,,,,,,,,,,,,,,,,,,,,,,,,,,001,2021-12-17_24h04.33.604,jm_natural_scene_simialrity_2-12-2021_version2,2021.2.3,Win32,60.13590715,5e67a7d13413ff01776d1ed8,61bbc5c79a1c66460f44041e,61bbc6065f3e205d59c2e42b,,,-36,110,1,0,0,response7disk,1.3666,4,-3,1,0,0,rectangle,4,-3,1,0,0,1,-4,"[44,9,101,130,65,88,95,156,58,115]",4,-3,1,0,0,0,74,74,48,1,Turquiose,Turquiose.jpg,Red,Red.jpg,,
,,,,,,,,,,,,,,,,,,-4,,,,,,,,,,,,,,,,,,,,,,,,,,,,,,,001,2021-12-17_24h04.33.604,jm_natural_scene_simialrity_2-12-2021_version2,2021.2.3,Win32,60.13590715,5e67a7d13413ff01776d1ed8,61bbc5c79a1c66460f44041e,61bbc6065f3e205d59c2e42b,,,-54,107,1,0,0,response7disk,0.9167,-10,7,1,0,0,rectangle,-10,7,1,0,0,1,3,"[44,9,101,130,65,88,95,156,58,115]",-10,7,1,0,0,0,75,75,78,1,Pink,Pink.jpg,DarkBlue,DarkBlue.jpg,,
,,,,,,,,,,,,,,,,,,-4,,,,,,,,,,,,,,,,,,,,,,,,,,,,,,,001,2021-12-17_24h04.33.604,jm_natural_scene_simialrity_2-12-2021_version2,2021.2.3,Win32,60.13590715,5e67a7d13413ff01776d1ed8,61bbc5c79a1c66460f44041e,61bbc6065f3e205d59c2e42b,,,-46,104,1,0,0,response7disk,1.0333,-19,15,1,0,0,rectangle,-19,15,1,0,0,1,-1,"[44,9,101,130,65,88,95,156,58,115]",-19,15,1,0,0,0,76,76,13,1,Yellow,Yellow.jpg,LightBlue,LightBlue.jpg,,
,,,,,,,,,,,,,,,,,,-1,,,,,,,,,,,,,,,,,,,,,,,,,,,,,,,001,2021-12-17_24h04.33.604,jm_natural_scene_simialrity_2-12-2021_version2,2021.2.3,Win32,60.13590715,5e67a7d13413ff01776d1ed8,61bbc5c79a1c66460f44041e,61bbc6065f3e205d59c2e42b,,,-28,-99,1,0,0,response5disk,1.6161,-10,-4,1,0,0,rectangle,-10,-4,1,0,0,1,-4,"[44,9,101,130,65,88,95,156,58,115]",-10,-4,1,0,0,0,77,77,47,1,DarkGreen,DarkGreen.jpg,Red,Red.jpg,,
,,,,,,,,,,,,,,,,,,2,,,,,,,,,,,,,,,,,,,,,,,,,,,,,,,001,2021-12-17_24h04.33.604,jm_natural_scene_simialrity_2-12-2021_version2,2021.2.3,Win32,60.13590715,5e67a7d13413ff01776d1ed8,61bbc5c79a1c66460f44041e,61bbc6065f3e205d59c2e42b,,,89,-58,1,0,0,response3disk,1.7167,4,-10,1,0,0,rectangle,4,-10,1,0,0,1,-1,"[44,9,101,130,65,88,95,156,58,115]",4,-10,1,0,0,0,78,78,41,1,DarkBlue,DarkBlue.jpg,Purple,Purple.jpg,,
,,,,,,,,,,,,,,,,,,4,,,,,,,,,,,,,,,,,,,,,,,,,,,,,,,001,2021-12-17_24h04.33.604,jm_natural_scene_simialrity_2-12-2021_version2,2021.2.3,Win32,60.13590715,5e67a7d13413ff01776d1ed8,61bbc5c79a1c66460f44041e,61bbc6065f3e205d59c2e42b,,,45,117,1,0,0,response1disk,1.25,-21,-2,1,0,0,rectangle,-21,-2,1,0,0,1,-1,"[44,9,101,130,65,88,95,156,58,115]",-21,-2,1,0,0,0,79,79,17,1,LightGreen,LightGreen.jpg,LightGreen,LightGreen.jpg,,
,,,,,,,,,,,,,,,,,,-4,,,,,,,,,,,,,,,,,,,,,,,,,,,,,,,001,2021-12-17_24h04.33.604,jm_natural_scene_simialrity_2-12-2021_version2,2021.2.3,Win32,60.13590715,5e67a7d13413ff01776d1ed8,61bbc5c79a1c66460f44041e,61bbc6065f3e205d59c2e42b,,,-73,116,1,0,0,response7disk,1.1332,-9,7,1,0,0,rectangle,-9,7,1,0,0,1,-1,"[44,9,101,130,65,88,95,156,58,115]",-9,7,1,0,0,0,80,80,14,1,Yellow,Yellow.jpg,DarkBlue,DarkBlue.jpg,,
,,,,,,,,,,,,,,,,,,4,,,,,,,,,,,,,,,,,,,,,,,,,,,,,,,001,2021-12-17_24h04.33.604,jm_natural_scene_simialrity_2-12-2021_version2,2021.2.3,Win32,60.13590715,5e67a7d13413ff01776d1ed8,61bbc5c79a1c66460f44041e,61bbc6065f3e205d59c2e42b,,,44,129,1,0,0,response1disk,1.05,-16,5,1,0,0,rectangle,-16,5,1,0,0,1,-2,"[44,9,101,130,65,88,95,156,58,115]",-16,5,1,0,0,1,0,81,44,1,Purple,Purple.jpg,Purple,Purple.jpg,,
,,,,,,,,,,,,,,,,,,2,,,,,,,,,,,,,,,,,,,,,,,,,,,,,,,001,2021-12-17_24h04.33.604,jm_natural_scene_simialrity_2-12-2021_version2,2021.2.3,Win32,60.13590715,5e67a7d13413ff01776d1ed8,61bbc5c79a1c66460f44041e,61bbc6065f3e205d59c2e42b,,,94,-45,1,0,0,response3disk,2.0499,6,-10,1,0,0,rectangle,6,-10,1,0,0,1,-1,"[44,9,101,130,65,88,95,156,58,115]",6,-10,1,0,0,1,1,82,55,1,Turquiose,Turquiose.jpg,Yellow,Yellow.jpg,,
,,,,,,,,,,,,,,,,,,-3,,,,,,,,,,,,,,,,,,,,,,,,,,,,,,,001,2021-12-17_24h04.33.604,jm_natural_scene_simialrity_2-12-2021_version2,2021.2.3,Win32,60.13590715,5e67a7d13413ff01776d1ed8,61bbc5c79a1c66460f44041e,61bbc6065f3e205d59c2e42b,,,-89,32,1,0,0,response7disk,3.5498,-20,0,1,0,0,rectangle,-20,0,1,0,0,1,2,"[44,9,101,130,65,88,95,156,58,115]",-20,0,1,0,0,1,2,83,12,1,Yellow,Yellow.jpg,Turquiose,Turquiose.jpg,,
,,,,,,,,,,,,,,,,,,-1,,,,,,,,,,,,,,,,,,,,,,,,,,,,,,,001,2021-12-17_24h04.33.604,jm_natural_scene_simialrity_2-12-2021_version2,2021.2.3,Win32,60.13590715,5e67a7d13413ff01776d1ed8,61bbc5c79a1c66460f44041e,61bbc6065f3e205d59c2e42b,,,-59,-101,1,0,0,response5disk,2.7168,-7,-6,1,0,0,rectangle,-7,-6,1,0,0,1,1,"[44,9,101,130,65,88,95,156,58,115]",-7,-6,1,0,0,1,3,84,20,1,LightGreen,LightGreen.jpg,LightBlue,LightBlue.jpg,,
,,,,,,,,,,,,,,,,,,-2,,,,,,,,,,,,,,,,,,,,,,,,,,,,,,,001,2021-12-17_24h04.33.604,jm_natural_scene_simialrity_2-12-2021_version2,2021.2.3,Win32,60.13590715,5e67a7d13413ff01776d1ed8,61bbc5c79a1c66460f44041e,61bbc6065f3e205d59c2e42b,,,-80,-32,1,0,0,response5disk,2.1499,-9,-1,1,0,0,rectangle,-9,-1,1,0,0,1,1,"[44,9,101,130,65,88,95,156,58,115]",-9,-1,1,0,0,1,4,85,21,1,LightGreen,LightGreen.jpg,DarkBlue,DarkBlue.jpg,,
,,,,,,,,,,,,,,,,,,-3,,,,,,,,,,,,,,,,,,,,,,,,,,,,,,,001,2021-12-17_24h04.33.604,jm_natural_scene_simialrity_2-12-2021_version2,2021.2.3,Win32,60.13590715,5e67a7d13413ff01776d1ed8,61bbc5c79a1c66460f44041e,61bbc6065f3e205d59c2e42b,,,-84,57,1,0,0,response7disk,1.6,6,0,1,0,0,rectangle,6,0,1,0,0,1,-1,"[44,9,101,130,65,88,95,156,58,115]",6,0,1,0,0,1,5,86,5,1,Red,Red.jpg,LightBlue,LightBlue.jpg,,
,,,,,,,,,,,,,,,,,,-3,,,,,,,,,,,,,,,,,,,,,,,,,,,,,,,001,2021-12-17_24h04.33.604,jm_natural_scene_simialrity_2-12-2021_version2,2021.2.3,Win32,60.13590715,5e67a7d13413ff01776d1ed8,61bbc5c79a1c66460f44041e,61bbc6065f3e205d59c2e42b,,,-79,24,1,0,0,response7disk,1.6832,-3,-12,1,0,0,rectangle,46,-110,1,0,0,1,1,"[44,9,101,130,65,88,95,156,58,115]",8,-15,1,0,0,1,6,87,19,1,LightGreen,LightGreen.jpg,Turquiose,Turquiose.jpg,response3disk_3,rectangle
,,,,,,,,,,,,,,,,,,2,,,,,,,,,,,,,,,,,,,,,,,,,,,,,,,001,2021-12-17_24h04.33.604,jm_natural_scene_simialrity_2-12-2021_version2,2021.2.3,Win32,60.13590715,5e67a7d13413ff01776d1ed8,61bbc5c79a1c66460f44041e,61bbc6065f3e205d59c2e42b,,,111,-48,1,0,0,response3disk,1.3498,4,0,1,0,0,rectangle,4,0,1,0,0,1,3,"[44,9,101,130,65,88,95,156,58,115]",4,0,1,0,0,1,7,88,43,1,Pink,Pink.jpg,Purple,Purple.jpg,,
,,,,,,,,,,,,,,,,,,1,,,,,,,,,,,,,,,,,,,,,,,,,,,,,,,001,2021-12-17_24h04.33.604,jm_natural_scene_simialrity_2-12-2021_version2,2021.2.3,Win32,60.13590715,5e67a7d13413ff01776d1ed8,61bbc5c79a1c66460f44041e,61bbc6065f3e205d59c2e42b,,,48,-101,1,0,0,response3disk,1.8332,-1,-9,1,0,0,rectangle,-1,-9,1,0,0,1,1,"[44,9,101,130,65,88,95,156,58,115]",-1,-9,1,0,0,1,8,89,47,1,DarkGreen,DarkGreen.jpg,Red,Red.jpg,,
,,,,,,,,,,,,,,,,,,-2,,,,,,,,,,,,,,,,,,,,,,,,,,,,,,,001,2021-12-17_24h04.33.604,jm_natural_scene_simialrity_2-12-2021_version2,2021.2.3,Win32,60.13590715,5e67a7d13413ff01776d1ed8,61bbc5c79a1c66460f44041e,61bbc6065f3e205d59c2e42b,,,-98,-40,1,0,0,response5disk,1.4832,-5,-9,1,0,0,rectangle,-5,-9,1,0,0,1,-2,"[44,9,101,130,65,88,95,156,58,115]",-5,-9,1,0,0,1,9,90,26,1,DarkGreen,DarkGreen.jpg,LightBlue,LightBlue.jpg,,
,,,,,,,,,,,,,,,,,,1,,,,,,,,,,,,,,,,,,,,,,,,,,,,,,,001,2021-12-17_24h04.33.604,jm_natural_scene_simialrity_2-12-2021_version2,2021.2.3,Win32,60.13590715,5e67a7d13413ff01776d1ed8,61bbc5c79a1c66460f44041e,61bbc6065f3e205d59c2e42b,,,36,-109,1,0,0,response3disk,2.0335,11,-18,1,0,0,rectangle,11,-18,1,0,0,1,-4,"[44,9,101,130,65,88,95,156,58,115]",11,-18,1,0,0,1,10,91,38,1,LightBlue,LightBlue.jpg,Purple,Purple.jpg,,
,,,,,,,,,,,,,,,,,,-4,,,,,,,,,,,,,,,,,,,,,,,,,,,,,,,001,2021-12-17_24h04.33.604,jm_natural_scene_simialrity_2-12-2021_version2,2021.2.3,Win32,60.13590715,5e67a7d13413ff01776d1ed8,61bbc5c79a1c66460f44041e,61bbc6065f3e205d59c2e42b,,,-53,82,1,0,0,response7disk,2.5168,7,0,1,0,0,rectangle,7,0,1,0,0,1,1,"[44,9,101,130,65,88,95,156,58,115]",7,0,1,0,0,1,11,92,76,1,Pink,Pink.jpg,LightBlue,LightBlue.jpg,,
,,,,,,,,,,,,,,,,,,-3,,,,,,,,,,,,,,,,,,,,,,,,,,,,,,,001,2021-12-17_24h04.33.604,jm_natural_scene_simialrity_2-12-2021_version2,2021.2.3,Win32,60.13590715,5e67a7d13413ff01776d1ed8,61bbc5c79a1c66460f44041e,61bbc6065f3e205d59c2e42b,,,-104,38,1,0,0,response7disk,2.0001,-25,-3,1,0,0,rectangle,-25,-3,1,0,0,1,3,"[44,9,101,130,65,88,95,156,58,115]",-25,-3,1,0,0,1,12,93,70,1,Purple,Purple.jpg,DarkGreen,DarkGreen.jpg,,
,,,,,,,,,,,,,,,,,,-3,,,,,,,,,,,,,,,,,,,,,,,,,,,,,,,001,2021-12-17_24h04.33.604,jm_natural_scene_simialrity_2-12-2021_version2,2021.2.3,Win32,60.13590715,5e67a7d13413ff01776d1ed8,61bbc5c79a1c66460f44041e,61bbc6065f3e205d59c2e42b,,,-69,60,1,0,0,response7disk,2.983,-22,23,1,0,0,rectangle,-54,-100,1,0,0,-1,-1,"[44,9,101,130,65,88,95,156,58,115]",-9,-13,1,0,0,1,13,94,4,1,Red,Red.jpg,Turquiose,Turquiose.jpg,response5disk_3,rectangle
,,,,,,,,,,,,,,,,,,3,,,,,,,,,,,,,,,,,,,,,,,,,,,,,,,001,2021-12-17_24h04.33.604,jm_natural_scene_simialrity_2-12-2021_version2,2021.2.3,Win32,60.13590715,5e67a7d13413ff01776d1ed8,61bbc5c79a1c66460f44041e,61bbc6065f3e205d59c2e42b,,,107,32,1,0,0,response1disk,1.45,16,-7,1,0,0,rectangle,16,-7,1,0,0,-1,3,"[44,9,101,130,65,88,95,156,58,115]",16,-7,1,0,0,1,14,95,1,1,Red,Red.jpg,Yellow,Yellow.jpg,,
,,,,,,,,,,,,,,,,,,2,,,,,,,,,,,,,,,,,,,,,,,,,,,,,,,001,2021-12-17_24h04.33.604,jm_natural_scene_simialrity_2-12-2021_version2,2021.2.3,Win32,60.13590715,5e67a7d13413ff01776d1ed8,61bbc5c79a1c66460f44041e,61bbc6065f3e205d59c2e42b,,,105,-50,1,0,0,response3disk,2.6832,14,-8,1,0,0,rectangle,14,-8,1,0,0,-1,-2,"[44,9,101,130,65,88,95,156,58,115]",14,-8,1,0,0,1,15,96,41,1,DarkBlue,DarkBlue.jpg,Purple,Purple.jpg,,
,,,,,,,,,,,,,,,,,,4,,,,,,,,,,,,,,,,,,,,,,,,,,,,,,,001,2021-12-17_24h04.33.604,jm_natural_scene_simialrity_2-12-2021_version2,2021.2.3,Win32,60.13590715,5e67a7d13413ff01776d1ed8,61bbc5c79a1c66460f44041e,61bbc6065f3e205d59c2e42b,,,36,100,1,0,0,response1disk,0.7333,5,0,1,0,0,rectangle,5,0,1,0,0,-1,-2,"[44,9,101,130,65,88,95,156,58,115]",5,0,1,0,0,1,16,97,39,1,DarkBlue,DarkBlue.jpg,DarkBlue,DarkBlue.jpg,,
,,,,,,,,,,,,,,,,,,-3,,,,,,,,,,,,,,,,,,,,,,,,,,,,,,,001,2021-12-17_24h04.33.604,jm_natural_scene_simialrity_2-12-2021_version2,2021.2.3,Win32,60.13590715,5e67a7d13413ff01776d1ed8,61bbc5c79a1c66460f44041e,61bbc6065f3e205d59c2e42b,,,-66,41,1,0,0,response7disk,1.2,-17,-10,1,0,0,rectangle,-17,-10,1,0,0,-1,1,"[44,9,101,130,65,88,95,156,58,115]",-17,-10,1,0,0,1,17,98,53,1,LightGreen,LightGreen.jpg,Yellow,Yellow.jpg,,
,,,,,,,,,,,,,,,,,,-3,,,,,,,,,,,,,,,,,,,,,,,,,,,,,,,001,2021-12-17_24h04.33.604,jm_natural_scene_simialrity_2-12-2021_version2,2021.2.3,Win32,60.13590715,5e67a7d13413ff01776d1ed8,61bbc5c79a1c66460f44041e,61bbc6065f3e205d59c2e42b,,,-84,42,1,0,0,response7disk,0.7833,-12,-5,1,0,0,rectangle,-12,-5,1,0,0,-1,-1,"[44,9,101,130,65,88,95,156,58,115]",-12,-5,1,0,0,1,18,99,74,1,Purple,Purple.jpg,Turquiose,Turquiose.jpg,,
,,,,,,,,,,,,,,,,,,3,,,,,,,,,,,,,,,,,,,,,,,,,,,,,,,001,2021-12-17_24h04.33.604,jm_natural_scene_simialrity_2-12-2021_version2,2021.2.3,Win32,60.13590715,5e67a7d13413ff01776d1ed8,61bbc5c79a1c66460f44041e,61bbc6065f3e205d59c2e42b,,,111,31,1,0,0,response1disk,1.3834,9,6,1,0,0,rectangle,87,-44,1,0,0,2,2,"[44,9,101,130,65,88,95,156,58,115]",10,-8,1,0,0,1,19,100,49,1,LightBlue,LightBlue.jpg,Red,Red.jpg,response3disk_3,rectangle
,,,,,,,,,,,,,,,,,,2,,,,,,,,,,,,,,,,,,,,,,,,,,,,,,,001,2021-12-17_24h04.33.604,jm_natural_scene_simialrity_2-12-2021_version2,2021.2.3,Win32,60.13590715,5e67a7d13413ff01776d1ed8,61bbc5c79a1c66460f44041e,61bbc6065f3e205d59c2e42b,,,109,-38,1,0,0,response3disk,3.2495,3,9,1,0,0,rectangle,3,9,1,0,0,2,-3,"[44,9,101,130,65,88,95,156,58,115]",3,9,1,0,0,1,20,101,45,1,Yellow,Yellow.jpg,Red,Red.jpg,,
,,,,,,,,,,,,,,,,,,3,,,,,,,,,,,,,,,,,,,,,,,,,,,,,,,001,2021-12-17_24h04.33.604,jm_natural_scene_simialrity_2-12-2021_version2,2021.2.3,Win32,60.13590715,5e67a7d13413ff01776d1ed8,61bbc5c79a1c66460f44041e,61bbc6065f3e205d59c2e42b,,,99,36,1,0,0,response1disk,1.2998,-4,7,1,0,0,rectangle,-4,7,1,0,0,2,3,"[44,9,101,130,65,88,95,156,58,115]",-4,7,1,0,0,1,21,102,56,1,LightBlue,LightBlue.jpg,Yellow,Yellow.jpg,,
,,,,,,,,,,,,,,,,,,4,,,,,,,,,,,,,,,,,,,,,,,,,,,,,,,001,2021-12-17_24h04.33.604,jm_natural_scene_simialrity_2-12-2021_version2,2021.2.3,Win32,60.13590715,5e67a7d13413ff01776d1ed8,61bbc5c79a1c66460f44041e,61bbc6065f3e205d59c2e42b,,,72,135,1,0,0,response1disk,0.9165,8,13,1,0,0,rectangle,8,13,1,0,0,2,-4,"[44,9,101,130,65,88,95,156,58,115]",8,13,1,0,0,1,22,103,42,1,Pink,Pink.jpg,Pink,Pink.jpg,,
,,,,,,,,,,,,,,,,,,-4,,,,,,,,,,,,,,,,,,,,,,,,,,,,,,,001,2021-12-17_24h04.33.604,jm_natural_scene_simialrity_2-12-2021_version2,2021.2.3,Win32,60.13590715,5e67a7d13413ff01776d1ed8,61bbc5c79a1c66460f44041e,61bbc6065f3e205d59c2e42b,,,-54,94,1,0,0,response7disk,1.4667,-10,9,1,0,0,rectangle,-10,9,1,0,0,2,-1,"[44,9,101,130,65,88,95,156,58,115]",-10,9,1,0,0,1,23,104,13,1,Yellow,Yellow.jpg,LightBlue,LightBlue.jpg,,
,,,,,,,,,,,,,,,,,,4,,,,,,,,,,,,,,,,,,,,,,,,,,,,,,,001,2021-12-17_24h04.33.604,jm_natural_scene_simialrity_2-12-2021_version2,2021.2.3,Win32,60.13590715,5e67a7d13413ff01776d1ed8,61bbc5c79a1c66460f44041e,61bbc6065f3e205d59c2e42b,,,60,91,1,0,0,response1disk,0.8334,9,8,1,0,0,rectangle,9,8,1,0,0,2,-2,"[44,9,101,130,65,88,95,156,58,115]",9,8,1,0,0,1,24,105,35,1,LightBlue,LightBlue.jpg,LightBlue,LightBlue.jpg,,
,,,,,,,,,,,,,,,,,,4,,,,,,,,,,,,,,,,,,,,,,,,,,,,,,,001,2021-12-17_24h04.33.604,jm_natural_scene_simialrity_2-12-2021_version2,2021.2.3,Win32,60.13590715,5e67a7d13413ff01776d1ed8,61bbc5c79a1c66460f44041e,61bbc6065f3e205d59c2e42b,,,39,102,1,0,0,response1disk,0.8339,-1,1,1,0,0,rectangle,-1,1,1,0,0,2,-4,"[44,9,101,130,65,88,95,156,58,115]",-1,1,1,0,0,1,25,106,18,1,LightGreen,LightGreen.jpg,DarkGreen,DarkGreen.jpg,,
,,,,,,,,,,,,,,,,,,-3,,,,,,,,,,,,,,,,,,,,,,,,,,,,,,,001,2021-12-17_24h04.33.604,jm_natural_scene_simialrity_2-12-2021_version2,2021.2.3,Win32,60.13590715,5e67a7d13413ff01776d1ed8,61bbc5c79a1c66460f44041e,61bbc6065f3e205d59c2e42b,,,-85,42,1,0,0,response7disk,1.6666,-11,5,1,0,0,rectangle,-11,5,1,0,0,2,-3,"[44,9,101,130,65,88,95,156,58,115]",-11,5,1,0,0,1,26,107,27,1,DarkGreen,DarkGreen.jpg,DarkBlue,DarkBlue.jpg,,
,,,,,,,,,,,,,,,,,,-4,,,,,,,,,,,,,,,,,,,,,,,,,,,,,,,001,2021-12-17_24h04.33.604,jm_natural_scene_simialrity_2-12-2021_version2,2021.2.3,Win32,60.13590715,5e67a7d13413ff01776d1ed8,61bbc5c79a1c66460f44041e,61bbc6065f3e205d59c2e42b,,,-25,107,1,0,0,response7disk,1.0665,12,6,1,0,0,rectangle,12,6,1,0,0,2,2,"[44,9,101,130,65,88,95,156,58,115]",12,6,1,0,0,1,27,108,57,1,DarkBlue,DarkBlue.jpg,Yellow,Yellow.jpg,,
,,,,,,,,,,,,,,,,,,-4,,,,,,,,,,,,,,,,,,,,,,,,,,,,,,,001,2021-12-17_24h04.33.604,jm_natural_scene_simialrity_2-12-2021_version2,2021.2.3,Win32,60.13590715,5e67a7d13413ff01776d1ed8,61bbc5c79a1c66460f44041e,61bbc6065f3e205d59c2e42b,,,-37,105,1,0,0,response7disk,0.9002,-12,21,1,0,0,rectangle,-12,21,1,0,0,2,2,"[44,9,101,130,65,88,95,156,58,115]",-12,21,1,0,0,1,28,109,28,1,DarkGreen,DarkGreen.jpg,Pink,Pink.jpg,,
,,,,,,,,,,,,,,,,,,4,,,,,,,,,,,,,,,,,,,,,,,,,,,,,,,001,2021-12-17_24h04.33.604,jm_natural_scene_simialrity_2-12-2021_version2,2021.2.3,Win32,60.13590715,5e67a7d13413ff01776d1ed8,61bbc5c79a1c66460f44041e,61bbc6065f3e205d59c2e42b,,,49,99,1,0,0,response1disk,0.8,17,7,1,0,0,rectangle,17,7,1,0,0,2,1,"[44,9,101,130,65,88,95,156,58,115]",17,7,1,0,0,1,29,110,51,1,Pink,Pink.jpg,Red,Red.jpg,,
,,,,,,,,,,,,,,,,,,3,,,,,,,,,,,,,,,,,,,,,,,,,,,,,,,001,2021-12-17_24h04.33.604,jm_natural_scene_simialrity_2-12-2021_version2,2021.2.3,Win32,60.13590715,5e67a7d13413ff01776d1ed8,61bbc5c79a1c66460f44041e,61bbc6065f3e205d59c2e42b,,,101,26,1,0,0,response1disk,2.4499,3,10,1,0,0,rectangle,3,10,1,0,0,2,-3,"[44,9,101,130,65,88,95,156,58,115]",3,10,1,0,0,1,30,111,80,1,Purple,Purple.jpg,Pink,Pink.jpg,,
,,,,,,,,,,,,,,,,,,-3,,,,,,,,,,,,,,,,,,,,,,,,,,,,,,,001,2021-12-17_24h04.33.604,jm_natural_scene_simialrity_2-12-2021_version2,2021.2.3,Win32,60.13590715,5e67a7d13413ff01776d1ed8,61bbc5c79a1c66460f44041e,61bbc6065f3e205d59c2e42b,,,-64,34,1,0,0,response7disk,0.7501,-10,-2,1,0,0,rectangle,-10,-2,1,0,0,2,2,"[44,9,101,130,65,88,95,156,58,115]",-10,-2,1,0,0,1,31,112,34,1,Turquiose,Turquiose.jpg,Purple,Purple.jpg,,
,,,,,,,,,,,,,,,,,,-3,,,,,,,,,,,,,,,,,,,,,,,,,,,,,,,001,2021-12-17_24h04.33.604,jm_natural_scene_simialrity_2-12-2021_version2,2021.2.3,Win32,60.13590715,5e67a7d13413ff01776d1ed8,61bbc5c79a1c66460f44041e,61bbc6065f3e205d59c2e42b,,,-68,33,1,0,0,response7disk,1.3665,-11,3,1,0,0,rectangle,-11,3,1,0,0,2,2,"[44,9,101,130,65,88,95,156,58,115]",-11,3,1,0,0,1,32,113,36,1,LightBlue,LightBlue.jpg,DarkBlue,DarkBlue.jpg,,
,,,,,,,,,,,,,,,,,,3,,,,,,,,,,,,,,,,,,,,,,,,,,,,,,,001,2021-12-17_24h04.33.604,jm_natural_scene_simialrity_2-12-2021_version2,2021.2.3,Win32,60.13590715,5e67a7d13413ff01776d1ed8,61bbc5c79a1c66460f44041e,61bbc6065f3e205d59c2e42b,,,89,36,1,0,0,response1disk,1.1331,-1,5,1,0,0,rectangle,-82,34,1,0,0,-3,-3,"[44,9,101,130,65,88,95,156,58,115]",-8,-6,1,0,0,1,33,114,32,1,Turquiose,Turquiose.jpg,DarkBlue,DarkBlue.jpg,response7disk_3,rectangle
,,,,,,,,,,,,,,,,,,4,,,,,,,,,,,,,,,,,,,,,,,,,,,,,,,001,2021-12-17_24h04.33.604,jm_natural_scene_simialrity_2-12-2021_version2,2021.2.3,Win32,60.13590715,5e67a7d13413ff01776d1ed8,61bbc5c79a1c66460f44041e,61bbc6065f3e205d59c2e42b,,,42,96,1,0,0,response1disk,0.7334,3,0,1,0,0,rectangle,3,0,1,0,0,-3,2,"[44,9,101,130,65,88,95,156,58,115]",3,0,1,0,0,1,34,115,9,1,Yellow,Yellow.jpg,Yellow,Yellow.jpg,,
,,,,,,,,,,,,,,,,,,-2,,,,,,,,,,,,,,,,,,,,,,,,,,,,,,,001,2021-12-17_24h04.33.604,jm_natural_scene_simialrity_2-12-2021_version2,2021.2.3,Win32,60.13590715,5e67a7d13413ff01776d1ed8,61bbc5c79a1c66460f44041e,61bbc6065f3e205d59c2e42b,,,-75,-39,1,0,0,response5disk,1.6667,3,-4,1,0,0,rectangle,3,-4,1,0,0,-3,-1,"[44,9,101,130,65,88,95,156,58,115]",3,-4,1,0,0,1,35,116,2,1,Red,Red.jpg,LightGreen,LightGreen.jpg,,
,,,,,,,,,,,,,,,,,,-4,,,,,,,,,,,,,,,,,,,,,,,,,,,,,,,001,2021-12-17_24h04.33.604,jm_natural_scene_simialrity_2-12-2021_version2,2021.2.3,Win32,60.13590715,5e67a7d13413ff01776d1ed8,61bbc5c79a1c66460f44041e,61bbc6065f3e205d59c2e42b,,,-43,108,1,0,0,response7disk,0.85,2,-4,1,0,0,rectangle,2,-4,1,0,0,-3,-1,"[44,9,101,130,65,88,95,156,58,115]",2,-4,1,0,0,1,36,117,14,1,Yellow,Yellow.jpg,DarkBlue,DarkBlue.jpg,,
,,,,,,,,,,,,,,,,,,-4,,,,,,,,,,,,,,,,,,,,,,,,,,,,,,,001,2021-12-17_24h04.33.604,jm_natural_scene_simialrity_2-12-2021_version2,2021.2.3,Win32,60.13590715,5e67a7d13413ff01776d1ed8,61bbc5c79a1c66460f44041e,61bbc6065f3e205d59c2e42b,,,-40,106,1,0,0,response7disk,1.3332,-1,-4,1,0,0,rectangle,-1,-4,1,0,0,-3,1,"[44,9,101,130,65,88,95,156,58,115]",-1,-4,1,0,0,1,37,118,78,1,Pink,Pink.jpg,DarkBlue,DarkBlue.jpg,,
,,,,,,,,,,,,,,,,,,-3,,,,,,,,,,,,,,,,,,,,,,,,,,,,,,,001,2021-12-17_24h04.33.604,jm_natural_scene_simialrity_2-12-2021_version2,2021.2.3,Win32,60.13590715,5e67a7d13413ff01776d1ed8,61bbc5c79a1c66460f44041e,61bbc6065f3e205d59c2e42b,,,-91,35,1,0,0,response7disk,1.0166,-12,-6,1,0,0,rectangle,-12,-6,1,0,0,-3,-3,"[44,9,101,130,65,88,95,156,58,115]",-12,-6,1,0,0,1,38,119,68,1,DarkBlue,DarkBlue.jpg,DarkGreen,DarkGreen.jpg,,
,,,,,,,,,,,,,,,,,,-2,,,,,,,,,,,,,,,,,,,,,,,,,,,,,,,001,2021-12-17_24h04.33.604,jm_natural_scene_simialrity_2-12-2021_version2,2021.2.3,Win32,60.13590715,5e67a7d13413ff01776d1ed8,61bbc5c79a1c66460f44041e,61bbc6065f3e205d59c2e42b,,,-90,-32,1,0,0,response5disk,0.8167,-16,-1,1,0,0,rectangle,-16,-1,1,0,0,-3,-4,"[44,9,101,130,65,88,95,156,58,115]",-16,-1,1,0,0,1,39,120,22,1,LightGreen,LightGreen.jpg,Pink,Pink.jpg,,
,,,,,,,,,,,,,,,,,,3,,,,,,,,,,,,,,,,,,,,,,,,,,,,,,,001,2021-12-17_24h04.33.604,jm_natural_scene_simialrity_2-12-2021_version2,2021.2.3,Win32,60.13590715,5e67a7d13413ff01776d1ed8,61bbc5c79a1c66460f44041e,61bbc6065f3e205d59c2e42b,,,90,43,1,0,0,response1disk,0.8331,16,15,1,0,0,rectangle,16,15,1,0,0,-3,-4,"[44,9,101,130,65,88,95,156,58,115]",16,15,1,0,0,1,40,121,58,1,Pink,Pink.jpg,Yellow,Yellow.jpg,,
,,,,,,,,,,,,,,,,,,2,,,,,,,,,,,,,,,,,,,,,,,,,,,,,,,001,2021-12-17_24h04.33.604,jm_natural_scene_simialrity_2-12-2021_version2,2021.2.3,Win32,60.13590715,5e67a7d13413ff01776d1ed8,61bbc5c79a1c66460f44041e,61bbc6065f3e205d59c2e42b,,,62,-34,1,0,0,response3disk,1.2167,19,-11,1,0,0,rectangle,19,-11,1,0,0,-3,1,"[44,9,101,130,65,88,95,156,58,115]",19,-11,1,0,0,1,41,122,10,1,Yellow,Yellow.jpg,LightGreen,LightGreen.jpg,,
,,,,,,,,,,,,,,,,,,-2,,,,,,,,,,,,,,,,,,,,,,,,,,,,,,,001,2021-12-17_24h04.33.604,jm_natural_scene_simialrity_2-12-2021_version2,2021.2.3,Win32,60.13590715,5e67a7d13413ff01776d1ed8,61bbc5c79a1c66460f44041e,61bbc6065f3e205d59c2e42b,,,-55,-34,1,0,0,response5disk,1.8498,-15,-10,1,0,0,rectangle,-15,-10,1,0,0,-3,2,"[44,9,101,130,65,88,95,156,58,115]",-15,-10,1,0,0,1,42,123,67,1,LightBlue,LightBlue.jpg,DarkGreen,DarkGreen.jpg,,
,,,,,,,,,,,,,,,,,,3,,,,,,,,,,,,,,,,,,,,,,,,,,,,,,,001,2021-12-17_24h04.33.604,jm_natural_scene_simialrity_2-12-2021_version2,2021.2.3,Win32,60.13590715,5e67a7d13413ff01776d1ed8,61bbc5c79a1c66460f44041e,61bbc6065f3e205d59c2e42b,,,100,58,1,0,0,response1disk,0.9166,15,6,1,0,0,rectangle,15,6,1,0,0,-3,1,"[44,9,101,130,65,88,95,156,58,115]",15,6,1,0,0,1,43,124,15,1,Yellow,Yellow.jpg,Pink,Pink.jpg,,
,,,,,,,,,,,,,,,,,,-3,,,,,,,,,,,,,,,,,,,,,,,,,,,,,,,001,2021-12-17_24h04.33.604,jm_natural_scene_simialrity_2-12-2021_version2,2021.2.3,Win32,60.13590715,5e67a7d13413ff01776d1ed8,61bbc5c79a1c66460f44041e,61bbc6065f3e205d59c2e42b,,,-71,31,1,0,0,response7disk,1.5331,-3,-9,1,0,0,rectangle,-3,-9,1,0,0,-3,-1,"[44,9,101,130,65,88,95,156,58,115]",-3,-9,1,0,0,1,44,125,25,1,DarkGreen,DarkGreen.jpg,Turquiose,Turquiose.jpg,,
,,,,,,,,,,,,,,,,,,-3,,,,,,,,,,,,,,,,,,,,,,,,,,,,,,,001,2021-12-17_24h04.33.604,jm_natural_scene_simialrity_2-12-2021_version2,2021.2.3,Win32,60.13590715,5e67a7d13413ff01776d1ed8,61bbc5c79a1c66460f44041e,61bbc6065f3e205d59c2e42b,,,-105,46,1,0,0,response7disk,0.85,-13,-10,1,0,0,rectangle,-13,-10,1,0,0,-3,-3,"[44,9,101,130,65,88,95,156,58,115]",-13,-10,1,0,0,1,45,126,66,1,Turquiose,Turquiose.jpg,DarkGreen,DarkGreen.jpg,,
,,,,,,,,,,,,,,,,,,-3,,,,,,,,,,,,,,,,,,,,,,,,,,,,,,,001,2021-12-17_24h04.33.604,jm_natural_scene_simialrity_2-12-2021_version2,2021.2.3,Win32,60.13590715,5e67a7d13413ff01776d1ed8,61bbc5c79a1c66460f44041e,61bbc6065f3e205d59c2e42b,,,-79,30,1,0,0,response7disk,0.8,2,-12,1,0,0,rectangle,2,-12,1,0,0,-3,3,"[44,9,101,130,65,88,95,156,58,115]",2,-12,1,0,0,1,46,127,31,1,Turquiose,Turquiose.jpg,LightBlue,LightBlue.jpg,,
,,,,,,,,,,,,,,,,,,-3,,,,,,,,,,,,,,,,,,,,,,,,,,,,,,,001,2021-12-17_24h04.33.604,jm_natural_scene_simialrity_2-12-2021_version2,2021.2.3,Win32,60.13590715,5e67a7d13413ff01776d1ed8,61bbc5c79a1c66460f44041e,61bbc6065f3e205d59c2e42b,,,-82,40,1,0,0,response7disk,2.0164,3,-6,1,0,0,rectangle,3,-6,1,0,0,-3,-2,"[44,9,101,130,65,88,95,156,58,115]",3,-6,1,0,0,1,47,128,37,1,LightBlue,LightBlue.jpg,Pink,Pink.jpg,,
,,,,,,,,,,,,,,,,,,-3,,,,,,,,,,,,,,,,,,,,,,,,,,,,,,,001,2021-12-17_24h04.33.604,jm_natural_scene_simialrity_2-12-2021_version2,2021.2.3,Win32,60.13590715,5e67a7d13413ff01776d1ed8,61bbc5c79a1c66460f44041e,61bbc6065f3e205d59c2e42b,,,-74,30,1,0,0,response7disk,1.0498,1,-11,1,0,0,rectangle,53,-108,1,0,0,1,1,"[44,9,101,130,65,88,95,156,58,115]",-5,-5,1,0,0,1,48,129,64,1,Pink,Pink.jpg,LightGreen,LightGreen.jpg,response3disk_3,rectangle
,,,,,,,,,,,,,,,,,,1,,,,,,,,,,,,,,,,,,,,,,,,,,,,,,,001,2021-12-17_24h04.33.604,jm_natural_scene_simialrity_2-12-2021_version2,2021.2.3,Win32,60.13590715,5e67a7d13413ff01776d1ed8,61bbc5c79a1c66460f44041e,61bbc6065f3e205d59c2e42b,,,56,-103,1,0,0,response3disk,1.4331,-3,-6,1,0,0,rectangle,-3,-6,1,0,0,1,-4,"[44,9,101,130,65,88,95,156,58,115]",-3,-6,1,0,0,1,49,130,46,1,LightGreen,LightGreen.jpg,Red,Red.jpg,,
,,,,,,,,,,,,,,,,,,4,,,,,,,,,,,,,,,,,,,,,,,,,,,,,,,001,2021-12-17_24h04.33.604,jm_natural_scene_simialrity_2-12-2021_version2,2021.2.3,Win32,60.13590715,5e67a7d13413ff01776d1ed8,61bbc5c79a1c66460f44041e,61bbc6065f3e205d59c2e42b,,,34,108,1,0,0,response1disk,0.8334,2,-3,1,0,0,rectangle,2,-3,1,0,0,1,-3,"[44,9,101,130,65,88,95,156,58,115]",2,-3,1,0,0,1,50,131,30,1,Turquiose,Turquiose.jpg,Turquiose,Turquiose.jpg,,
,,,,,,,,,,,,,,,,,,4,,,,,,,,,,,,,,,,,,,,,,,,,,,,,,,001,2021-12-17_24h04.33.604,jm_natural_scene_simialrity_2-12-2021_version2,2021.2.3,Win32,60.13590715,5e67a7d13413ff01776d1ed8,61bbc5c79a1c66460f44041e,61bbc6065f3e205d59c2e42b,,,38,98,1,0,0,response1disk,0.7499,7,-12,1,0,0,rectangle,7,-12,1,0,0,1,-4,"[44,9,101,130,65,88,95,156,58,115]",7,-12,1,0,0,1,51,132,24,1,DarkGreen,DarkGreen.jpg,DarkGreen,DarkGreen.jpg,,
,,,,,,,,,,,,,,,,,,2,,,,,,,,,,,,,,,,,,,,,,,,,,,,,,,001,2021-12-17_24h04.33.604,jm_natural_scene_simialrity_2-12-2021_version2,2021.2.3,Win32,60.13590715,5e67a7d13413ff01776d1ed8,61bbc5c79a1c66460f44041e,61bbc6065f3e205d59c2e42b,,,122,-39,1,0,0,response3disk,1.1664,-2,7,1,0,0,rectangle,-2,7,1,0,0,1,2,"[44,9,101,130,65,88,95,156,58,115]",-2,7,1,0,0,1,52,133,79,1,Purple,Purple.jpg,DarkBlue,DarkBlue.jpg,,
,,,,,,,,,,,,,,,,,,2,,,,,,,,,,,,,,,,,,,,,,,,,,,,,,,001,2021-12-17_24h04.33.604,jm_natural_scene_simialrity_2-12-2021_version2,2021.2.3,Win32,60.13590715,5e67a7d13413ff01776d1ed8,61bbc5c79a1c66460f44041e,61bbc6065f3e205d59c2e42b,,,85,-48,1,0,0,response3disk,1.1663,-11,-6,1,0,0,rectangle,-11,-6,1,0,0,1,-3,"[44,9,101,130,65,88,95,156,58,115]",-11,-6,1,0,0,1,53,134,54,1,DarkGreen,DarkGreen.jpg,Yellow,Yellow.jpg,,
,,,,,,,,,,,,,,,,,,1,,,,,,,,,,,,,,,,,,,,,,,,,,,,,,,001,2021-12-17_24h04.33.604,jm_natural_scene_simialrity_2-12-2021_version2,2021.2.3,Win32,60.13590715,5e67a7d13413ff01776d1ed8,61bbc5c79a1c66460f44041e,61bbc6065f3e205d59c2e42b,,,55,-98,1,0,0,response3disk,0.9667,-3,-5,1,0,0,rectangle,-3,-5,1,0,0,1,-2,"[44,9,101,130,65,88,95,156,58,115]",-3,-5,1,0,0,1,54,135,3,1,Red,Red.jpg,DarkGreen,DarkGreen.jpg,,
,,,,,,,,,,,,,,,,,,-2,,,,,,,,,,,,,,,,,,,,,,,,,,,,,,,001,2021-12-17_24h04.33.604,jm_natural_scene_simialrity_2-12-2021_version2,2021.2.3,Win32,60.13590715,5e67a7d13413ff01776d1ed8,61bbc5c79a1c66460f44041e,61bbc6065f3e205d59c2e42b,,,-69,-46,1,0,0,response5disk,1.1332,-7,-9,1,0,0,rectangle,-7,-9,1,0,0,1,-4,"[44,9,101,130,65,88,95,156,58,115]",-7,-9,1,0,0,1,55,136,73,1,Pink,Pink.jpg,Turquiose,Turquiose.jpg,,
,,,,,,,,,,,,,,,,,,-3,,,,,,,,,,,,,,,,,,,,,,,,,,,,,,,001,2021-12-17_24h04.33.604,jm_natural_scene_simialrity_2-12-2021_version2,2021.2.3,Win32,60.13590715,5e67a7d13413ff01776d1ed8,61bbc5c79a1c66460f44041e,61bbc6065f3e205d59c2e42b,,,-75,33,1,0,0,response7disk,0.8335,0,5,1,0,0,rectangle,0,5,1,0,0,1,3,"[44,9,101,130,65,88,95,156,58,115]",0,5,1,0,0,1,56,137,29,1,DarkGreen,DarkGreen.jpg,Purple,Purple.jpg,,
,,,,,,,,,,,,,,,,,,-2,,,,,,,,,,,,,,,,,,,,,,,,,,,,,,,001,2021-12-17_24h04.33.604,jm_natural_scene_simialrity_2-12-2021_version2,2021.2.3,Win32,60.13590715,5e67a7d13413ff01776d1ed8,61bbc5c79a1c66460f44041e,61bbc6065f3e205d59c2e42b,,,-74,-34,1,0,0,response5disk,1.0169,-9,-16,1,0,0,rectangle,-9,-16,1,0,0,1,-1,"[44,9,101,130,65,88,95,156,58,115]",-9,-16,1,0,0,1,57,138,69,1,Pink,Pink.jpg,DarkGreen,DarkGreen.jpg,,
,,,,,,,,,,,,,,,,,,4,,,,,,,,,,,,,,,,,,,,,,,,,,,,,,,001,2021-12-17_24h04.33.604,jm_natural_scene_simialrity_2-12-2021_version2,2021.2.3,Win32,60.13590715,5e67a7d13413ff01776d1ed8,61bbc5c79a1c66460f44041e,61bbc6065f3e205d59c2e42b,,,27,103,1,0,0,response1disk,0.7498,2,3,1,0,0,rectangle,2,3,1,0,0,1,-4,"[44,9,101,130,65,88,95,156,58,115]",2,3,1,0,0,1,58,139,17,1,LightGreen,LightGreen.jpg,LightGreen,LightGreen.jpg,,
,,,,,,,,,,,,,,,,,,2,,,,,,,,,,,,,,,,,,,,,,,,,,,,,,,001,2021-12-17_24h04.33.604,jm_natural_scene_simialrity_2-12-2021_version2,2021.2.3,Win32,60.13590715,5e67a7d13413ff01776d1ed8,61bbc5c79a1c66460f44041e,61bbc6065f3e205d59c2e42b,,,91,-31,1,0,0,response3disk,0.9332,19,-6,1,0,0,rectangle,19,-6,1,0,0,1,-2,"[44,9,101,130,65,88,95,156,58,115]",19,-6,1,0,0,1,59,140,59,1,Purple,Purple.jpg,Yellow,Yellow.jpg,,
,,,,,,,,,,,,,,,,,,-2,,,,,,,,,,,,,,,,,,,,,,,,,,,,,,,001,2021-12-17_24h04.33.604,jm_natural_scene_simialrity_2-12-2021_version2,2021.2.3,Win32,60.13590715,5e67a7d13413ff01776d1ed8,61bbc5c79a1c66460f44041e,61bbc6065f3e205d59c2e42b,,,-92,-44,1,0,0,response5disk,0.9667,-23,-16,1,0,0,rectangle,-23,-16,1,0,0,1,-4,"[44,9,101,130,65,88,95,156,58,115]",-23,-16,1,0,0,1,60,141,65,1,Purple,Purple.jpg,LightGreen,LightGreen.jpg,,
,,,,,,,,,,,,,,,,,,-2,,,,,,,,,,,,,,,,,,,,,,,,,,,,,,,001,2021-12-17_24h04.33.604,jm_natural_scene_simialrity_2-12-2021_version2,2021.2.3,Win32,60.13590715,5e67a7d13413ff01776d1ed8,61bbc5c79a1c66460f44041e,61bbc6065f3e205d59c2e42b,,,-62,-31,1,0,0,response5disk,0.8838,-13,-2,1,0,0,rectangle,-13,-2,1,0,0,1,-1,"[44,9,101,130,65,88,95,156,58,115]",-13,-2,1,0,0,1,61,142,48,1,Turquiose,Turquiose.jpg,Red,Red.jpg,,
,,,,,,,,,,,,,,,,,,3,,,,,,,,,,,,,,,,,,,,,,,,,,,,,,,001,2021-12-17_24h04.33.604,jm_natural_scene_simialrity_2-12-2021_version2,2021.2.3,Win32,60.13590715,5e67a7d13413ff01776d1ed8,61bbc5c79a1c66460f44041e,61bbc6065f3e205d59c2e42b,,,100,46,1,0,0,response1disk,1.4665,11,9,1,0,0,rectangle,11,9,1,0,0,1,-2,"[44,9,101,130,65,88,95,156,58,115]",11,9,1,0,0,1,62,143,71,1,LightBlue,LightBlue.jpg,Turquiose,Turquiose.jpg,,
,,,,,,,,,,,,,,,,,,3,,,,,,,,,,,,,,,,,,,,,,,,,,,,,,,001,2021-12-17_24h04.33.604,jm_natural_scene_simialrity_2-12-2021_version2,2021.2.3,Win32,60.13590715,5e67a7d13413ff01776d1ed8,61bbc5c79a1c66460f44041e,61bbc6065f3e205d59c2e42b,,,97,29,1,0,0,response1disk,1.0498,10,-4,1,0,0,rectangle,10,-4,1,0,0,1,-3,"[44,9,101,130,65,88,95,156,58,115]",10,-4,1,0,0,1,63,144,72,1,DarkBlue,DarkBlue.jpg,Turquiose,Turquiose.jpg,,
,,,,,,,,,,,,,,,,,,-1,,,,,,,,,,,,,,,,,,,,,,,,,,,,,,,001,2021-12-17_24h04.33.604,jm_natural_scene_simialrity_2-12-2021_version2,2021.2.3,Win32,60.13590715,5e67a7d13413ff01776d1ed8,61bbc5c79a1c66460f44041e,61bbc6065f3e205d59c2e42b,,,-37,-96,1,0,0,response5disk,1.3832,2,4,1,0,0,rectangle,2,4,1,0,0,1,-4,"[44,9,101,130,65,88,95,156,58,115]",2,4,1,0,0,1,64,145,11,1,Yellow,Yellow.jpg,DarkGreen,DarkGreen.jpg,,
,,,,,,,,,,,,,,,,,,-4,,,,,,,,,,,,,,,,,,,,,,,,,,,,,,,001,2021-12-17_24h04.33.604,jm_natural_scene_simialrity_2-12-2021_version2,2021.2.3,Win32,60.13590715,5e67a7d13413ff01776d1ed8,61bbc5c79a1c66460f44041e,61bbc6065f3e205d59c2e42b,,,-67,91,1,0,0,response7disk,1.3168,-11,-10,1,0,0,rectangle,-11,-10,1,0,0,1,-4,"[44,9,101,130,65,88,95,156,58,115]",-11,-10,1,0,0,1,65,146,6,1,Red,Red.jpg,DarkBlue,DarkBlue.jpg,,
,,,,,,,,,,,,,,,,,,-3,,,,,,,,,,,,,,,,,,,,,,,,,,,,,,,001,2021-12-17_24h04.33.604,jm_natural_scene_simialrity_2-12-2021_version2,2021.2.3,Win32,60.13590715,5e67a7d13413ff01776d1ed8,61bbc5c79a1c66460f44041e,61bbc6065f3e205d59c2e42b,,,-94,34,1,0,0,response7disk,0.7666,-16,-10,1,0,0,rectangle,-16,-10,1,0,0,1,-3,"[44,9,101,130,65,88,95,156,58,115]",-16,-10,1,0,0,1,66,147,33,1,Turquiose,Turquiose.jpg,Pink,Pink.jpg,,
,,,,,,,,,,,,,,,,,,-3,,,,,,,,,,,,,,,,,,,,,,,,,,,,,,,001,2021-12-17_24h04.33.604,jm_natural_scene_simialrity_2-12-2021_version2,2021.2.3,Win32,60.13590715,5e67a7d13413ff01776d1ed8,61bbc5c79a1c66460f44041e,61bbc6065f3e205d59c2e42b,,,-71,22,1,0,0,response7disk,0.7168,-10,-21,1,0,0,rectangle,-10,-21,1,0,0,1,-1,"[44,9,101,130,65,88,95,156,58,115]",-10,-21,1,0,0,1,67,148,77,1,Purple,Purple.jpg,LightBlue,LightBlue.jpg,,
,,,,,,,,,,,,,,,,,,4,,,,,,,,,,,,,,,,,,,,,,,,,,,,,,,001,2021-12-17_24h04.33.604,jm_natural_scene_simialrity_2-12-2021_version2,2021.2.3,Win32,60.13590715,5e67a7d13413ff01776d1ed8,61bbc5c79a1c66460f44041e,61bbc6065f3e205d59c2e42b,,,39,130,1,0,0,response1disk,0.8999,-3,-22,1,0,0,rectangle,-3,-22,1,0,0,1,1,"[44,9,101,130,65,88,95,156,58,115]",-3,-22,1,0,0,1,68,149,0,1,Red,Red.jpg,Red,Red.jpg,,
,,,,,,,,,,,,,,,,,,-4,,,,,,,,,,,,,,,,,,,,,,,,,,,,,,,001,2021-12-17_24h04.33.604,jm_natural_scene_simialrity_2-12-2021_version2,2021.2.3,Win32,60.13590715,5e67a7d13413ff01776d1ed8,61bbc5c79a1c66460f44041e,61bbc6065f3e205d59c2e42b,,,-64,101,1,0,0,response7disk,1.2499,-1,2,1,0,0,rectangle,-1,2,1,0,0,1,-4,"[44,9,101,130,65,88,95,156,58,115]",-1,2,1,0,0,1,69,150,50,1,DarkBlue,DarkBlue.jpg,Red,Red.jpg,,
,,,,,,,,,,,,,,,,,,3,,,,,,,,,,,,,,,,,,,,,,,,,,,,,,,001,2021-12-17_24h04.33.604,jm_natural_scene_simialrity_2-12-2021_version2,2021.2.3,Win32,60.13590715,5e67a7d13413ff01776d1ed8,61bbc5c79a1c66460f44041e,61bbc6065f3e205d59c2e42b,,,93,36,1,0,0,response1disk,1.3171,5,0,1,0,0,rectangle,5,0,1,0,0,1,2,"[44,9,101,130,65,88,95,156,58,115]",5,0,1,0,0,1,70,151,52,1,Purple,Purple.jpg,Red,Red.jpg,,
,,,,,,,,,,,,,,,,,,-4,,,,,,,,,,,,,,,,,,,,,,,,,,,,,,,001,2021-12-17_24h04.33.604,jm_natural_scene_simialrity_2-12-2021_version2,2021.2.3,Win32,60.13590715,5e67a7d13413ff01776d1ed8,61bbc5c79a1c66460f44041e,61bbc6065f3e205d59c2e42b,,,-36,104,1,0,0,response7disk,1.1833,13,4,1,0,0,rectangle,13,4,1,0,0,1,2,"[44,9,101,130,65,88,95,156,58,115]",13,4,1,0,0,1,71,152,40,1,DarkBlue,DarkBlue.jpg,Pink,Pink.jpg,,
,,,,,,,,,,,,,,,,,,-3,,,,,,,,,,,,,,,,,,,,,,,,,,,,,,,001,2021-12-17_24h04.33.604,jm_natural_scene_simialrity_2-12-2021_version2,2021.2.3,Win32,60.13590715,5e67a7d13413ff01776d1ed8,61bbc5c79a1c66460f44041e,61bbc6065f3e205d59c2e42b,,,-85,50,1,0,0,response7disk,1.3996,-21,14,1,0,0,rectangle,-21,14,1,0,0,1,-3,"[44,9,101,130,65,88,95,156,58,115]",-21,14,1,0,0,1,72,153,61,1,Turquiose,Turquiose.jpg,LightGreen,LightGreen.jpg,,
,,,,,,,,,,,,,,,,,,-3,,,,,,,,,,,,,,,,,,,,,,,,,,,,,,,001,2021-12-17_24h04.33.604,jm_natural_scene_simialrity_2-12-2021_version2,2021.2.3,Win32,60.13590715,5e67a7d13413ff01776d1ed8,61bbc5c79a1c66460f44041e,61bbc6065f3e205d59c2e42b,,,-66,27,1,0,0,response7disk,0.6833,0,-19,1,0,0,rectangle,0,-19,1,0,0,1,-4,"[44,9,101,130,65,88,95,156,58,115]",0,-19,1,0,0,1,73,154,62,1,LightBlue,LightBlue.jpg,LightGreen,LightGreen.jpg,,
,,,,,,,,,,,,,,,,,,-3,,,,,,,,,,,,,,,,,,,,,,,,,,,,,,,001,2021-12-17_24h04.33.604,jm_natural_scene_simialrity_2-12-2021_version2,2021.2.3,Win32,60.13590715,5e67a7d13413ff01776d1ed8,61bbc5c79a1c66460f44041e,61bbc6065f3e205d59c2e42b,,,-116,25,1,0,0,response7disk,0.8166,7,-1,1,0,0,rectangle,91,-34,1,0,0,2,2,"[44,9,101,130,65,88,95,156,58,115]",14,-8,1,0,0,1,74,155,63,1,DarkBlue,DarkBlue.jpg,LightGreen,LightGreen.jpg,response3disk_3,rectangle
,,,,,,,,,,,,,,,,,,2,,,,,,,,,,,,,,,,,,,,,,,,,,,,,,,001,2021-12-17_24h04.33.604,jm_natural_scene_simialrity_2-12-2021_version2,2021.2.3,Win32,60.13590715,5e67a7d13413ff01776d1ed8,61bbc5c79a1c66460f44041e,61bbc6065f3e205d59c2e42b,,,65,-43,1,0,0,response3disk,5.2518,1,-8,1,0,0,rectangle,1,-8,1,0,0,2,2,"[44,9,101,130,65,88,95,156,58,115]",1,-8,1,0,0,1,75,156,8,1,Red,Red.jpg,Purple,Purple.jpg,,
,,,,,,,,,,,,,,,,,,-1,,,,,,,,,,,,,,,,,,,,,,,,,,,,,,,001,2021-12-17_24h04.33.604,jm_natural_scene_simialrity_2-12-2021_version2,2021.2.3,Win32,60.13590715,5e67a7d13413ff01776d1ed8,61bbc5c79a1c66460f44041e,61bbc6065f3e205d59c2e42b,,,-32,-89,1,0,0,response5disk,1.0498,-7,-11,1,0,0,rectangle,-7,-11,1,0,0,2,1,"[44,9,101,130,65,88,95,156,58,115]",-7,-11,1,0,0,1,76,157,23,1,LightGreen,LightGreen.jpg,Purple,Purple.jpg,,
,,,,,,,,,,,,,,,,,,3,,,,,,,,,,,,,,,,,,,,,,,,,,,,,,,001,2021-12-17_24h04.33.604,jm_natural_scene_simialrity_2-12-2021_version2,2021.2.3,Win32,60.13590715,5e67a7d13413ff01776d1ed8,61bbc5c79a1c66460f44041e,61bbc6065f3e205d59c2e42b,,,84,34,1,0,0,response1disk,1.2166,-7,16,1,0,0,rectangle,-7,16,1,0,0,2,-4,"[44,9,101,130,65,88,95,156,58,115]",-7,16,1,0,0,1,77,158,75,1,DarkBlue,DarkBlue.jpg,LightBlue,LightBlue.jpg,,
,,,,,,,,,,,,,,,,,,4,,,,,,,,,,,,,,,,,,,,,,,,,,,,,,,001,2021-12-17_24h04.33.604,jm_natural_scene_simialrity_2-12-2021_version2,2021.2.3,Win32,60.13590715,5e67a7d13413ff01776d1ed8,61bbc5c79a1c66460f44041e,61bbc6065f3e205d59c2e42b,,,37,111,1,0,0,response1disk,0.75,14,15,1,0,0,rectangle,14,15,1,0,0,2,-1,"[44,9,101,130,65,88,95,156,58,115]",14,15,1,0,0,1,78,159,60,1,DarkGreen,DarkGreen.jpg,LightGreen,LightGreen.jpg,,
,,,,,,,,,,,,,,,,,,4,,,,,,,,,,,,,,,,,,,,,,,,,,,,,,,001,2021-12-17_24h04.33.604,jm_natural_scene_simialrity_2-12-2021_version2,2021.2.3,Win32,60.13590715,5e67a7d13413ff01776d1ed8,61bbc5c79a1c66460f44041e,61bbc6065f3e205d59c2e42b,,,42,106,1,0,0,response1disk,0.6167,8,2,1,0,0,rectangle,8,2,1,0,0,2,1,"[44,9,101,130,65,88,95,156,58,115]",8,2,1,0,0,1,79,160,7,1,Red,Red.jpg,Pink,Pink.jpg,,
,,,,,,,,,,,,,,,,,,3,,,,,,,,,,,,,,,,,,,,,,,,,,,,,,,001,2021-12-17_24h04.33.604,jm_natural_scene_simialrity_2-12-2021_version2,2021.2.3,Win32,60.13590715,5e67a7d13413ff01776d1ed8,61bbc5c79a1c66460f44041e,61bbc6065f3e205d59c2e42b,,,106,48,1,0,0,response1disk,1.1,17,-4,1,0,0,rectangle,17,-4,1,0,0,2,1,"[44,9,101,130,65,88,95,156,58,115]",17,-4,1,0,0,1,80,161,16,1,Yellow,Yellow.jpg,Purple,Purple.jpg,,
