key_resp.keys,key_resp.rt,key_resp_16.keys,key_resp_16.rt,key_resp_2.keys,key_resp_2.rt,key_resp_3.keys,key_resp_3.rt,key_resp_19.keys,key_resp_19.rt,key_resp_10.keys,key_resp_10.rt,mouse_prac.x,mouse_prac.y,mouse_prac.leftButton,mouse_prac.midButton,mouse_prac.rightButton,mouse_prac.clicked_name,similarity,mouse_10.x,mouse_10.y,mouse_10.leftButton,mouse_10.midButton,mouse_10.rightButton,mouse_10.clicked_name,mouse_catch_prac.x,mouse_catch_prac.y,mouse_catch_prac.leftButton,mouse_catch_prac.midButton,mouse_catch_prac.rightButton,catchnumberprac,mouse_6.x,mouse_6.y,mouse_6.leftButton,mouse_6.midButton,mouse_6.rightButton,during_prac.thisRepN,during_prac.thisTrialN,during_prac.thisN,during_prac.thisIndex,during_prac.ran,trailimage1,trial1adress,trailimage2,trial2adress,participant,session,date,expName,psychopyVersion,OS,frameRate,PROLIFIC_PID,STUDY_ID,SESSION_ID,mouse_catch_prac.clicked_name,catchprac,mouse_6.clicked_name,key_resp_22.keys,key_resp_22.rt,mouse.x,mouse.y,mouse.leftButton,mouse.midButton,mouse.rightButton,mouse.clicked_name,response_time,mouse_2.x,mouse_2.y,mouse_2.leftButton,mouse_2.midButton,mouse_2.rightButton,mouse_2.clicked_name,mouse_3.x,mouse_3.y,mouse_3.leftButton,mouse_3.midButton,mouse_3.rightButton,catchresponse,catchnumber,catchtrialorder,mouse_11.x,mouse_11.y,mouse_11.leftButton,mouse_11.midButton,mouse_11.rightButton,trials_2.thisRepN,trials_2.thisTrialN,trials_2.thisN,trials_2.thisIndex,trials_2.ran,image1,image1adress,image2,image2adress,mouse_3.clicked_name,mouse_11.clicked_name
space,2.0213,space,9.3644,space,1.6258,space,7.6674,space,12.89,space,3.3735,133.6000134,41.59999524,1,0,0,response1disk_5,3,-4.799988627,-3.200005427,1,0,0,rectangle_8,-4.799988627,-3.200005427,1,0,0,1,-4.799988627,-3.200005427,1,0,0,0,0,0,2,1,trail1,trail1.jpg,trail3,trail3.jpg,,001,2021-12-16_23h09.17.040,jm_natural_scene_simialrity_2-12-2021_version2,2021.2.3,Win32,60.2373351,5e90a8363f920e3bda6b5068,61bbc5c79a1c66460f44041e,61bbc706e1fab6766dcc0e4d,,,,,,,,,,,,,,,,,,,,,,,,,,,,,,,,,,,,,,,,,,
,,,,,,,,,,,,47.20001215,80.79999582,1,0,0,response1disk_5,4,-6.399939823,-4.800005451,1,0,0,rectangle_8,33.60006077,-98.40005567,1,0,0,1,-11.99998873,-4.000029853,1,0,0,0,1,1,0,1,trail1,trail1.jpg,trail1,trail1.jpg,,001,2021-12-16_23h09.17.040,jm_natural_scene_simialrity_2-12-2021_version2,2021.2.3,Win32,60.2373351,5e90a8363f920e3bda6b5068,61bbc5c79a1c66460f44041e,61bbc706e1fab6766dcc0e4d,response3disk_7,1,rectangle_4,,,,,,,,,,,,,,,,,,,,,,,,,,,,,,,,,,,,,,,
,,,,,,,,,,,,-42.39994036,-77.60000654,1,0,0,response5disk_5,-1,12.80001163,9.599994764,1,0,0,rectangle_8,12.80001163,9.599994764,1,0,0,1,12.80001163,9.599994764,1,0,0,0,2,2,1,1,trail1,trail1.jpg,trail2,trail2.jpg,,001,2021-12-16_23h09.17.040,jm_natural_scene_simialrity_2-12-2021_version2,2021.2.3,Win32,60.2373351,5e90a8363f920e3bda6b5068,61bbc5c79a1c66460f44041e,61bbc706e1fab6766dcc0e4d,,,,,,,,,,,,,,,,,,,,,,,,,,,,,,,,,,,,,,,,,,
,,,,,,,,,,,,-65.59998953,-41.60003041,1,0,0,response5disk_5,-2,5.600060356,-11.20000555,1,0,0,rectangle_8,5.600060356,-11.20000555,1,0,0,1,5.600060356,-11.20000555,1,0,0,0,3,3,4,1,trail2,trail2.jpg,trail3,trail3.jpg,,001,2021-12-16_23h09.17.040,jm_natural_scene_simialrity_2-12-2021_version2,2021.2.3,Win32,60.2373351,5e90a8363f920e3bda6b5068,61bbc5c79a1c66460f44041e,61bbc706e1fab6766dcc0e4d,,,,,,,,,,,,,,,,,,,,,,,,,,,,,,,,,,,,,,,,,,
,,,,,,,,,,,,60.80001235,122.399972,1,0,0,response1disk_5,4,-1.59998858,-16.00003003,1,0,0,rectangle_8,-1.59998858,-16.00003003,1,0,0,1,-1.59998858,-16.00003003,1,0,0,0,4,4,3,1,trail2,trail2.jpg,trail2,trail2.jpg,,001,2021-12-16_23h09.17.040,jm_natural_scene_simialrity_2-12-2021_version2,2021.2.3,Win32,60.2373351,5e90a8363f920e3bda6b5068,61bbc5c79a1c66460f44041e,61bbc706e1fab6766dcc0e4d,,,,,,,,,,,,,,,,,,,,,,,,,,,,,,,,,,,,,,,,,,
,,,,,,,,,,,,64.80001241,131.9999966,1,0,0,response1disk_5,4,0.800011456,-1.600029817,1,0,0,rectangle_8,0.800011456,-1.600029817,1,0,0,1,0.800011456,-1.600029817,1,0,0,0,5,5,5,1,trail3,trail3.jpg,trail3,trail3.jpg,,001,2021-12-16_23h09.17.040,jm_natural_scene_simialrity_2-12-2021_version2,2021.2.3,Win32,60.2373351,5e90a8363f920e3bda6b5068,61bbc5c79a1c66460f44041e,61bbc706e1fab6766dcc0e4d,,,,,,,,,,,,,,,,,,,,,,,,,,,,,,,,,,,,,,,,,,
,,,,,,,,,,,,,,,,,,-4,,,,,,,,,,,,,,,,,,,,,,,,,,,,001,2021-12-16_23h09.17.040,jm_natural_scene_simialrity_2-12-2021_version2,2021.2.3,Win32,60.2373351,5e90a8363f920e3bda6b5068,61bbc5c79a1c66460f44041e,61bbc706e1fab6766dcc0e4d,,,,space,2.1364,-26.39994012,86.39997149,1,0,0,response7disk,1.7669,7.200011551,-8.80000551,1,0,0,rectangle,7.200011551,-8.80000551,1,0,0,,-4,"[126,43,36,32,25,23,32,2,115,111]",7.200011551,-8.80000551,1,0,0,0,0,0,61,1,Turquiose,Turquiose.jpg,LightGreen,LightGreen.jpg,,
,,,,,,,,,,,,,,,,,,-4,,,,,,,,,,,,,,,,,,,,,,,,,,,,001,2021-12-16_23h09.17.040,jm_natural_scene_simialrity_2-12-2021_version2,2021.2.3,Win32,60.2373351,5e90a8363f920e3bda6b5068,61bbc5c79a1c66460f44041e,61bbc706e1fab6766dcc0e4d,,,,,,-55.99998939,103.9999718,1,0,0,response7disk,1.0997,-1.59998858,-8.80000551,1,0,0,rectangle,101.600013,-52.00000615,1,0,0,2,2,"[126,43,36,32,25,23,32,2,115,111]",5.600060356,11.99997039,1,0,0,0,1,1,54,1,DarkGreen,DarkGreen.jpg,Yellow,Yellow.jpg,response3disk_3,rectangle
,,,,,,,,,,,,,,,,,,-4,,,,,,,,,,,,,,,,,,,,,,,,,,,,001,2021-12-16_23h09.17.040,jm_natural_scene_simialrity_2-12-2021_version2,2021.2.3,Win32,60.2373351,5e90a8363f920e3bda6b5068,61bbc5c79a1c66460f44041e,61bbc706e1fab6766dcc0e4d,,,,,,-45.59998924,83.99997146,1,0,0,response7disk,1.0668,1.600060296,-8.80000551,1,0,0,rectangle,1.600060296,-8.80000551,1,0,0,2,-3,"[126,43,36,32,25,23,32,2,115,111]",1.600060296,-8.80000551,1,0,0,0,2,2,16,1,Yellow,Yellow.jpg,Purple,Purple.jpg,,
,,,,,,,,,,,,,,,,,,1,,,,,,,,,,,,,,,,,,,,,,,,,,,,001,2021-12-16_23h09.17.040,jm_natural_scene_simialrity_2-12-2021_version2,2021.2.3,Win32,60.2373351,5e90a8363f920e3bda6b5068,61bbc5c79a1c66460f44041e,61bbc706e1fab6766dcc0e4d,,,,,,50.4000122,-70.40005526,1,0,0,response3disk,1.8167,-8.799988687,18.39997048,1,0,0,rectangle,-8.799988687,18.39997048,1,0,0,2,-2,"[126,43,36,32,25,23,32,2,115,111]",-8.799988687,18.39997048,1,0,0,0,3,3,77,1,Purple,Purple.jpg,LightBlue,LightBlue.jpg,,
,,,,,,,,,,,,,,,,,,-3,,,,,,,,,,,,,,,,,,,,,,,,,,,,001,2021-12-16_23h09.17.040,jm_natural_scene_simialrity_2-12-2021_version2,2021.2.3,Win32,60.2373351,5e90a8363f920e3bda6b5068,61bbc5c79a1c66460f44041e,61bbc706e1fab6766dcc0e4d,,,,,,-49.5999893,33.59999512,1,0,0,response7disk,1.7999,-2.399939764,-2.400005415,1,0,0,rectangle,-2.399939764,-2.400005415,1,0,0,2,-3,"[126,43,36,32,25,23,32,2,115,111]",-2.399939764,-2.400005415,1,0,0,0,4,4,26,1,DarkGreen,DarkGreen.jpg,LightBlue,LightBlue.jpg,,
,,,,,,,,,,,,,,,,,,-4,,,,,,,,,,,,,,,,,,,,,,,,,,,,001,2021-12-16_23h09.17.040,jm_natural_scene_simialrity_2-12-2021_version2,2021.2.3,Win32,60.2373351,5e90a8363f920e3bda6b5068,61bbc5c79a1c66460f44041e,61bbc706e1fab6766dcc0e4d,,,,,,-28.79998899,71.99997128,1,0,0,response7disk,1.1499,7.200011551,-13.60003,1,0,0,rectangle,7.200011551,-13.60003,1,0,0,2,-2,"[126,43,36,32,25,23,32,2,115,111]",7.200011551,-13.60003,1,0,0,0,5,5,69,1,Pink,Pink.jpg,DarkGreen,DarkGreen.jpg,,
,,,,,,,,,,,,,,,,,,-4,,,,,,,,,,,,,,,,,,,,,,,,,,,,001,2021-12-16_23h09.17.040,jm_natural_scene_simialrity_2-12-2021_version2,2021.2.3,Win32,60.2373351,5e90a8363f920e3bda6b5068,61bbc5c79a1c66460f44041e,61bbc706e1fab6766dcc0e4d,,,,,,-55.99998939,107.9999962,1,0,0,response7disk,1.1835,-2.399939764,10.39997036,1,0,0,rectangle,-2.399939764,10.39997036,1,0,0,2,-3,"[126,43,36,32,25,23,32,2,115,111]",-2.399939764,10.39997036,1,0,0,0,6,6,5,1,Red,Red.jpg,LightBlue,LightBlue.jpg,,
,,,,,,,,,,,,,,,,,,-3,,,,,,,,,,,,,,,,,,,,,,,,,,,,001,2021-12-16_23h09.17.040,jm_natural_scene_simialrity_2-12-2021_version2,2021.2.3,Win32,60.2373351,5e90a8363f920e3bda6b5068,61bbc5c79a1c66460f44041e,61bbc706e1fab6766dcc0e4d,,,,,,-88.79998988,73.59999572,1,0,0,response7disk,1.6501,22.40001178,-3.200005427,1,0,0,rectangle,22.40001178,-3.200005427,1,0,0,2,2,"[126,43,36,32,25,23,32,2,115,111]",22.40001178,-3.200005427,1,0,0,0,7,7,43,1,Pink,Pink.jpg,Purple,Purple.jpg,,
,,,,,,,,,,,,,,,,,,4,,,,,,,,,,,,,,,,,,,,,,,,,,,,001,2021-12-16_23h09.17.040,jm_natural_scene_simialrity_2-12-2021_version2,2021.2.3,Win32,60.2373351,5e90a8363f920e3bda6b5068,61bbc5c79a1c66460f44041e,61bbc706e1fab6766dcc0e4d,,,,,,31.20001191,43.19999526,1,0,0,response1disk,1.0832,0.800011456,1.599994645,1,0,0,rectangle,0.800011456,1.599994645,1,0,0,2,-3,"[126,43,36,32,25,23,32,2,115,111]",0.800011456,1.599994645,1,0,0,0,8,8,0,1,Red,Red.jpg,Red,Red.jpg,,
,,,,,,,,,,,,,,,,,,-4,,,,,,,,,,,,,,,,,,,,,,,,,,,,001,2021-12-16_23h09.17.040,jm_natural_scene_simialrity_2-12-2021_version2,2021.2.3,Win32,60.2373351,5e90a8363f920e3bda6b5068,61bbc5c79a1c66460f44041e,61bbc706e1fab6766dcc0e4d,,,,,,-31.19998902,63.99997116,1,0,0,response7disk,1.5502,5.600060356,4.799994692,1,0,0,rectangle,5.600060356,4.799994692,1,0,0,2,2,"[126,43,36,32,25,23,32,2,115,111]",5.600060356,4.799994692,1,0,0,0,9,9,28,1,DarkGreen,DarkGreen.jpg,Pink,Pink.jpg,,
,,,,,,,,,,,,,,,,,,2,,,,,,,,,,,,,,,,,,,,,,,,,,,,001,2021-12-16_23h09.17.040,jm_natural_scene_simialrity_2-12-2021_version2,2021.2.3,Win32,60.2373351,5e90a8363f920e3bda6b5068,61bbc5c79a1c66460f44041e,61bbc706e1fab6766dcc0e4d,,,,,,101.600013,-56.00000621,1,0,0,response3disk,2.2169,4.000011504,10.39997036,1,0,0,rectangle,4.000011504,10.39997036,1,0,0,2,1,"[126,43,36,32,25,23,32,2,115,111]",4.000011504,10.39997036,1,0,0,0,10,10,32,1,Turquiose,Turquiose.jpg,DarkBlue,DarkBlue.jpg,,
,,,,,,,,,,,,,,,,,,-3,,,,,,,,,,,,,,,,,,,,,,,,,,,,001,2021-12-16_23h09.17.040,jm_natural_scene_simialrity_2-12-2021_version2,2021.2.3,Win32,60.2373351,5e90a8363f920e3bda6b5068,61bbc5c79a1c66460f44041e,61bbc706e1fab6766dcc0e4d,,,,,,-49.79999304,23.19997063,1,0,0,response7disk,26.9681,-4.999992371,5.599994779,1,0,0,rectangle,-4.999992371,5.599994779,1,0,0,2,3,"[126,43,36,32,25,23,32,2,115,111]",-4.999992371,5.599994779,1,0,0,0,11,11,33,1,Turquiose,Turquiose.jpg,Pink,Pink.jpg,,
,,,,,,,,,,,,,,,,,,1,,,,,,,,,,,,,,,,,,,,,,,,,,,,001,2021-12-16_23h09.17.040,jm_natural_scene_simialrity_2-12-2021_version2,2021.2.3,Win32,60.2373351,5e90a8363f920e3bda6b5068,61bbc5c79a1c66460f44041e,61bbc706e1fab6766dcc0e4d,,,,,,69.40000874,-89.60005547,1,0,0,response3disk,2.4002,15.80000794,-8.000005424,1,0,0,rectangle,15.80000794,-8.000005424,1,0,0,2,-1,"[126,43,36,32,25,23,32,2,115,111]",15.80000794,-8.000005424,1,0,0,0,12,12,52,1,Purple,Purple.jpg,Red,Red.jpg,,
,,,,,,,,,,,,,,,,,,-2,,,,,,,,,,,,,,,,,,,,,,,,,,,,001,2021-12-16_23h09.17.040,jm_natural_scene_simialrity_2-12-2021_version2,2021.2.3,Win32,60.2373351,5e90a8363f920e3bda6b5068,61bbc5c79a1c66460f44041e,61bbc706e1fab6766dcc0e4d,,,,,,-55.39999312,-30.40000576,1,0,0,response5disk,3.1163,-16.99999255,-13.60000551,1,0,0,rectangle,-16.99999255,-13.60000551,1,0,0,2,2,"[126,43,36,32,25,23,32,2,115,111]",-16.99999255,-13.60000551,1,0,0,0,13,13,76,1,Pink,Pink.jpg,LightBlue,LightBlue.jpg,,
,,,,,,,,,,,,,,,,,,1,,,,,,,,,,,,,,,,,,,,,,,,,,,,001,2021-12-16_23h09.17.040,jm_natural_scene_simialrity_2-12-2021_version2,2021.2.3,Win32,60.2373351,5e90a8363f920e3bda6b5068,61bbc5c79a1c66460f44041e,61bbc706e1fab6766dcc0e4d,,,,,,39.00000829,-81.60005535,1,0,0,response3disk,2.0336,-5.799992383,3.199970329,1,0,0,rectangle,-5.799992383,3.199970329,1,0,0,2,3,"[126,43,36,32,25,23,32,2,115,111]",-5.799992383,3.199970329,1,0,0,0,14,14,71,1,LightBlue,LightBlue.jpg,Turquiose,Turquiose.jpg,,
,,,,,,,,,,,,,,,,,,-2,,,,,,,,,,,,,,,,,,,,,,,,,,,,001,2021-12-16_23h09.17.040,jm_natural_scene_simialrity_2-12-2021_version2,2021.2.3,Win32,60.2373351,5e90a8363f920e3bda6b5068,61bbc5c79a1c66460f44041e,61bbc706e1fab6766dcc0e4d,,,,,,-132.9999943,-32.00000578,1,0,0,response5disk,1.7169,-18.59999257,-8.000005424,1,0,0,rectangle,-18.59999257,-8.000005424,1,0,0,2,1,"[126,43,36,32,25,23,32,2,115,111]",-18.59999257,-8.000005424,1,0,0,0,15,15,59,1,Purple,Purple.jpg,Yellow,Yellow.jpg,,
,,,,,,,,,,,,,,,,,,4,,,,,,,,,,,,,,,,,,,,,,,,,,,,001,2021-12-16_23h09.17.040,jm_natural_scene_simialrity_2-12-2021_version2,2021.2.3,Win32,60.2373351,5e90a8363f920e3bda6b5068,61bbc5c79a1c66460f44041e,61bbc706e1fab6766dcc0e4d,,,,,,48.60005726,99.19997176,1,0,0,response1disk,1.2333,-8.199992418,6.399994791,1,0,0,rectangle,-8.199992418,6.399994791,1,0,0,2,3,"[126,43,36,32,25,23,32,2,115,111]",-8.199992418,6.399994791,1,0,0,0,16,16,24,1,DarkGreen,DarkGreen.jpg,DarkGreen,DarkGreen.jpg,,
,,,,,,,,,,,,,,,,,,2,,,,,,,,,,,,,,,,,,,,,,,,,,,,001,2021-12-16_23h09.17.040,jm_natural_scene_simialrity_2-12-2021_version2,2021.2.3,Win32,60.2373351,5e90a8363f920e3bda6b5068,61bbc5c79a1c66460f44041e,61bbc706e1fab6766dcc0e4d,,,,,,64.60005749,-48.00000602,1,0,0,response3disk,13.0506,9.400007844,-8.000005424,1,0,0,rectangle,9.400007844,-8.000005424,1,0,0,2,-4,"[126,43,36,32,25,23,32,2,115,111]",9.400007844,-8.000005424,1,0,0,0,17,17,38,1,LightBlue,LightBlue.jpg,Purple,Purple.jpg,,
,,,,,,,,,,,,,,,,,,-3,,,,,,,,,,,,,,,,,,,,,,,,,,,,001,2021-12-16_23h09.17.040,jm_natural_scene_simialrity_2-12-2021_version2,2021.2.3,Win32,60.2373351,5e90a8363f920e3bda6b5068,61bbc5c79a1c66460f44041e,61bbc706e1fab6766dcc0e4d,,,,,,-84.99999356,39.19997087,1,0,0,response7disk,1.6826,11.80000788,3.999994755,1,0,0,rectangle,11.80000788,3.999994755,1,0,0,2,-1,"[126,43,36,32,25,23,32,2,115,111]",11.80000788,3.999994755,1,0,0,0,18,18,55,1,Turquiose,Turquiose.jpg,Yellow,Yellow.jpg,,
,,,,,,,,,,,,,,,,,,-4,,,,,,,,,,,,,,,,,,,,,,,,,,,,001,2021-12-16_23h09.17.040,jm_natural_scene_simialrity_2-12-2021_version2,2021.2.3,Win32,60.2373351,5e90a8363f920e3bda6b5068,61bbc5c79a1c66460f44041e,61bbc706e1fab6766dcc0e4d,,,,,,-38.59999287,76.79999584,1,0,0,response7disk,1.9506,-7.399992406,14.39999491,1,0,0,rectangle,-7.399992406,14.39999491,1,0,0,2,-2,"[126,43,36,32,25,23,32,2,115,111]",-7.399992406,14.39999491,1,0,0,0,19,19,64,1,Pink,Pink.jpg,LightGreen,LightGreen.jpg,,
,,,,,,,,,,,,,,,,,,-2,,,,,,,,,,,,,,,,,,,,,,,,,,,,001,2021-12-16_23h09.17.040,jm_natural_scene_simialrity_2-12-2021_version2,2021.2.3,Win32,60.2373351,5e90a8363f920e3bda6b5068,61bbc5c79a1c66460f44041e,61bbc706e1fab6766dcc0e4d,,,,,,-69.79999334,-52.80003051,1,0,0,response5disk,2.2998,6.200007796,3.199970329,1,0,0,rectangle,6.200007796,3.199970329,1,0,0,2,3,"[126,43,36,32,25,23,32,2,115,111]",6.200007796,3.199970329,1,0,0,0,20,20,8,1,Red,Red.jpg,Purple,Purple.jpg,,
,,,,,,,,,,,,,,,,,,1,,,,,,,,,,,,,,,,,,,,,,,,,,,,001,2021-12-16_23h09.17.040,jm_natural_scene_simialrity_2-12-2021_version2,2021.2.3,Win32,60.2373351,5e90a8363f920e3bda6b5068,61bbc5c79a1c66460f44041e,61bbc706e1fab6766dcc0e4d,,,,,,51.80000848,-93.60005553,1,0,0,response3disk,1.9493,-9.799992442,-5.30481E-06,1,0,0,rectangle,-9.799992442,-5.30481E-06,1,0,0,2,-1,"[126,43,36,32,25,23,32,2,115,111]",-9.799992442,-5.30481E-06,1,0,0,0,21,21,36,1,LightBlue,LightBlue.jpg,DarkBlue,DarkBlue.jpg,,
,,,,,,,,,,,,,,,,,,2,,,,,,,,,,,,,,,,,,,,,,,,,,,,001,2021-12-16_23h09.17.040,jm_natural_scene_simialrity_2-12-2021_version2,2021.2.3,Win32,60.2373351,5e90a8363f920e3bda6b5068,61bbc5c79a1c66460f44041e,61bbc706e1fab6766dcc0e4d,,,,,,52.60005732,-24.00000566,1,0,0,response3disk,1.5165,3.800007761,3.199970329,1,0,0,rectangle,85.40000898,-32.00000578,1,0,0,2,2,"[126,43,36,32,25,23,32,2,115,111]",-8.199992418,3.199970329,1,0,0,0,22,22,60,1,DarkGreen,DarkGreen.jpg,LightGreen,LightGreen.jpg,response3disk_3,rectangle
,,,,,,,,,,,,,,,,,,-2,,,,,,,,,,,,,,,,,,,,,,,,,,,,001,2021-12-16_23h09.17.040,jm_natural_scene_simialrity_2-12-2021_version2,2021.2.3,Win32,60.2373351,5e90a8363f920e3bda6b5068,61bbc5c79a1c66460f44041e,61bbc706e1fab6766dcc0e4d,,,,,,-74.59999341,-51.20000607,1,0,0,response5disk,2.2506,0.600056541,0.799994707,1,0,0,rectangle,0.600056541,0.799994707,1,0,0,2,3,"[126,43,36,32,25,23,32,2,115,111]",0.600056541,0.799994707,1,0,0,0,23,23,29,1,DarkGreen,DarkGreen.jpg,Purple,Purple.jpg,,
,,,,,,,,,,,,,,,,,,-1,,,,,,,,,,,,,,,,,,,,,,,,,,,,001,2021-12-16_23h09.17.040,jm_natural_scene_simialrity_2-12-2021_version2,2021.2.3,Win32,60.2373351,5e90a8363f920e3bda6b5068,61bbc5c79a1c66460f44041e,61bbc706e1fab6766dcc0e4d,,,,,,-45.79999298,-115.200007,1,0,0,response5disk,4.0001,11.00000787,3.199970329,1,0,0,rectangle,72.60005761,-16.80002997,1,0,0,2,-2,"[126,43,36,32,25,23,32,2,115,111]",-21.79999262,-3.200005352,1,0,0,0,24,24,15,1,Yellow,Yellow.jpg,Pink,Pink.jpg,response3disk_3,rectangle
,,,,,,,,,,,,,,,,,,-1,,,,,,,,,,,,,,,,,,,,,,,,,,,,001,2021-12-16_23h09.17.040,jm_natural_scene_simialrity_2-12-2021_version2,2021.2.3,Win32,60.2373351,5e90a8363f920e3bda6b5068,61bbc5c79a1c66460f44041e,61bbc706e1fab6766dcc0e4d,,,,,,-71.39999336,-106.4000069,1,0,0,response5disk,3.1664,5.400007784,5.599994779,1,0,0,rectangle,5.400007784,5.599994779,1,0,0,2,-1,"[126,43,36,32,25,23,32,2,115,111]",5.400007784,5.599994779,1,0,0,0,25,25,74,1,Purple,Purple.jpg,Turquiose,Turquiose.jpg,,
,,,,,,,,,,,,,,,,,,4,,,,,,,,,,,,,,,,,,,,,,,,,,,,001,2021-12-16_23h09.17.040,jm_natural_scene_simialrity_2-12-2021_version2,2021.2.3,Win32,60.2373351,5e90a8363f920e3bda6b5068,61bbc5c79a1c66460f44041e,61bbc706e1fab6766dcc0e4d,,,,,,57.40000856,81.59999591,1,0,0,response1disk,1.3165,-4.999992371,-13.60000551,1,0,0,rectangle,-4.999992371,-13.60000551,1,0,0,2,-4,"[126,43,36,32,25,23,32,2,115,111]",-4.999992371,-13.60000551,1,0,0,0,26,26,44,1,Purple,Purple.jpg,Purple,Purple.jpg,,
,,,,,,,,,,,,,,,,,,-2,,,,,,,,,,,,,,,,,,,,,,,,,,,,001,2021-12-16_23h09.17.040,jm_natural_scene_simialrity_2-12-2021_version2,2021.2.3,Win32,60.2373351,5e90a8363f920e3bda6b5068,61bbc5c79a1c66460f44041e,61bbc706e1fab6766dcc0e4d,,,,,,-65.79999328,-50.40003047,1,0,0,response5disk,4.0997,-14.59999251,6.399994791,1,0,0,rectangle,-14.59999251,6.399994791,1,0,0,2,3,"[126,43,36,32,25,23,32,2,115,111]",-14.59999251,6.399994791,1,0,0,0,27,27,37,1,LightBlue,LightBlue.jpg,Pink,Pink.jpg,,
,,,,,,,,,,,,,,,,,,-1,,,,,,,,,,,,,,,,,,,,,,,,,,,,001,2021-12-16_23h09.17.040,jm_natural_scene_simialrity_2-12-2021_version2,2021.2.3,Win32,60.2373351,5e90a8363f920e3bda6b5068,61bbc5c79a1c66460f44041e,61bbc706e1fab6766dcc0e4d,,,,,,-30.59999275,-90.40000665,1,0,0,response5disk,3.3002,3.800007761,-12.00000548,1,0,0,rectangle,3.800007761,-12.00000548,1,0,0,2,2,"[126,43,36,32,25,23,32,2,115,111]",3.800007761,-12.00000548,1,0,0,0,28,28,31,1,Turquiose,Turquiose.jpg,LightBlue,LightBlue.jpg,,
,,,,,,,,,,,,,,,,,,1,,,,,,,,,,,,,,,,,,,,,,,,,,,,001,2021-12-16_23h09.17.040,jm_natural_scene_simialrity_2-12-2021_version2,2021.2.3,Win32,60.2373351,5e90a8363f920e3bda6b5068,61bbc5c79a1c66460f44041e,61bbc706e1fab6766dcc0e4d,,,,,,80.60005773,-90.40000665,1,0,0,response3disk,4.8,-16.99999255,14.39999491,1,0,0,rectangle,-16.99999255,14.39999491,1,0,0,2,-4,"[126,43,36,32,25,23,32,2,115,111]",-16.99999255,14.39999491,1,0,0,0,29,29,75,1,DarkBlue,DarkBlue.jpg,LightBlue,LightBlue.jpg,,
,,,,,,,,,,,,,,,,,,-1,,,,,,,,,,,,,,,,,,,,,,,,,,,,001,2021-12-16_23h09.17.040,jm_natural_scene_simialrity_2-12-2021_version2,2021.2.3,Win32,60.2373351,5e90a8363f920e3bda6b5068,61bbc5c79a1c66460f44041e,61bbc706e1fab6766dcc0e4d,,,,,,-40.1999929,-84.00000656,1,0,0,response5disk,2.6163,-6.599992394,-1.600005329,1,0,0,rectangle,-6.599992394,-1.600005329,1,0,0,2,-2,"[126,43,36,32,25,23,32,2,115,111]",-6.599992394,-1.600005329,1,0,0,0,30,30,58,1,Pink,Pink.jpg,Yellow,Yellow.jpg,,
,,,,,,,,,,,,,,,,,,-3,,,,,,,,,,,,,,,,,,,,,,,,,,,,001,2021-12-16_23h09.17.040,jm_natural_scene_simialrity_2-12-2021_version2,2021.2.3,Win32,60.2373351,5e90a8363f920e3bda6b5068,61bbc5c79a1c66460f44041e,61bbc706e1fab6766dcc0e4d,,,,,,-88.99999362,35.99999523,1,0,0,response7disk,1.9669,-0.199992299,-0.800029731,1,0,0,rectangle,39.8000083,-57.60005499,1,0,0,1,1,"[126,43,36,32,25,23,32,2,115,111]",4.600056601,-2.400005341,1,0,0,0,31,31,57,1,DarkBlue,DarkBlue.jpg,Yellow,Yellow.jpg,response3disk_3,rectangle
,,,,,,,,,,,,,,,,,,-1,,,,,,,,,,,,,,,,,,,,,,,,,,,,001,2021-12-16_23h09.17.040,jm_natural_scene_simialrity_2-12-2021_version2,2021.2.3,Win32,60.2373351,5e90a8363f920e3bda6b5068,61bbc5c79a1c66460f44041e,61bbc706e1fab6766dcc0e4d,,,,,,-33.7999928,-68.00000632,1,0,0,response5disk,1.6999,-0.199992299,-8.80002985,1,0,0,rectangle,-0.199992299,-8.80002985,1,0,0,1,-3,"[126,43,36,32,25,23,32,2,115,111]",-0.199992299,-8.80002985,1,0,0,0,32,32,34,1,Turquiose,Turquiose.jpg,Purple,Purple.jpg,,
,,,,,,,,,,,,,,,,,,-2,,,,,,,,,,,,,,,,,,,,,,,,,,,,001,2021-12-16_23h09.17.040,jm_natural_scene_simialrity_2-12-2021_version2,2021.2.3,Win32,60.2373351,5e90a8363f920e3bda6b5068,61bbc5c79a1c66460f44041e,61bbc706e1fab6766dcc0e4d,,,,,,-81.79999352,-36.80003027,1,0,0,response5disk,2.2828,-11.39999247,0.799994707,1,0,0,rectangle,-11.39999247,0.799994707,1,0,0,1,3,"[126,43,36,32,25,23,32,2,115,111]",-11.39999247,0.799994707,1,0,0,0,33,33,63,1,DarkBlue,DarkBlue.jpg,LightGreen,LightGreen.jpg,,
,,,,,,,,,,,,,,,,,,-3,,,,,,,,,,,,,,,,,,,,,,,,,,,,001,2021-12-16_23h09.17.040,jm_natural_scene_simialrity_2-12-2021_version2,2021.2.3,Win32,60.2373351,5e90a8363f920e3bda6b5068,61bbc5c79a1c66460f44041e,61bbc706e1fab6766dcc0e4d,,,,,,-75.39999342,31.19997075,1,0,0,response7disk,2.1832,-0.999992311,3.999994755,1,0,0,rectangle,-0.999992311,3.999994755,1,0,0,1,3,"[126,43,36,32,25,23,32,2,115,111]",-0.999992311,3.999994755,1,0,0,0,34,34,73,1,Pink,Pink.jpg,Turquiose,Turquiose.jpg,,
,,,,,,,,,,,,,,,,,,-3,,,,,,,,,,,,,,,,,,,,,,,,,,,,001,2021-12-16_23h09.17.040,jm_natural_scene_simialrity_2-12-2021_version2,2021.2.3,Win32,60.2373351,5e90a8363f920e3bda6b5068,61bbc5c79a1c66460f44041e,61bbc706e1fab6766dcc0e4d,,,,,,-66.59999329,31.99999517,1,0,0,response7disk,1.8341,7.80000782,8.799994826,1,0,0,rectangle,40.60005714,-68.00000632,1,0,0,1,-1,"[126,43,36,32,25,23,32,2,115,111]",5.400007784,-8.000005424,1,0,0,0,35,35,70,1,Purple,Purple.jpg,DarkGreen,DarkGreen.jpg,response3disk_3,rectangle
,,,,,,,,,,,,,,,,,,-2,,,,,,,,,,,,,,,,,,,,,,,,,,,,001,2021-12-16_23h09.17.040,jm_natural_scene_simialrity_2-12-2021_version2,2021.2.3,Win32,60.2373351,5e90a8363f920e3bda6b5068,61bbc5c79a1c66460f44041e,61bbc706e1fab6766dcc0e4d,,,,,,-87.3999936,-37.60000587,1,0,0,response5disk,5.8211,-0.999992311,-8.000005424,1,0,0,rectangle,-0.999992311,-8.000005424,1,0,0,1,-4,"[126,43,36,32,25,23,32,2,115,111]",-0.999992311,-8.000005424,1,0,0,0,36,36,21,1,LightGreen,LightGreen.jpg,DarkBlue,DarkBlue.jpg,,
,,,,,,,,,,,,,,,,,,1,,,,,,,,,,,,,,,,,,,,,,,,,,,,001,2021-12-16_23h09.17.040,jm_natural_scene_simialrity_2-12-2021_version2,2021.2.3,Win32,60.2373351,5e90a8363f920e3bda6b5068,61bbc5c79a1c66460f44041e,61bbc706e1fab6766dcc0e4d,,,,,,38.20000827,-63.20000625,1,0,0,response3disk,1.6661,6.200007796,-13.60000551,1,0,0,rectangle,6.200007796,-13.60000551,1,0,0,1,3,"[126,43,36,32,25,23,32,2,115,111]",6.200007796,-13.60000551,1,0,0,0,37,37,51,1,Pink,Pink.jpg,Red,Red.jpg,,
,,,,,,,,,,,,,,,,,,-2,,,,,,,,,,,,,,,,,,,,,,,,,,,,001,2021-12-16_23h09.17.040,jm_natural_scene_simialrity_2-12-2021_version2,2021.2.3,Win32,60.2373351,5e90a8363f920e3bda6b5068,61bbc5c79a1c66460f44041e,61bbc706e1fab6766dcc0e4d,,,,,,-107.3999939,-34.40000582,1,0,0,response5disk,1.8663,-10.59999245,-2.400005341,1,0,0,rectangle,-10.59999245,-2.400005341,1,0,0,1,-4,"[126,43,36,32,25,23,32,2,115,111]",-10.59999245,-2.400005341,1,0,0,0,38,38,2,1,Red,Red.jpg,LightGreen,LightGreen.jpg,,
,,,,,,,,,,,,,,,,,,4,,,,,,,,,,,,,,,,,,,,,,,,,,,,001,2021-12-16_23h09.17.040,jm_natural_scene_simialrity_2-12-2021_version2,2021.2.3,Win32,60.2373351,5e90a8363f920e3bda6b5068,61bbc5c79a1c66460f44041e,61bbc706e1fab6766dcc0e4d,,,,,,68.60005755,128.7999966,1,0,0,response1disk,1.2835,-15.39999253,-18.40000558,1,0,0,rectangle,-15.39999253,-18.40000558,1,0,0,1,1,"[126,43,36,32,25,23,32,2,115,111]",-15.39999253,-18.40000558,1,0,0,0,39,39,35,1,LightBlue,LightBlue.jpg,LightBlue,LightBlue.jpg,,
,,,,,,,,,,,,,,,,,,-4,,,,,,,,,,,,,,,,,,,,,,,,,,,,001,2021-12-16_23h09.17.040,jm_natural_scene_simialrity_2-12-2021_version2,2021.2.3,Win32,60.2373351,5e90a8363f920e3bda6b5068,61bbc5c79a1c66460f44041e,61bbc706e1fab6766dcc0e4d,,,,,,-68.19999331,118.3999965,1,0,0,response7disk,2.2666,1.400007725,9.599994838,1,0,0,rectangle,1.400007725,9.599994838,1,0,0,1,-3,"[126,43,36,32,25,23,32,2,115,111]",1.400007725,9.599994838,1,0,0,0,40,40,10,1,Yellow,Yellow.jpg,LightGreen,LightGreen.jpg,,
,,,,,,,,,,,,,,,,,,-2,,,,,,,,,,,,,,,,,,,,,,,,,,,,001,2021-12-16_23h09.17.040,jm_natural_scene_simialrity_2-12-2021_version2,2021.2.3,Win32,60.2373351,5e90a8363f920e3bda6b5068,61bbc5c79a1c66460f44041e,61bbc706e1fab6766dcc0e4d,,,,,,-71.39999336,-40.0000059,1,0,0,response5disk,5.9338,-16.99999255,-15.20000553,1,0,0,rectangle,-16.99999255,-15.20000553,1,0,0,1,3,"[126,43,36,32,25,23,32,2,115,111]",-16.99999255,-15.20000553,1,0,0,0,41,41,40,1,DarkBlue,DarkBlue.jpg,Pink,Pink.jpg,,
,,,,,,,,,,,,,,,,,,-3,,,,,,,,,,,,,,,,,,,,,,,,,,,,001,2021-12-16_23h09.17.040,jm_natural_scene_simialrity_2-12-2021_version2,2021.2.3,Win32,60.2373351,5e90a8363f920e3bda6b5068,61bbc5c79a1c66460f44041e,61bbc706e1fab6766dcc0e4d,,,,,,-74.59999341,34.39999521,1,0,0,response7disk,1.8168,-11.39999247,10.39999485,1,0,0,rectangle,97.40000916,53.59999549,1,0,0,3,3,"[126,43,36,32,25,23,32,2,115,111]",1.400007725,18.39999497,1,0,0,0,42,42,4,1,Red,Red.jpg,Turquiose,Turquiose.jpg,response1disk_3,rectangle
,,,,,,,,,,,,,,,,,,-3,,,,,,,,,,,,,,,,,,,,,,,,,,,,001,2021-12-16_23h09.17.040,jm_natural_scene_simialrity_2-12-2021_version2,2021.2.3,Win32,60.2373351,5e90a8363f920e3bda6b5068,61bbc5c79a1c66460f44041e,61bbc706e1fab6766dcc0e4d,,,,,,-131.3999943,38.39999527,1,0,0,response7disk,1.6501,3.800007761,4.799994767,1,0,0,rectangle,3.800007761,4.799994767,1,0,0,3,-3,"[126,43,36,32,25,23,32,2,115,111]",3.800007761,4.799994767,1,0,0,0,43,43,11,1,Yellow,Yellow.jpg,DarkGreen,DarkGreen.jpg,,
,,,,,,,,,,,,,,,,,,-2,,,,,,,,,,,,,,,,,,,,,,,,,,,,001,2021-12-16_23h09.17.040,jm_natural_scene_simialrity_2-12-2021_version2,2021.2.3,Win32,60.2373351,5e90a8363f920e3bda6b5068,61bbc5c79a1c66460f44041e,61bbc706e1fab6766dcc0e4d,,,,,,-90.59999365,-43.20000595,1,0,0,response5disk,2.6672,-7.399992406,-4.000005364,1,0,0,rectangle,-7.399992406,-4.000005364,1,0,0,3,3,"[126,43,36,32,25,23,32,2,115,111]",-7.399992406,-4.000005364,1,0,0,0,44,44,1,1,Red,Red.jpg,Yellow,Yellow.jpg,,
,,,,,,,,,,,,,,,,,,-3,,,,,,,,,,,,,,,,,,,,,,,,,,,,001,2021-12-16_23h09.17.040,jm_natural_scene_simialrity_2-12-2021_version2,2021.2.3,Win32,60.2373351,5e90a8363f920e3bda6b5068,61bbc5c79a1c66460f44041e,61bbc706e1fab6766dcc0e4d,,,,,,-75.39999342,31.99999517,1,0,0,response7disk,2.9831,2.200007737,8.799994826,1,0,0,rectangle,2.200007737,8.799994826,1,0,0,3,2,"[126,43,36,32,25,23,32,2,115,111]",2.200007737,8.799994826,1,0,0,0,45,45,19,1,LightGreen,LightGreen.jpg,Turquiose,Turquiose.jpg,,
,,,,,,,,,,,,,,,,,,-3,,,,,,,,,,,,,,,,,,,,,,,,,,,,001,2021-12-16_23h09.17.040,jm_natural_scene_simialrity_2-12-2021_version2,2021.2.3,Win32,60.2373351,5e90a8363f920e3bda6b5068,61bbc5c79a1c66460f44041e,61bbc706e1fab6766dcc0e4d,,,,,,-66.59999329,35.19997081,1,0,0,response7disk,2.2834,12.60005672,-0.800029731,1,0,0,rectangle,12.60005672,-0.800029731,1,0,0,3,-1,"[126,43,36,32,25,23,32,2,115,111]",12.60005672,-0.800029731,1,0,0,0,46,46,56,1,LightBlue,LightBlue.jpg,Yellow,Yellow.jpg,,
,,,,,,,,,,,,,,,,,,-1,,,,,,,,,,,,,,,,,,,,,,,,,,,,001,2021-12-16_23h09.17.040,jm_natural_scene_simialrity_2-12-2021_version2,2021.2.3,Win32,60.2373351,5e90a8363f920e3bda6b5068,61bbc5c79a1c66460f44041e,61bbc706e1fab6766dcc0e4d,,,,,,-62.59999323,-68.00000632,1,0,0,response5disk,2.1505,-7.399992406,15.19997051,1,0,0,rectangle,-7.399992406,15.19997051,1,0,0,3,1,"[126,43,36,32,25,23,32,2,115,111]",-7.399992406,15.19997051,1,0,0,0,47,47,80,1,Purple,Purple.jpg,Pink,Pink.jpg,,
,,,,,,,,,,,,,,,,,,4,,,,,,,,,,,,,,,,,,,,,,,,,,,,001,2021-12-16_23h09.17.040,jm_natural_scene_simialrity_2-12-2021_version2,2021.2.3,Win32,60.2373351,5e90a8363f920e3bda6b5068,61bbc5c79a1c66460f44041e,61bbc706e1fab6766dcc0e4d,,,,,,54.20000851,72.79999578,1,0,0,response1disk,1.1164,15.80000794,17.59999496,1,0,0,rectangle,15.80000794,17.59999496,1,0,0,3,-2,"[126,43,36,32,25,23,32,2,115,111]",15.80000794,17.59999496,1,0,0,0,48,48,42,1,Pink,Pink.jpg,Pink,Pink.jpg,,
,,,,,,,,,,,,,,,,,,-4,,,,,,,,,,,,,,,,,,,,,,,,,,,,001,2021-12-16_23h09.17.040,jm_natural_scene_simialrity_2-12-2021_version2,2021.2.3,Win32,60.2373351,5e90a8363f920e3bda6b5068,61bbc5c79a1c66460f44041e,61bbc706e1fab6766dcc0e4d,,,,,,-58.59999317,85.59999597,1,0,0,response7disk,1.0991,-8.199992418,11.99999487,1,0,0,rectangle,-8.199992418,11.99999487,1,0,0,3,2,"[126,43,36,32,25,23,32,2,115,111]",-8.199992418,11.99999487,1,0,0,0,49,49,12,1,Yellow,Yellow.jpg,Turquiose,Turquiose.jpg,,
,,,,,,,,,,,,,,,,,,-3,,,,,,,,,,,,,,,,,,,,,,,,,,,,001,2021-12-16_23h09.17.040,jm_natural_scene_simialrity_2-12-2021_version2,2021.2.3,Win32,60.2373351,5e90a8363f920e3bda6b5068,61bbc5c79a1c66460f44041e,61bbc706e1fab6766dcc0e4d,,,,,,-64.19999325,35.19997081,1,0,0,response7disk,2.3504,-19.39999259,7.199970388,1,0,0,rectangle,-19.39999259,7.199970388,1,0,0,3,-3,"[126,43,36,32,25,23,32,2,115,111]",-19.39999259,7.199970388,1,0,0,0,50,50,66,1,Turquiose,Turquiose.jpg,DarkGreen,DarkGreen.jpg,,
,,,,,,,,,,,,,,,,,,-2,,,,,,,,,,,,,,,,,,,,,,,,,,,,001,2021-12-16_23h09.17.040,jm_natural_scene_simialrity_2-12-2021_version2,2021.2.3,Win32,60.2373351,5e90a8363f920e3bda6b5068,61bbc5c79a1c66460f44041e,61bbc706e1fab6766dcc0e4d,,,,,,-83.39999354,-39.20000589,1,0,0,response5disk,1.9494,-15.39999253,-8.000005424,1,0,0,rectangle,-15.39999253,-8.000005424,1,0,0,3,-4,"[126,43,36,32,25,23,32,2,115,111]",-15.39999253,-8.000005424,1,0,0,0,51,51,23,1,LightGreen,LightGreen.jpg,Purple,Purple.jpg,,
,,,,,,,,,,,,,,,,,,-2,,,,,,,,,,,,,,,,,,,,,,,,,,,,001,2021-12-16_23h09.17.040,jm_natural_scene_simialrity_2-12-2021_version2,2021.2.3,Win32,60.2373351,5e90a8363f920e3bda6b5068,61bbc5c79a1c66460f44041e,61bbc706e1fab6766dcc0e4d,,,,,,-81.79999352,-32.00000578,1,0,0,response5disk,1.6337,-20.1999926,-5.600005388,1,0,0,rectangle,-20.1999926,-5.600005388,1,0,0,3,-1,"[126,43,36,32,25,23,32,2,115,111]",-20.1999926,-5.600005388,1,0,0,0,52,52,27,1,DarkGreen,DarkGreen.jpg,DarkBlue,DarkBlue.jpg,,
,,,,,,,,,,,,,,,,,,-3,,,,,,,,,,,,,,,,,,,,,,,,,,,,001,2021-12-16_23h09.17.040,jm_natural_scene_simialrity_2-12-2021_version2,2021.2.3,Win32,60.2373351,5e90a8363f920e3bda6b5068,61bbc5c79a1c66460f44041e,61bbc706e1fab6766dcc0e4d,,,,,,-65.79999328,29.59999514,1,0,0,response7disk,1.9332,-11.39999247,7.999994814,1,0,0,rectangle,-11.39999247,7.999994814,1,0,0,3,-1,"[126,43,36,32,25,23,32,2,115,111]",-11.39999247,7.999994814,1,0,0,0,53,53,22,1,LightGreen,LightGreen.jpg,Pink,Pink.jpg,,
,,,,,,,,,,,,,,,,,,2,,,,,,,,,,,,,,,,,,,,,,,,,,,,001,2021-12-16_23h09.17.040,jm_natural_scene_simialrity_2-12-2021_version2,2021.2.3,Win32,60.2373351,5e90a8363f920e3bda6b5068,61bbc5c79a1c66460f44041e,61bbc706e1fab6766dcc0e4d,,,,,,100.600058,-78.40000647,1,0,0,response3disk,2.5998,3.000007749,13.5999949,1,0,0,rectangle,3.000007749,13.5999949,1,0,0,3,-2,"[126,43,36,32,25,23,32,2,115,111]",3.000007749,13.5999949,1,0,0,0,54,54,18,1,LightGreen,LightGreen.jpg,DarkGreen,DarkGreen.jpg,,
,,,,,,,,,,,,,,,,,,-3,,,,,,,,,,,,,,,,,,,,,,,,,,,,001,2021-12-16_23h09.17.040,jm_natural_scene_simialrity_2-12-2021_version2,2021.2.3,Win32,60.2373351,5e90a8363f920e3bda6b5068,61bbc5c79a1c66460f44041e,61bbc706e1fab6766dcc0e4d,,,,,,-68.99999332,39.99999529,1,0,0,response7disk,1.5,-6.599992394,6.399994791,1,0,0,rectangle,-6.599992394,6.399994791,1,0,0,3,3,"[126,43,36,32,25,23,32,2,115,111]",-6.599992394,6.399994791,1,0,0,0,55,55,3,1,Red,Red.jpg,DarkGreen,DarkGreen.jpg,,
,,,,,,,,,,,,,,,,,,-2,,,,,,,,,,,,,,,,,,,,,,,,,,,,001,2021-12-16_23h09.17.040,jm_natural_scene_simialrity_2-12-2021_version2,2021.2.3,Win32,60.2373351,5e90a8363f920e3bda6b5068,61bbc5c79a1c66460f44041e,61bbc706e1fab6766dcc0e4d,,,,,,-100.9999938,-60.80000621,1,0,0,response5disk,2.3002,-17.79999256,-20.0000056,1,0,0,rectangle,-17.79999256,-20.0000056,1,0,0,-1,3,"[126,43,36,32,25,23,32,2,115,111]",-17.79999256,-20.0000056,1,0,0,0,56,56,25,1,DarkGreen,DarkGreen.jpg,Turquiose,Turquiose.jpg,,
,,,,,,,,,,,,,,,,,,4,,,,,,,,,,,,,,,,,,,,,,,,,,,,001,2021-12-16_23h09.17.040,jm_natural_scene_simialrity_2-12-2021_version2,2021.2.3,Win32,60.2373351,5e90a8363f920e3bda6b5068,61bbc5c79a1c66460f44041e,61bbc706e1fab6766dcc0e4d,,,,,,31.00000817,52.79999548,1,0,0,response1disk,1.2175,7.80000782,10.39999485,1,0,0,rectangle,7.80000782,10.39999485,1,0,0,-1,-4,"[126,43,36,32,25,23,32,2,115,111]",7.80000782,10.39999485,1,0,0,0,57,57,39,1,DarkBlue,DarkBlue.jpg,DarkBlue,DarkBlue.jpg,,
,,,,,,,,,,,,,,,,,,2,,,,,,,,,,,,,,,,,,,,,,,,,,,,001,2021-12-16_23h09.17.040,jm_natural_scene_simialrity_2-12-2021_version2,2021.2.3,Win32,60.2373351,5e90a8363f920e3bda6b5068,61bbc5c79a1c66460f44041e,61bbc706e1fab6766dcc0e4d,,,,,,114.2000094,-60.0000062,1,0,0,response3disk,1.4172,15.80000794,3.199970329,1,0,0,rectangle,15.80000794,3.199970329,1,0,0,-1,-2,"[126,43,36,32,25,23,32,2,115,111]",15.80000794,3.199970329,1,0,0,0,58,58,7,1,Red,Red.jpg,Pink,Pink.jpg,,
,,,,,,,,,,,,,,,,,,-2,,,,,,,,,,,,,,,,,,,,,,,,,,,,001,2021-12-16_23h09.17.040,jm_natural_scene_simialrity_2-12-2021_version2,2021.2.3,Win32,60.2373351,5e90a8363f920e3bda6b5068,61bbc5c79a1c66460f44041e,61bbc706e1fab6766dcc0e4d,,,,,,-41.79999357,-30.40000576,1,0,0,response5disk,45.4206,15.00000727,15.99999493,1,0,0,rectangle,15.00000727,15.99999493,1,0,0,-1,-1,"[126,43,36,32,25,23,32,2,115,111]",15.00000727,15.99999493,1,0,0,0,59,59,49,1,LightBlue,LightBlue.jpg,Red,Red.jpg,,
,,,,,,,,,,,,,,,,,,-3,,,,,,,,,,,,,,,,,,,,,,,,,,,,001,2021-12-16_23h09.17.040,jm_natural_scene_simialrity_2-12-2021_version2,2021.2.3,Win32,60.2373351,5e90a8363f920e3bda6b5068,61bbc5c79a1c66460f44041e,61bbc706e1fab6766dcc0e4d,,,,,,-120.9999948,43.19997092,1,0,0,response7disk,1.2002,0.600007057,-11.20000547,1,0,0,rectangle,0.600007057,-11.20000547,1,0,0,-1,-4,"[126,43,36,32,25,23,32,2,115,111]",0.600007057,-11.20000547,1,0,0,0,60,60,6,1,Red,Red.jpg,DarkBlue,DarkBlue.jpg,,
,,,,,,,,,,,,,,,,,,-3,,,,,,,,,,,,,,,,,,,,,,,,,,,,001,2021-12-16_23h09.17.040,jm_natural_scene_simialrity_2-12-2021_version2,2021.2.3,Win32,60.2373351,5e90a8363f920e3bda6b5068,61bbc5c79a1c66460f44041e,61bbc706e1fab6766dcc0e4d,,,,,,-63.3999939,34.39999521,1,0,0,response7disk,1.9663,7.800007164,0.799994707,1,0,0,rectangle,7.800007164,0.799994707,1,0,0,-1,1,"[126,43,36,32,25,23,32,2,115,111]",7.800007164,0.799994707,1,0,0,0,61,61,53,1,LightGreen,LightGreen.jpg,Yellow,Yellow.jpg,,
,,,,,,,,,,,,,,,,,,-2,,,,,,,,,,,,,,,,,,,,,,,,,,,,001,2021-12-16_23h09.17.040,jm_natural_scene_simialrity_2-12-2021_version2,2021.2.3,Win32,60.2373351,5e90a8363f920e3bda6b5068,61bbc5c79a1c66460f44041e,61bbc706e1fab6766dcc0e4d,,,,,,-48.99999368,-24.80003009,1,0,0,response5disk,4.0003,15.80000728,-13.60000551,1,0,0,rectangle,15.80000728,-13.60000551,1,0,0,-1,3,"[126,43,36,32,25,23,32,2,115,111]",15.80000728,-13.60000551,1,0,0,0,62,62,62,1,LightBlue,LightBlue.jpg,LightGreen,LightGreen.jpg,,
,,,,,,,,,,,,,,,,,,1,,,,,,,,,,,,,,,,,,,,,,,,,,,,001,2021-12-16_23h09.17.040,jm_natural_scene_simialrity_2-12-2021_version2,2021.2.3,Win32,60.2373351,5e90a8363f920e3bda6b5068,61bbc5c79a1c66460f44041e,61bbc706e1fab6766dcc0e4d,,,,,,55.00000787,-104.8000069,1,0,0,response3disk,1.4168,11.80000722,-5.600005388,1,0,0,rectangle,11.80000722,-5.600005388,1,0,0,-1,-2,"[126,43,36,32,25,23,32,2,115,111]",11.80000722,-5.600005388,1,0,0,0,63,63,72,1,DarkBlue,DarkBlue.jpg,Turquiose,Turquiose.jpg,,
,,,,,,,,,,,,,,,,,,-2,,,,,,,,,,,,,,,,,,,,,,,,,,,,001,2021-12-16_23h09.17.040,jm_natural_scene_simialrity_2-12-2021_version2,2021.2.3,Win32,60.2373351,5e90a8363f920e3bda6b5068,61bbc5c79a1c66460f44041e,61bbc706e1fab6766dcc0e4d,,,,,,-72.19996961,-40.0000059,1,0,0,response5disk,2.8836,-0.199992955,-19.20000559,1,0,0,rectangle,-0.199992955,-19.20000559,1,0,0,-1,-2,"[126,43,36,32,25,23,32,2,115,111]",-0.199992955,-19.20000559,1,0,0,0,64,64,67,1,LightBlue,LightBlue.jpg,DarkGreen,DarkGreen.jpg,,
,,,,,,,,,,,,,,,,,,4,,,,,,,,,,,,,,,,,,,,,,,,,,,,001,2021-12-16_23h09.17.040,jm_natural_scene_simialrity_2-12-2021_version2,2021.2.3,Win32,60.2373351,5e90a8363f920e3bda6b5068,61bbc5c79a1c66460f44041e,61bbc706e1fab6766dcc0e4d,,,,,,47.00000775,139.9999968,1,0,0,response1disk,1.1665,-16.19999319,-9.600005448,1,0,0,rectangle,-16.19999319,-9.600005448,1,0,0,-1,-4,"[126,43,36,32,25,23,32,2,115,111]",-16.19999319,-9.600005448,1,0,0,0,65,65,9,1,Yellow,Yellow.jpg,Yellow,Yellow.jpg,,
,,,,,,,,,,,,,,,,,,-2,,,,,,,,,,,,,,,,,,,,,,,,,,,,001,2021-12-16_23h09.17.040,jm_natural_scene_simialrity_2-12-2021_version2,2021.2.3,Win32,60.2373351,5e90a8363f920e3bda6b5068,61bbc5c79a1c66460f44041e,61bbc706e1fab6766dcc0e4d,,,,,,-73.79999405,-41.60000592,1,0,0,response5disk,2.1333,7.000007153,-1.600005329,1,0,0,rectangle,7.000007153,-1.600005329,1,0,0,-1,3,"[126,43,36,32,25,23,32,2,115,111]",7.000007153,-1.600005329,1,0,0,0,66,66,68,1,DarkBlue,DarkBlue.jpg,DarkGreen,DarkGreen.jpg,,
,,,,,,,,,,,,,,,,,,-1,,,,,,,,,,,,,,,,,,,,,,,,,,,,001,2021-12-16_23h09.17.040,jm_natural_scene_simialrity_2-12-2021_version2,2021.2.3,Win32,60.2373351,5e90a8363f920e3bda6b5068,61bbc5c79a1c66460f44041e,61bbc706e1fab6766dcc0e4d,,,,,,-32.19999343,-59.20000619,1,0,0,response5disk,1.7833,-2.59999299,-12.00000548,1,0,0,rectangle,-2.59999299,-12.00000548,1,0,0,-1,-3,"[126,43,36,32,25,23,32,2,115,111]",-2.59999299,-12.00000548,1,0,0,0,67,67,65,1,Purple,Purple.jpg,LightGreen,LightGreen.jpg,,
,,,,,,,,,,,,,,,,,,-1,,,,,,,,,,,,,,,,,,,,,,,,,,,,001,2021-12-16_23h09.17.040,jm_natural_scene_simialrity_2-12-2021_version2,2021.2.3,Win32,60.2373351,5e90a8363f920e3bda6b5068,61bbc5c79a1c66460f44041e,61bbc706e1fab6766dcc0e4d,,,,,,-45.79999363,-105.6000557,1,0,0,response5disk,2.5667,0.600007057,-6.4000054,1,0,0,rectangle,0.600007057,-6.4000054,1,0,0,-1,1,"[126,43,36,32,25,23,32,2,115,111]",0.600007057,-6.4000054,1,0,0,0,68,68,79,1,Purple,Purple.jpg,DarkBlue,DarkBlue.jpg,,
,,,,,,,,,,,,,,,,,,-4,,,,,,,,,,,,,,,,,,,,,,,,,,,,001,2021-12-16_23h09.17.040,jm_natural_scene_simialrity_2-12-2021_version2,2021.2.3,Win32,60.2373351,5e90a8363f920e3bda6b5068,61bbc5c79a1c66460f44041e,61bbc706e1fab6766dcc0e4d,,,,,,-40.19999355,61.59999561,1,0,0,response7disk,1.6496,-6.59999305,19.99999499,1,0,0,rectangle,-6.59999305,19.99999499,1,0,0,-1,3,"[126,43,36,32,25,23,32,2,115,111]",-6.59999305,19.99999499,1,0,0,0,69,69,46,1,LightGreen,LightGreen.jpg,Red,Red.jpg,,
,,,,,,,,,,,,,,,,,,4,,,,,,,,,,,,,,,,,,,,,,,,,,,,001,2021-12-16_23h09.17.040,jm_natural_scene_simialrity_2-12-2021_version2,2021.2.3,Win32,60.2373351,5e90a8363f920e3bda6b5068,61bbc5c79a1c66460f44041e,61bbc706e1fab6766dcc0e4d,,,,,,23.00000739,67.99999571,1,0,0,response1disk,0.9829,1.400007069,11.99999487,1,0,0,rectangle,1.400007069,11.99999487,1,0,0,-1,3,"[126,43,36,32,25,23,32,2,115,111]",1.400007069,11.99999487,1,0,0,0,70,70,30,1,Turquiose,Turquiose.jpg,Turquiose,Turquiose.jpg,,
,,,,,,,,,,,,,,,,,,-2,,,,,,,,,,,,,,,,,,,,,,,,,,,,001,2021-12-16_23h09.17.040,jm_natural_scene_simialrity_2-12-2021_version2,2021.2.3,Win32,60.2373351,5e90a8363f920e3bda6b5068,61bbc5c79a1c66460f44041e,61bbc706e1fab6766dcc0e4d,,,,,,-126.5999948,-49.60007929,1,0,0,response5disk,2.4334,-14.59999317,-0.800029731,1,0,0,rectangle,-14.59999317,-0.800029731,1,0,0,-1,3,"[126,43,36,32,25,23,32,2,115,111]",-14.59999317,-0.800029731,1,0,0,0,71,71,20,1,LightGreen,LightGreen.jpg,LightBlue,LightBlue.jpg,,
,,,,,,,,,,,,,,,,,,-4,,,,,,,,,,,,,,,,,,,,,,,,,,,,001,2021-12-16_23h09.17.040,jm_natural_scene_simialrity_2-12-2021_version2,2021.2.3,Win32,60.2373351,5e90a8363f920e3bda6b5068,61bbc5c79a1c66460f44041e,61bbc706e1fab6766dcc0e4d,,,,,,-34.59999347,65.59999567,1,0,0,response7disk,1.2496,-0.999992967,13.5999949,1,0,0,rectangle,-0.999992967,13.5999949,1,0,0,-1,-1,"[126,43,36,32,25,23,32,2,115,111]",-0.999992967,13.5999949,1,0,0,0,72,72,50,1,DarkBlue,DarkBlue.jpg,Red,Red.jpg,,
,,,,,,,,,,,,,,,,,,-2,,,,,,,,,,,,,,,,,,,,,,,,,,,,001,2021-12-16_23h09.17.040,jm_natural_scene_simialrity_2-12-2021_version2,2021.2.3,Win32,60.2373351,5e90a8363f920e3bda6b5068,61bbc5c79a1c66460f44041e,61bbc706e1fab6766dcc0e4d,,,,,,-101.7999945,-43.20000595,1,0,0,response5disk,3.2838,9.400007188,11.19997045,1,0,0,rectangle,9.400007188,11.19997045,1,0,0,-1,-3,"[126,43,36,32,25,23,32,2,115,111]",9.400007188,11.19997045,1,0,0,0,73,73,45,1,Yellow,Yellow.jpg,Red,Red.jpg,,
,,,,,,,,,,,,,,,,,,-3,,,,,,,,,,,,,,,,,,,,,,,,,,,,001,2021-12-16_23h09.17.040,jm_natural_scene_simialrity_2-12-2021_version2,2021.2.3,Win32,60.2373351,5e90a8363f920e3bda6b5068,61bbc5c79a1c66460f44041e,61bbc706e1fab6766dcc0e4d,,,,,,-109.7999946,31.99999517,1,0,0,response7disk,4.8191,-8.999993086,11.19997045,1,0,0,rectangle,-8.999993086,11.19997045,1,0,0,-1,-3,"[126,43,36,32,25,23,32,2,115,111]",-8.999993086,11.19997045,1,0,0,0,74,74,48,1,Turquiose,Turquiose.jpg,Red,Red.jpg,,
,,,,,,,,,,,,,,,,,,-2,,,,,,,,,,,,,,,,,,,,,,,,,,,,001,2021-12-16_23h09.17.040,jm_natural_scene_simialrity_2-12-2021_version2,2021.2.3,Win32,60.2373351,5e90a8363f920e3bda6b5068,61bbc5c79a1c66460f44041e,61bbc706e1fab6766dcc0e4d,,,,,,-83.39999419,-36.00000584,1,0,0,response5disk,574.6281,8.600007176,4.799994767,1,0,0,rectangle,8.600007176,4.799994767,1,0,0,-1,-1,"[126,43,36,32,25,23,32,2,115,111]",8.600007176,4.799994767,1,0,0,0,75,75,78,1,Pink,Pink.jpg,DarkBlue,DarkBlue.jpg,,
,,,,,,,,,,,,,,,,,,-3,,,,,,,,,,,,,,,,,,,,,,,,,,,,001,2021-12-16_23h09.17.040,jm_natural_scene_simialrity_2-12-2021_version2,2021.2.3,Win32,60.2373351,5e90a8363f920e3bda6b5068,61bbc5c79a1c66460f44041e,61bbc706e1fab6766dcc0e4d,,,,,,-99.39999443,63.99999565,1,0,0,response7disk,3.367,-9.799993098,3.999994755,1,0,0,rectangle,-9.799993098,3.999994755,1,0,0,-1,2,"[126,43,36,32,25,23,32,2,115,111]",-9.799993098,3.999994755,1,0,0,0,76,76,13,1,Yellow,Yellow.jpg,LightBlue,LightBlue.jpg,,
,,,,,,,,,,,,,,,,,,-4,,,,,,,,,,,,,,,,,,,,,,,,,,,,001,2021-12-16_23h09.17.040,jm_natural_scene_simialrity_2-12-2021_version2,2021.2.3,Win32,60.2373351,5e90a8363f920e3bda6b5068,61bbc5c79a1c66460f44041e,61bbc706e1fab6766dcc0e4d,,,,,,-25.79999334,121.5999965,1,0,0,response7disk,1.2002,3.000007093,-0.800029731,1,0,0,rectangle,3.000007093,-0.800029731,1,0,0,-1,-4,"[126,43,36,32,25,23,32,2,115,111]",3.000007093,-0.800029731,1,0,0,0,77,77,47,1,DarkGreen,DarkGreen.jpg,Red,Red.jpg,,
,,,,,,,,,,,,,,,,,,1,,,,,,,,,,,,,,,,,,,,,,,,,,,,001,2021-12-16_23h09.17.040,jm_natural_scene_simialrity_2-12-2021_version2,2021.2.3,Win32,60.2373351,5e90a8363f920e3bda6b5068,61bbc5c79a1c66460f44041e,61bbc706e1fab6766dcc0e4d,,,,,,38.20000762,-71.20000637,1,0,0,response3disk,1.9664,-21.79999328,18.39999497,1,0,0,rectangle,-21.79999328,18.39999497,1,0,0,-3,-2,"[126,43,36,32,25,23,32,2,115,111]",-21.79999328,18.39999497,1,0,0,0,78,78,41,1,DarkBlue,DarkBlue.jpg,Purple,Purple.jpg,,
,,,,,,,,,,,,,,,,,,4,,,,,,,,,,,,,,,,,,,,,,,,,,,,001,2021-12-16_23h09.17.040,jm_natural_scene_simialrity_2-12-2021_version2,2021.2.3,Win32,60.2373351,5e90a8363f920e3bda6b5068,61bbc5c79a1c66460f44041e,61bbc706e1fab6766dcc0e4d,,,,,,65.40000802,96.79999614,1,0,0,response1disk,1.0332,2.200007081,2.399994731,1,0,0,rectangle,2.200007081,2.399994731,1,0,0,-3,-2,"[126,43,36,32,25,23,32,2,115,111]",2.200007081,2.399994731,1,0,0,0,79,79,17,1,LightGreen,LightGreen.jpg,LightGreen,LightGreen.jpg,,
,,,,,,,,,,,,,,,,,,-4,,,,,,,,,,,,,,,,,,,,,,,,,,,,001,2021-12-16_23h09.17.040,jm_natural_scene_simialrity_2-12-2021_version2,2021.2.3,Win32,60.2373351,5e90a8363f920e3bda6b5068,61bbc5c79a1c66460f44041e,61bbc706e1fab6766dcc0e4d,,,,,,-36.9999935,63.19997122,1,0,0,response7disk,1.4665,7.800007164,-12.00000548,1,0,0,rectangle,7.800007164,-12.00000548,1,0,0,-3,-1,"[126,43,36,32,25,23,32,2,115,111]",7.800007164,-12.00000548,1,0,0,0,80,80,14,1,Yellow,Yellow.jpg,DarkBlue,DarkBlue.jpg,,
,,,,,,,,,,,,,,,,,,4,,,,,,,,,,,,,,,,,,,,,,,,,,,,001,2021-12-16_23h09.17.040,jm_natural_scene_simialrity_2-12-2021_version2,2021.2.3,Win32,60.2373351,5e90a8363f920e3bda6b5068,61bbc5c79a1c66460f44041e,61bbc706e1fab6766dcc0e4d,,,,,,41.40000767,89.59999603,1,0,0,response1disk,0.983,-5.799993038,8.799994826,1,0,0,rectangle,-5.799993038,8.799994826,1,0,0,-3,-4,"[126,43,36,32,25,23,32,2,115,111]",-5.799993038,8.799994826,1,0,0,1,0,81,44,1,Purple,Purple.jpg,Purple,Purple.jpg,,
,,,,,,,,,,,,,,,,,,-4,,,,,,,,,,,,,,,,,,,,,,,,,,,,001,2021-12-16_23h09.17.040,jm_natural_scene_simialrity_2-12-2021_version2,2021.2.3,Win32,60.2373351,5e90a8363f920e3bda6b5068,61bbc5c79a1c66460f44041e,61bbc706e1fab6766dcc0e4d,,,,,,-40.19999355,101.5999962,1,0,0,response7disk,2.6333,18.20000732,-2.400005341,1,0,0,rectangle,18.20000732,-2.400005341,1,0,0,-3,-3,"[126,43,36,32,25,23,32,2,115,111]",18.20000732,-2.400005341,1,0,0,1,1,82,55,1,Turquiose,Turquiose.jpg,Yellow,Yellow.jpg,,
,,,,,,,,,,,,,,,,,,-4,,,,,,,,,,,,,,,,,,,,,,,,,,,,001,2021-12-16_23h09.17.040,jm_natural_scene_simialrity_2-12-2021_version2,2021.2.3,Win32,60.2373351,5e90a8363f920e3bda6b5068,61bbc5c79a1c66460f44041e,61bbc706e1fab6766dcc0e4d,,,,,,-80.99999416,127.9999966,1,0,0,response7disk,0.9668,-9.799993098,13.5999949,1,0,0,rectangle,-9.799993098,13.5999949,1,0,0,-3,-3,"[126,43,36,32,25,23,32,2,115,111]",-9.799993098,13.5999949,1,0,0,1,2,83,12,1,Yellow,Yellow.jpg,Turquiose,Turquiose.jpg,,
,,,,,,,,,,,,,,,,,,-2,,,,,,,,,,,,,,,,,,,,,,,,,,,,001,2021-12-16_23h09.17.040,jm_natural_scene_simialrity_2-12-2021_version2,2021.2.3,Win32,60.2373351,5e90a8363f920e3bda6b5068,61bbc5c79a1c66460f44041e,61bbc706e1fab6766dcc0e4d,,,,,,-102.5999945,-46.40003041,1,0,0,response5disk,3.0171,10.2000072,7.999994814,1,0,0,rectangle,10.2000072,7.999994814,1,0,0,-3,-1,"[126,43,36,32,25,23,32,2,115,111]",10.2000072,7.999994814,1,0,0,1,3,84,20,1,LightGreen,LightGreen.jpg,LightBlue,LightBlue.jpg,,
,,,,,,,,,,,,,,,,,,-3,,,,,,,,,,,,,,,,,,,,,,,,,,,,001,2021-12-16_23h09.17.040,jm_natural_scene_simialrity_2-12-2021_version2,2021.2.3,Win32,60.2373351,5e90a8363f920e3bda6b5068,61bbc5c79a1c66460f44041e,61bbc706e1fab6766dcc0e4d,,,,,,-118.5999947,55.99999553,1,0,0,response7disk,2.4835,4.600007117,-10.40000546,1,0,0,rectangle,4.600007117,-10.40000546,1,0,0,-3,2,"[126,43,36,32,25,23,32,2,115,111]",4.600007117,-10.40000546,1,0,0,1,4,85,21,1,LightGreen,LightGreen.jpg,DarkBlue,DarkBlue.jpg,,
,,,,,,,,,,,,,,,,,,-3,,,,,,,,,,,,,,,,,,,,,,,,,,,,001,2021-12-16_23h09.17.040,jm_natural_scene_simialrity_2-12-2021_version2,2021.2.3,Win32,60.2373351,5e90a8363f920e3bda6b5068,61bbc5c79a1c66460f44041e,61bbc706e1fab6766dcc0e4d,,,,,,-78.59999412,54.39999551,1,0,0,response7disk,1.3001,-0.999992967,15.99999493,1,0,0,rectangle,-0.999992967,15.99999493,1,0,0,-3,1,"[126,43,36,32,25,23,32,2,115,111]",-0.999992967,15.99999493,1,0,0,1,5,86,5,1,Red,Red.jpg,LightBlue,LightBlue.jpg,,
,,,,,,,,,,,,,,,,,,-3,,,,,,,,,,,,,,,,,,,,,,,,,,,,001,2021-12-16_23h09.17.040,jm_natural_scene_simialrity_2-12-2021_version2,2021.2.3,Win32,60.2373351,5e90a8363f920e3bda6b5068,61bbc5c79a1c66460f44041e,61bbc706e1fab6766dcc0e4d,,,,,,-84.19996979,36.79999524,1,0,0,response7disk,2.5002,-7.399993062,-5.600005388,1,0,0,rectangle,-7.399993062,-5.600005388,1,0,0,-3,-1,"[126,43,36,32,25,23,32,2,115,111]",-7.399993062,-5.600005388,1,0,0,1,6,87,19,1,LightGreen,LightGreen.jpg,Turquiose,Turquiose.jpg,,
,,,,,,,,,,,,,,,,,,-3,,,,,,,,,,,,,,,,,,,,,,,,,,,,001,2021-12-16_23h09.17.040,jm_natural_scene_simialrity_2-12-2021_version2,2021.2.3,Win32,60.2373351,5e90a8363f920e3bda6b5068,61bbc5c79a1c66460f44041e,61bbc706e1fab6766dcc0e4d,,,,,,-111.3999946,76.79999584,1,0,0,response7disk,1.5331,-19.39999324,14.39999491,1,0,0,rectangle,-19.39999324,14.39999491,1,0,0,-3,3,"[126,43,36,32,25,23,32,2,115,111]",-19.39999324,14.39999491,1,0,0,1,7,88,43,1,Pink,Pink.jpg,Purple,Purple.jpg,,
,,,,,,,,,,,,,,,,,,-3,,,,,,,,,,,,,,,,,,,,,,,,,,,,001,2021-12-16_23h09.17.040,jm_natural_scene_simialrity_2-12-2021_version2,2021.2.3,Win32,60.2373351,5e90a8363f920e3bda6b5068,61bbc5c79a1c66460f44041e,61bbc706e1fab6766dcc0e4d,,,,,,-77.79999411,43.19997092,1,0,0,response7disk,3.1165,-22.59999329,15.19997051,1,0,0,rectangle,-22.59999329,15.19997051,1,0,0,-3,1,"[126,43,36,32,25,23,32,2,115,111]",-22.59999329,15.19997051,1,0,0,1,8,89,47,1,DarkGreen,DarkGreen.jpg,Red,Red.jpg,,
,,,,,,,,,,,,,,,,,,-2,,,,,,,,,,,,,,,,,,,,,,,,,,,,001,2021-12-16_23h09.17.040,jm_natural_scene_simialrity_2-12-2021_version2,2021.2.3,Win32,60.2373351,5e90a8363f920e3bda6b5068,61bbc5c79a1c66460f44041e,61bbc706e1fab6766dcc0e4d,,,,,,-121.7999948,-68.80000633,1,0,0,response5disk,1.2162,6.200007141,6.399994791,1,0,0,rectangle,6.200007141,6.399994791,1,0,0,-3,-1,"[126,43,36,32,25,23,32,2,115,111]",6.200007141,6.399994791,1,0,0,1,9,90,26,1,DarkGreen,DarkGreen.jpg,LightBlue,LightBlue.jpg,,
,,,,,,,,,,,,,,,,,,2,,,,,,,,,,,,,,,,,,,,,,,,,,,,001,2021-12-16_23h09.17.040,jm_natural_scene_simialrity_2-12-2021_version2,2021.2.3,Win32,60.2373351,5e90a8363f920e3bda6b5068,61bbc5c79a1c66460f44041e,61bbc706e1fab6766dcc0e4d,,,,,,112.6000576,-86.40000659,1,0,0,response3disk,2.9665,11.00000721,-12.80002991,1,0,0,rectangle,11.00000721,-12.80002991,1,0,0,-3,2,"[126,43,36,32,25,23,32,2,115,111]",11.00000721,-12.80002991,1,0,0,1,10,91,38,1,LightBlue,LightBlue.jpg,Purple,Purple.jpg,,
,,,,,,,,,,,,,,,,,,-4,,,,,,,,,,,,,,,,,,,,,,,,,,,,001,2021-12-16_23h09.17.040,jm_natural_scene_simialrity_2-12-2021_version2,2021.2.3,Win32,60.2373351,5e90a8363f920e3bda6b5068,61bbc5c79a1c66460f44041e,61bbc706e1fab6766dcc0e4d,,,,,,-47.39999366,76.79999584,1,0,0,response7disk,2.2167,-8.999993086,16.79999495,1,0,0,rectangle,-8.999993086,16.79999495,1,0,0,-3,-2,"[126,43,36,32,25,23,32,2,115,111]",-8.999993086,16.79999495,1,0,0,1,11,92,76,1,Pink,Pink.jpg,LightBlue,LightBlue.jpg,,
,,,,,,,,,,,,,,,,,,-2,,,,,,,,,,,,,,,,,,,,,,,,,,,,001,2021-12-16_23h09.17.040,jm_natural_scene_simialrity_2-12-2021_version2,2021.2.3,Win32,60.2373351,5e90a8363f920e3bda6b5068,61bbc5c79a1c66460f44041e,61bbc706e1fab6766dcc0e4d,,,,,,-78.59999412,-46.40003041,1,0,0,response5disk,1.4168,-16.19999319,-16.00000554,1,0,0,rectangle,-16.19999319,-16.00000554,1,0,0,-3,2,"[126,43,36,32,25,23,32,2,115,111]",-16.19999319,-16.00000554,1,0,0,1,12,93,70,1,Purple,Purple.jpg,DarkGreen,DarkGreen.jpg,,
,,,,,,,,,,,,,,,,,,-4,,,,,,,,,,,,,,,,,,,,,,,,,,,,001,2021-12-16_23h09.17.040,jm_natural_scene_simialrity_2-12-2021_version2,2021.2.3,Win32,60.2373351,5e90a8363f920e3bda6b5068,61bbc5c79a1c66460f44041e,61bbc706e1fab6766dcc0e4d,,,,,,-47.39999366,115.9999964,1,0,0,response7disk,1.1999,10.2000072,-0.800029731,1,0,0,rectangle,10.2000072,-0.800029731,1,0,0,-3,1,"[126,43,36,32,25,23,32,2,115,111]",10.2000072,-0.800029731,1,0,0,1,13,94,4,1,Red,Red.jpg,Turquiose,Turquiose.jpg,,
,,,,,,,,,,,,,,,,,,-2,,,,,,,,,,,,,,,,,,,,,,,,,,,,001,2021-12-16_23h09.17.040,jm_natural_scene_simialrity_2-12-2021_version2,2021.2.3,Win32,60.2373351,5e90a8363f920e3bda6b5068,61bbc5c79a1c66460f44041e,61bbc706e1fab6766dcc0e4d,,,,,,-54.59999377,-38.40000588,1,0,0,response5disk,1.8334,-7.399993062,-15.20000553,1,0,0,rectangle,-7.399993062,-15.20000553,1,0,0,-3,1,"[126,43,36,32,25,23,32,2,115,111]",-7.399993062,-15.20000553,1,0,0,1,14,95,1,1,Red,Red.jpg,Yellow,Yellow.jpg,,
,,,,,,,,,,,,,,,,,,1,,,,,,,,,,,,,,,,,,,,,,,,,,,,001,2021-12-16_23h09.17.040,jm_natural_scene_simialrity_2-12-2021_version2,2021.2.3,Win32,60.2373351,5e90a8363f920e3bda6b5068,61bbc5c79a1c66460f44041e,61bbc706e1fab6766dcc0e4d,,,,,,27.80000746,-80.80000651,1,0,0,response3disk,2.4335,-4.999993026,1.599994719,1,0,0,rectangle,-4.999993026,1.599994719,1,0,0,-3,3,"[126,43,36,32,25,23,32,2,115,111]",-4.999993026,1.599994719,1,0,0,1,15,96,41,1,DarkBlue,DarkBlue.jpg,Purple,Purple.jpg,,
,,,,,,,,,,,,,,,,,,4,,,,,,,,,,,,,,,,,,,,,,,,,,,,001,2021-12-16_23h09.17.040,jm_natural_scene_simialrity_2-12-2021_version2,2021.2.3,Win32,60.2373351,5e90a8363f920e3bda6b5068,61bbc5c79a1c66460f44041e,61bbc706e1fab6766dcc0e4d,,,,,,51.00000781,81.59999591,1,0,0,response1disk,1.0001,11.80000722,-11.20000547,1,0,0,rectangle,11.80000722,-11.20000547,1,0,0,-3,-2,"[126,43,36,32,25,23,32,2,115,111]",11.80000722,-11.20000547,1,0,0,1,16,97,39,1,DarkBlue,DarkBlue.jpg,DarkBlue,DarkBlue.jpg,,
,,,,,,,,,,,,,,,,,,-3,,,,,,,,,,,,,,,,,,,,,,,,,,,,001,2021-12-16_23h09.17.040,jm_natural_scene_simialrity_2-12-2021_version2,2021.2.3,Win32,60.2373351,5e90a8363f920e3bda6b5068,61bbc5c79a1c66460f44041e,61bbc706e1fab6766dcc0e4d,,,,,,-60.99999386,35.99999523,1,0,0,response7disk,2.1503,-4.999993026,-3.200005352,1,0,0,rectangle,-4.999993026,-3.200005352,1,0,0,-3,-4,"[126,43,36,32,25,23,32,2,115,111]",-4.999993026,-3.200005352,1,0,0,1,17,98,53,1,LightGreen,LightGreen.jpg,Yellow,Yellow.jpg,,
,,,,,,,,,,,,,,,,,,-2,,,,,,,,,,,,,,,,,,,,,,,,,,,,001,2021-12-16_23h09.17.040,jm_natural_scene_simialrity_2-12-2021_version2,2021.2.3,Win32,60.2373351,5e90a8363f920e3bda6b5068,61bbc5c79a1c66460f44041e,61bbc706e1fab6766dcc0e4d,,,,,,-68.99999398,-37.60000587,1,0,0,response5disk,2.1833,-12.19999313,-4.80002979,1,0,0,rectangle,-12.19999313,-4.80002979,1,0,0,-3,-3,"[126,43,36,32,25,23,32,2,115,111]",-12.19999313,-4.80002979,1,0,0,1,18,99,74,1,Purple,Purple.jpg,Turquiose,Turquiose.jpg,,
,,,,,,,,,,,,,,,,,,-3,,,,,,,,,,,,,,,,,,,,,,,,,,,,001,2021-12-16_23h09.17.040,jm_natural_scene_simialrity_2-12-2021_version2,2021.2.3,Win32,60.2373351,5e90a8363f920e3bda6b5068,61bbc5c79a1c66460f44041e,61bbc706e1fab6766dcc0e4d,,,,,,-85.79999423,67.19997128,1,0,0,response7disk,3.1172,7.800007164,5.599994779,1,0,0,rectangle,7.800007164,5.599994779,1,0,0,-3,3,"[126,43,36,32,25,23,32,2,115,111]",7.800007164,5.599994779,1,0,0,1,19,100,49,1,LightBlue,LightBlue.jpg,Red,Red.jpg,,
,,,,,,,,,,,,,,,,,,-3,,,,,,,,,,,,,,,,,,,,,,,,,,,,001,2021-12-16_23h09.17.040,jm_natural_scene_simialrity_2-12-2021_version2,2021.2.3,Win32,60.2373351,5e90a8363f920e3bda6b5068,61bbc5c79a1c66460f44041e,61bbc706e1fab6766dcc0e4d,,,,,,-78.59999412,39.19997087,1,0,0,response7disk,7.6168,-12.19999313,7.199970388,1,0,0,rectangle,-12.19999313,7.199970388,1,0,0,-3,1,"[126,43,36,32,25,23,32,2,115,111]",-12.19999313,7.199970388,1,0,0,1,20,101,45,1,Yellow,Yellow.jpg,Red,Red.jpg,,
,,,,,,,,,,,,,,,,,,-3,,,,,,,,,,,,,,,,,,,,,,,,,,,,001,2021-12-16_23h09.17.040,jm_natural_scene_simialrity_2-12-2021_version2,2021.2.3,Win32,60.2373351,5e90a8363f920e3bda6b5068,61bbc5c79a1c66460f44041e,61bbc706e1fab6766dcc0e4d,,,,,,-44.99999362,35.19997081,1,0,0,response7disk,1.8664,-0.199992955,10.39999485,1,0,0,rectangle,-0.199992955,10.39999485,1,0,0,-3,2,"[126,43,36,32,25,23,32,2,115,111]",-0.199992955,10.39999485,1,0,0,1,21,102,56,1,LightBlue,LightBlue.jpg,Yellow,Yellow.jpg,,
,,,,,,,,,,,,,,,,,,4,,,,,,,,,,,,,,,,,,,,,,,,,,,,001,2021-12-16_23h09.17.040,jm_natural_scene_simialrity_2-12-2021_version2,2021.2.3,Win32,60.2373351,5e90a8363f920e3bda6b5068,61bbc5c79a1c66460f44041e,61bbc706e1fab6766dcc0e4d,,,,,,42.20000768,100.7999962,1,0,0,response1disk,0.9333,-6.59999305,11.19997045,1,0,0,rectangle,-6.59999305,11.19997045,1,0,0,-3,-1,"[126,43,36,32,25,23,32,2,115,111]",-6.59999305,11.19997045,1,0,0,1,22,103,42,1,Pink,Pink.jpg,Pink,Pink.jpg,,
,,,,,,,,,,,,,,,,,,-3,,,,,,,,,,,,,,,,,,,,,,,,,,,,001,2021-12-16_23h09.17.040,jm_natural_scene_simialrity_2-12-2021_version2,2021.2.3,Win32,60.2373351,5e90a8363f920e3bda6b5068,61bbc5c79a1c66460f44041e,61bbc706e1fab6766dcc0e4d,,,,,,-66.59999394,43.99999535,1,0,0,response7disk,1.7001,-21.79999328,19.99999499,1,0,0,rectangle,-21.79999328,19.99999499,1,0,0,-3,2,"[126,43,36,32,25,23,32,2,115,111]",-21.79999328,19.99999499,1,0,0,1,23,104,13,1,Yellow,Yellow.jpg,LightBlue,LightBlue.jpg,,
,,,,,,,,,,,,,,,,,,4,,,,,,,,,,,,,,,,,,,,,,,,,,,,001,2021-12-16_23h09.17.040,jm_natural_scene_simialrity_2-12-2021_version2,2021.2.3,Win32,60.2373351,5e90a8363f920e3bda6b5068,61bbc5c79a1c66460f44041e,61bbc706e1fab6766dcc0e4d,,,,,,49.40000778,103.1999718,1,0,0,response1disk,0.917,1.400007069,10.39999485,1,0,0,rectangle,1.400007069,10.39999485,1,0,0,-3,1,"[126,43,36,32,25,23,32,2,115,111]",1.400007069,10.39999485,1,0,0,1,24,105,35,1,LightBlue,LightBlue.jpg,LightBlue,LightBlue.jpg,,
,,,,,,,,,,,,,,,,,,2,,,,,,,,,,,,,,,,,,,,,,,,,,,,001,2021-12-16_23h09.17.040,jm_natural_scene_simialrity_2-12-2021_version2,2021.2.3,Win32,60.2373351,5e90a8363f920e3bda6b5068,61bbc5c79a1c66460f44041e,61bbc706e1fab6766dcc0e4d,,,,,,72.60005696,-35.20000583,1,0,0,response3disk,1.3834,20.60000736,-3.200005352,1,0,0,rectangle,20.60000736,-3.200005352,1,0,0,-3,-3,"[126,43,36,32,25,23,32,2,115,111]",20.60000736,-3.200005352,1,0,0,1,25,106,18,1,LightGreen,LightGreen.jpg,DarkGreen,DarkGreen.jpg,,
,,,,,,,,,,,,,,,,,,-1,,,,,,,,,,,,,,,,,,,,,,,,,,,,001,2021-12-16_23h09.17.040,jm_natural_scene_simialrity_2-12-2021_version2,2021.2.3,Win32,60.2373351,5e90a8363f920e3bda6b5068,61bbc5c79a1c66460f44041e,61bbc706e1fab6766dcc0e4d,,,,,,-28.99999338,-54.40000612,1,0,0,response5disk,1.5669,-1.799992979,-4.80002979,1,0,0,rectangle,-1.799992979,-4.80002979,1,0,0,-3,-4,"[126,43,36,32,25,23,32,2,115,111]",-1.799992979,-4.80002979,1,0,0,1,26,107,27,1,DarkGreen,DarkGreen.jpg,DarkBlue,DarkBlue.jpg,,
,,,,,,,,,,,,,,,,,,-3,,,,,,,,,,,,,,,,,,,,,,,,,,,,001,2021-12-16_23h09.17.040,jm_natural_scene_simialrity_2-12-2021_version2,2021.2.3,Win32,60.2373351,5e90a8363f920e3bda6b5068,61bbc5c79a1c66460f44041e,61bbc706e1fab6766dcc0e4d,,,,,,-62.59999388,27.19997069,1,0,0,response7disk,1.4001,7.800007164,2.399994731,1,0,0,rectangle,7.800007164,2.399994731,1,0,0,-3,-3,"[126,43,36,32,25,23,32,2,115,111]",7.800007164,2.399994731,1,0,0,1,27,108,57,1,DarkBlue,DarkBlue.jpg,Yellow,Yellow.jpg,,
,,,,,,,,,,,,,,,,,,-4,,,,,,,,,,,,,,,,,,,,,,,,,,,,001,2021-12-16_23h09.17.040,jm_natural_scene_simialrity_2-12-2021_version2,2021.2.3,Win32,60.2373351,5e90a8363f920e3bda6b5068,61bbc5c79a1c66460f44041e,61bbc706e1fab6766dcc0e4d,,,,,,-33.79999346,88.79999602,1,0,0,response7disk,1.417,15.80000728,-8.80002985,1,0,0,rectangle,15.80000728,-8.80002985,1,0,0,-3,-3,"[126,43,36,32,25,23,32,2,115,111]",15.80000728,-8.80002985,1,0,0,1,28,109,28,1,DarkGreen,DarkGreen.jpg,Pink,Pink.jpg,,
,,,,,,,,,,,,,,,,,,2,,,,,,,,,,,,,,,,,,,,,,,,,,,,001,2021-12-16_23h09.17.040,jm_natural_scene_simialrity_2-12-2021_version2,2021.2.3,Win32,60.2373351,5e90a8363f920e3bda6b5068,61bbc5c79a1c66460f44041e,61bbc706e1fab6766dcc0e4d,,,,,,68.6000569,-33.60000581,1,0,0,response3disk,3.0835,21.40000737,-7.200005412,1,0,0,rectangle,72.60005696,-41.60000592,1,0,0,2,2,"[126,43,36,32,25,23,32,2,115,111]",19.00000733,-14.40000552,1,0,0,1,29,110,51,1,Pink,Pink.jpg,Red,Red.jpg,response3disk_3,rectangle
,,,,,,,,,,,,,,,,,,1,,,,,,,,,,,,,,,,,,,,,,,,,,,,001,2021-12-16_23h09.17.040,jm_natural_scene_simialrity_2-12-2021_version2,2021.2.3,Win32,60.2373351,5e90a8363f920e3bda6b5068,61bbc5c79a1c66460f44041e,61bbc706e1fab6766dcc0e4d,,,,,,27.80000746,-98.40000677,1,0,0,response3disk,2.4,-0.199992955,-17.60000557,1,0,0,rectangle,-0.199992955,-17.60000557,1,0,0,2,-4,"[126,43,36,32,25,23,32,2,115,111]",-0.199992955,-17.60000557,1,0,0,1,30,111,80,1,Purple,Purple.jpg,Pink,Pink.jpg,,
,,,,,,,,,,,,,,,,,,1,,,,,,,,,,,,,,,,,,,,,,,,,,,,001,2021-12-16_23h09.17.040,jm_natural_scene_simialrity_2-12-2021_version2,2021.2.3,Win32,60.2373351,5e90a8363f920e3bda6b5068,61bbc5c79a1c66460f44041e,61bbc706e1fab6766dcc0e4d,,,,,,44.60005654,-88.00000662,1,0,0,response3disk,1.5665,-0.999992967,-14.40000552,1,0,0,rectangle,-0.999992967,-14.40000552,1,0,0,2,-1,"[126,43,36,32,25,23,32,2,115,111]",-0.999992967,-14.40000552,1,0,0,1,31,112,34,1,Turquiose,Turquiose.jpg,Purple,Purple.jpg,,
,,,,,,,,,,,,,,,,,,1,,,,,,,,,,,,,,,,,,,,,,,,,,,,001,2021-12-16_23h09.17.040,jm_natural_scene_simialrity_2-12-2021_version2,2021.2.3,Win32,60.2373351,5e90a8363f920e3bda6b5068,61bbc5c79a1c66460f44041e,61bbc706e1fab6766dcc0e4d,,,,,,39.00000763,-75.20000643,1,0,0,response3disk,2.1335,-2.59999299,19.19997057,1,0,0,rectangle,-2.59999299,19.19997057,1,0,0,2,-4,"[126,43,36,32,25,23,32,2,115,111]",-2.59999299,19.19997057,1,0,0,1,32,113,36,1,LightBlue,LightBlue.jpg,DarkBlue,DarkBlue.jpg,,
,,,,,,,,,,,,,,,,,,1,,,,,,,,,,,,,,,,,,,,,,,,,,,,001,2021-12-16_23h09.17.040,jm_natural_scene_simialrity_2-12-2021_version2,2021.2.3,Win32,60.2373351,5e90a8363f920e3bda6b5068,61bbc5c79a1c66460f44041e,61bbc706e1fab6766dcc0e4d,,,,,,46.20000774,-106.4000069,1,0,0,response3disk,1.5166,2.200007081,3.999994755,1,0,0,rectangle,-40.99999356,67.19997128,1,0,0,-4,-4,"[126,43,36,32,25,23,32,2,115,111]",-3.399993002,18.39999497,1,0,0,1,33,114,32,1,Turquiose,Turquiose.jpg,DarkBlue,DarkBlue.jpg,response7disk_3,rectangle
,,,,,,,,,,,,,,,,,,4,,,,,,,,,,,,,,,,,,,,,,,,,,,,001,2021-12-16_23h09.17.040,jm_natural_scene_simialrity_2-12-2021_version2,2021.2.3,Win32,60.2373351,5e90a8363f920e3bda6b5068,61bbc5c79a1c66460f44041e,61bbc706e1fab6766dcc0e4d,,,,,,27.80000746,51.99999547,1,0,0,response1disk,1.0165,-8.999993086,-8.000005424,1,0,0,rectangle,-8.999993086,-8.000005424,1,0,0,-4,-3,"[126,43,36,32,25,23,32,2,115,111]",-8.999993086,-8.000005424,1,0,0,1,34,115,9,1,Yellow,Yellow.jpg,Yellow,Yellow.jpg,,
,,,,,,,,,,,,,,,,,,-4,,,,,,,,,,,,,,,,,,,,,,,,,,,,001,2021-12-16_23h09.17.040,jm_natural_scene_simialrity_2-12-2021_version2,2021.2.3,Win32,60.2373351,5e90a8363f920e3bda6b5068,61bbc5c79a1c66460f44041e,61bbc706e1fab6766dcc0e4d,,,,,,-36.9999935,111.9999964,1,0,0,response7disk,1.2,-6.59999305,16.79999495,1,0,0,rectangle,-6.59999305,16.79999495,1,0,0,-4,-1,"[126,43,36,32,25,23,32,2,115,111]",-6.59999305,16.79999495,1,0,0,1,35,116,2,1,Red,Red.jpg,LightGreen,LightGreen.jpg,,
,,,,,,,,,,,,,,,,,,-4,,,,,,,,,,,,,,,,,,,,,,,,,,,,001,2021-12-16_23h09.17.040,jm_natural_scene_simialrity_2-12-2021_version2,2021.2.3,Win32,60.2373351,5e90a8363f920e3bda6b5068,61bbc5c79a1c66460f44041e,61bbc706e1fab6766dcc0e4d,,,,,,-29.7999934,59.99999559,1,0,0,response7disk,1.5001,-4.999993026,14.39999491,1,0,0,rectangle,-4.999993026,14.39999491,1,0,0,-4,-3,"[126,43,36,32,25,23,32,2,115,111]",-4.999993026,14.39999491,1,0,0,1,36,117,14,1,Yellow,Yellow.jpg,DarkBlue,DarkBlue.jpg,,
,,,,,,,,,,,,,,,,,,-4,,,,,,,,,,,,,,,,,,,,,,,,,,,,001,2021-12-16_23h09.17.040,jm_natural_scene_simialrity_2-12-2021_version2,2021.2.3,Win32,60.2373351,5e90a8363f920e3bda6b5068,61bbc5c79a1c66460f44041e,61bbc706e1fab6766dcc0e4d,,,,,,-24.19999331,86.39999598,1,0,0,response7disk,1.2334,3.000007093,1.599994719,1,0,0,rectangle,3.000007093,1.599994719,1,0,0,-4,-3,"[126,43,36,32,25,23,32,2,115,111]",3.000007093,1.599994719,1,0,0,1,37,118,78,1,Pink,Pink.jpg,DarkBlue,DarkBlue.jpg,,
,,,,,,,,,,,,,,,,,,-3,,,,,,,,,,,,,,,,,,,,,,,,,,,,001,2021-12-16_23h09.17.040,jm_natural_scene_simialrity_2-12-2021_version2,2021.2.3,Win32,60.2373351,5e90a8363f920e3bda6b5068,61bbc5c79a1c66460f44041e,61bbc706e1fab6766dcc0e4d,,,,,,-64.19996949,41.59999532,1,0,0,response7disk,1.5998,13.40000725,-8.000005424,1,0,0,rectangle,13.40000725,-8.000005424,1,0,0,-4,-2,"[126,43,36,32,25,23,32,2,115,111]",13.40000725,-8.000005424,1,0,0,1,38,119,68,1,DarkBlue,DarkBlue.jpg,DarkGreen,DarkGreen.jpg,,
,,,,,,,,,,,,,,,,,,-3,,,,,,,,,,,,,,,,,,,,,,,,,,,,001,2021-12-16_23h09.17.040,jm_natural_scene_simialrity_2-12-2021_version2,2021.2.3,Win32,60.2373351,5e90a8363f920e3bda6b5068,61bbc5c79a1c66460f44041e,61bbc706e1fab6766dcc0e4d,,,,,,-53.79999375,33.5999952,1,0,0,response7disk,1.1329,-20.99999326,15.99999493,1,0,0,rectangle,-20.99999326,15.99999493,1,0,0,-4,-1,"[126,43,36,32,25,23,32,2,115,111]",-20.99999326,15.99999493,1,0,0,1,39,120,22,1,LightGreen,LightGreen.jpg,Pink,Pink.jpg,,
,,,,,,,,,,,,,,,,,,-2,,,,,,,,,,,,,,,,,,,,,,,,,,,,001,2021-12-16_23h09.17.040,jm_natural_scene_simialrity_2-12-2021_version2,2021.2.3,Win32,60.2373351,5e90a8363f920e3bda6b5068,61bbc5c79a1c66460f44041e,61bbc706e1fab6766dcc0e4d,,,,,,-96.19996997,-85.60005541,1,0,0,response5disk,1.433,-13.79999316,-15.20000553,1,0,0,rectangle,-13.79999316,-15.20000553,1,0,0,-4,-2,"[126,43,36,32,25,23,32,2,115,111]",-13.79999316,-15.20000553,1,0,0,1,40,121,58,1,Pink,Pink.jpg,Yellow,Yellow.jpg,,
,,,,,,,,,,,,,,,,,,-3,,,,,,,,,,,,,,,,,,,,,,,,,,,,001,2021-12-16_23h09.17.040,jm_natural_scene_simialrity_2-12-2021_version2,2021.2.3,Win32,60.2373351,5e90a8363f920e3bda6b5068,61bbc5c79a1c66460f44041e,61bbc706e1fab6766dcc0e4d,,,,,,-76.19996967,46.39999539,1,0,0,response7disk,1.5001,1.400007069,4.799994767,1,0,0,rectangle,1.400007069,4.799994767,1,0,0,-4,2,"[126,43,36,32,25,23,32,2,115,111]",1.400007069,4.799994767,1,0,0,1,41,122,10,1,Yellow,Yellow.jpg,LightGreen,LightGreen.jpg,,
,,,,,,,,,,,,,,,,,,-2,,,,,,,,,,,,,,,,,,,,,,,,,,,,001,2021-12-16_23h09.17.040,jm_natural_scene_simialrity_2-12-2021_version2,2021.2.3,Win32,60.2373351,5e90a8363f920e3bda6b5068,61bbc5c79a1c66460f44041e,61bbc706e1fab6766dcc0e4d,,,,,,-112.1999702,-68.00000632,1,0,0,response5disk,5.4171,-3.399993002,7.199970388,1,0,0,rectangle,-3.399993002,7.199970388,1,0,0,-4,-1,"[126,43,36,32,25,23,32,2,115,111]",-3.399993002,7.199970388,1,0,0,1,42,123,67,1,LightBlue,LightBlue.jpg,DarkGreen,DarkGreen.jpg,,
,,,,,,,,,,,,,,,,,,-2,,,,,,,,,,,,,,,,,,,,,,,,,,,,001,2021-12-16_23h09.17.040,jm_natural_scene_simialrity_2-12-2021_version2,2021.2.3,Win32,60.2373351,5e90a8363f920e3bda6b5068,61bbc5c79a1c66460f44041e,61bbc706e1fab6766dcc0e4d,,,,,,-72.19996961,-38.40000588,1,0,0,response5disk,3.3163,-17.79999322,-9.600005448,1,0,0,rectangle,-17.79999322,-9.600005448,1,0,0,-4,3,"[126,43,36,32,25,23,32,2,115,111]",-17.79999322,-9.600005448,1,0,0,1,43,124,15,1,Yellow,Yellow.jpg,Pink,Pink.jpg,,
,,,,,,,,,,,,,,,,,,-2,,,,,,,,,,,,,,,,,,,,,,,,,,,,001,2021-12-16_23h09.17.040,jm_natural_scene_simialrity_2-12-2021_version2,2021.2.3,Win32,60.2373351,5e90a8363f920e3bda6b5068,61bbc5c79a1c66460f44041e,61bbc706e1fab6766dcc0e4d,,,,,,-51.39999372,-38.40000588,1,0,0,response5disk,2.7334,-6.59999305,-16.00000554,1,0,0,rectangle,-74.59999406,-34.40000582,1,0,0,-4,-2,"[126,43,36,32,25,23,32,2,115,111]",-8.199993074,-12.00000548,1,0,0,1,44,125,25,1,DarkGreen,DarkGreen.jpg,Turquiose,Turquiose.jpg,response5disk_3,rectangle
,,,,,,,,,,,,,,,,,,-2,,,,,,,,,,,,,,,,,,,,,,,,,,,,001,2021-12-16_23h09.17.040,jm_natural_scene_simialrity_2-12-2021_version2,2021.2.3,Win32,60.2373351,5e90a8363f920e3bda6b5068,61bbc5c79a1c66460f44041e,61bbc706e1fab6766dcc0e4d,,,,,,-55.39999378,-27.20000571,1,0,0,response5disk,1.683,-9.799993098,-14.40000552,1,0,0,rectangle,-9.799993098,-14.40000552,1,0,0,-4,-4,"[126,43,36,32,25,23,32,2,115,111]",-9.799993098,-14.40000552,1,0,0,1,45,126,66,1,Turquiose,Turquiose.jpg,DarkGreen,DarkGreen.jpg,,
,,,,,,,,,,,,,,,,,,-1,,,,,,,,,,,,,,,,,,,,,,,,,,,,001,2021-12-16_23h09.17.040,jm_natural_scene_simialrity_2-12-2021_version2,2021.2.3,Win32,60.2373351,5e90a8363f920e3bda6b5068,61bbc5c79a1c66460f44041e,61bbc706e1fab6766dcc0e4d,,,,,,-33.79999346,-73.60005523,1,0,0,response5disk,2.7157,11.00000721,-0.800029731,1,0,0,rectangle,11.00000721,-0.800029731,1,0,0,-4,1,"[126,43,36,32,25,23,32,2,115,111]",11.00000721,-0.800029731,1,0,0,1,46,127,31,1,Turquiose,Turquiose.jpg,LightBlue,LightBlue.jpg,,
,,,,,,,,,,,,,,,,,,-2,,,,,,,,,,,,,,,,,,,,,,,,,,,,001,2021-12-16_23h09.17.040,jm_natural_scene_simialrity_2-12-2021_version2,2021.2.3,Win32,60.2373351,5e90a8363f920e3bda6b5068,61bbc5c79a1c66460f44041e,61bbc706e1fab6766dcc0e4d,,,,,,-68.99999398,-27.20000571,1,0,0,response5disk,2.8,15.00000727,7.199970388,1,0,0,rectangle,15.00000727,7.199970388,1,0,0,-4,-4,"[126,43,36,32,25,23,32,2,115,111]",15.00000727,7.199970388,1,0,0,1,47,128,37,1,LightBlue,LightBlue.jpg,Pink,Pink.jpg,,
,,,,,,,,,,,,,,,,,,-3,,,,,,,,,,,,,,,,,,,,,,,,,,,,001,2021-12-16_23h09.17.040,jm_natural_scene_simialrity_2-12-2021_version2,2021.2.3,Win32,60.2373351,5e90a8363f920e3bda6b5068,61bbc5c79a1c66460f44041e,61bbc706e1fab6766dcc0e4d,,,,,,-57.79999381,26.39999509,1,0,0,response7disk,1.2667,-11.39999312,15.19997051,1,0,0,rectangle,-11.39999312,15.19997051,1,0,0,-4,-3,"[126,43,36,32,25,23,32,2,115,111]",-11.39999312,15.19997051,1,0,0,1,48,129,64,1,Pink,Pink.jpg,LightGreen,LightGreen.jpg,,
,,,,,,,,,,,,,,,,,,-3,,,,,,,,,,,,,,,,,,,,,,,,,,,,001,2021-12-16_23h09.17.040,jm_natural_scene_simialrity_2-12-2021_version2,2021.2.3,Win32,60.2373351,5e90a8363f920e3bda6b5068,61bbc5c79a1c66460f44041e,61bbc706e1fab6766dcc0e4d,,,,,,-58.59999382,32.79999518,1,0,0,response7disk,1.1831,-0.199992955,12.79999489,1,0,0,rectangle,-0.199992955,12.79999489,1,0,0,-4,-3,"[126,43,36,32,25,23,32,2,115,111]",-0.199992955,12.79999489,1,0,0,1,49,130,46,1,LightGreen,LightGreen.jpg,Red,Red.jpg,,
,,,,,,,,,,,,,,,,,,4,,,,,,,,,,,,,,,,,,,,,,,,,,,,001,2021-12-16_23h09.17.040,jm_natural_scene_simialrity_2-12-2021_version2,2021.2.3,Win32,60.2373351,5e90a8363f920e3bda6b5068,61bbc5c79a1c66460f44041e,61bbc706e1fab6766dcc0e4d,,,,,,43.00000769,70.39999574,1,0,0,response1disk,1.467,-1.799992979,-5.30481E-06,1,0,0,rectangle,-1.799992979,-5.30481E-06,1,0,0,-4,-1,"[126,43,36,32,25,23,32,2,115,111]",-1.799992979,-5.30481E-06,1,0,0,1,50,131,30,1,Turquiose,Turquiose.jpg,Turquiose,Turquiose.jpg,,
,,,,,,,,,,,,,,,,,,4,,,,,,,,,,,,,,,,,,,,,,,,,,,,001,2021-12-16_23h09.17.040,jm_natural_scene_simialrity_2-12-2021_version2,2021.2.3,Win32,60.2373351,5e90a8363f920e3bda6b5068,61bbc5c79a1c66460f44041e,61bbc706e1fab6766dcc0e4d,,,,,,70.20000809,125.5999966,1,0,0,response1disk,1.1165,3.000007093,19.19997057,1,0,0,rectangle,3.000007093,19.19997057,1,0,0,-4,-4,"[126,43,36,32,25,23,32,2,115,111]",3.000007093,19.19997057,1,0,0,1,51,132,24,1,DarkGreen,DarkGreen.jpg,DarkGreen,DarkGreen.jpg,,
,,,,,,,,,,,,,,,,,,1,,,,,,,,,,,,,,,,,,,,,,,,,,,,001,2021-12-16_23h09.17.040,jm_natural_scene_simialrity_2-12-2021_version2,2021.2.3,Win32,60.2373351,5e90a8363f920e3bda6b5068,61bbc5c79a1c66460f44041e,61bbc706e1fab6766dcc0e4d,,,,,,32.60000753,-89.60005547,1,0,0,response3disk,2.7163,12.60000724,-12.00000548,1,0,0,rectangle,12.60000724,-12.00000548,1,0,0,-4,-2,"[126,43,36,32,25,23,32,2,115,111]",12.60000724,-12.00000548,1,0,0,1,52,133,79,1,Purple,Purple.jpg,DarkBlue,DarkBlue.jpg,,
,,,,,,,,,,,,,,,,,,-4,,,,,,,,,,,,,,,,,,,,,,,,,,,,001,2021-12-16_23h09.17.040,jm_natural_scene_simialrity_2-12-2021_version2,2021.2.3,Win32,60.2373351,5e90a8363f920e3bda6b5068,61bbc5c79a1c66460f44041e,61bbc706e1fab6766dcc0e4d,,,,,,-77.79999411,98.39999616,1,0,0,response7disk,1.5669,-3.399993002,-0.800029731,1,0,0,rectangle,-3.399993002,-0.800029731,1,0,0,-4,-2,"[126,43,36,32,25,23,32,2,115,111]",-3.399993002,-0.800029731,1,0,0,1,53,134,54,1,DarkGreen,DarkGreen.jpg,Yellow,Yellow.jpg,,
,,,,,,,,,,,,,,,,,,-4,,,,,,,,,,,,,,,,,,,,,,,,,,,,001,2021-12-16_23h09.17.040,jm_natural_scene_simialrity_2-12-2021_version2,2021.2.3,Win32,60.2373351,5e90a8363f920e3bda6b5068,61bbc5c79a1c66460f44041e,61bbc706e1fab6766dcc0e4d,,,,,,-17.79999322,43.19997092,1,0,0,response7disk,1.1667,-4.999993026,11.99999487,1,0,0,rectangle,-4.999993026,11.99999487,1,0,0,-4,-2,"[126,43,36,32,25,23,32,2,115,111]",-4.999993026,11.99999487,1,0,0,1,54,135,3,1,Red,Red.jpg,DarkGreen,DarkGreen.jpg,,
,,,,,,,,,,,,,,,,,,-4,,,,,,,,,,,,,,,,,,,,,,,,,,,,001,2021-12-16_23h09.17.040,jm_natural_scene_simialrity_2-12-2021_version2,2021.2.3,Win32,60.2373351,5e90a8363f920e3bda6b5068,61bbc5c79a1c66460f44041e,61bbc706e1fab6766dcc0e4d,,,,,,-22.59999329,63.19997122,1,0,0,response7disk,1.1162,12.60000724,-14.40000552,1,0,0,rectangle,12.60000724,-14.40000552,1,0,0,-4,-3,"[126,43,36,32,25,23,32,2,115,111]",12.60000724,-14.40000552,1,0,0,1,55,136,73,1,Pink,Pink.jpg,Turquiose,Turquiose.jpg,,
,,,,,,,,,,,,,,,,,,-1,,,,,,,,,,,,,,,,,,,,,,,,,,,,001,2021-12-16_23h09.17.040,jm_natural_scene_simialrity_2-12-2021_version2,2021.2.3,Win32,60.2373351,5e90a8363f920e3bda6b5068,61bbc5c79a1c66460f44041e,61bbc706e1fab6766dcc0e4d,,,,,,-31.39999342,-65.60005511,1,0,0,response5disk,3.3835,-0.999992967,-5.600005388,1,0,0,rectangle,-0.999992967,-5.600005388,1,0,0,-4,-3,"[126,43,36,32,25,23,32,2,115,111]",-0.999992967,-5.600005388,1,0,0,1,56,137,29,1,DarkGreen,DarkGreen.jpg,Purple,Purple.jpg,,
,,,,,,,,,,,,,,,,,,-4,,,,,,,,,,,,,,,,,,,,,,,,,,,,001,2021-12-16_23h09.17.040,jm_natural_scene_simialrity_2-12-2021_version2,2021.2.3,Win32,60.2373351,5e90a8363f920e3bda6b5068,61bbc5c79a1c66460f44041e,61bbc706e1fab6766dcc0e4d,,,,,,-44.19999361,99.99999619,1,0,0,response7disk,1.1998,-6.59999305,-5.30481E-06,1,0,0,rectangle,-6.59999305,-5.30481E-06,1,0,0,-4,-1,"[126,43,36,32,25,23,32,2,115,111]",-6.59999305,-5.30481E-06,1,0,0,1,57,138,69,1,Pink,Pink.jpg,DarkGreen,DarkGreen.jpg,,
,,,,,,,,,,,,,,,,,,4,,,,,,,,,,,,,,,,,,,,,,,,,,,,001,2021-12-16_23h09.17.040,jm_natural_scene_simialrity_2-12-2021_version2,2021.2.3,Win32,60.2373351,5e90a8363f920e3bda6b5068,61bbc5c79a1c66460f44041e,61bbc706e1fab6766dcc0e4d,,,,,,32.60000753,61.59999561,1,0,0,response1disk,0.9327,5.400007129,5.599994779,1,0,0,rectangle,5.400007129,5.599994779,1,0,0,-4,-3,"[126,43,36,32,25,23,32,2,115,111]",5.400007129,5.599994779,1,0,0,1,58,139,17,1,LightGreen,LightGreen.jpg,LightGreen,LightGreen.jpg,,
,,,,,,,,,,,,,,,,,,-3,,,,,,,,,,,,,,,,,,,,,,,,,,,,001,2021-12-16_23h09.17.040,jm_natural_scene_simialrity_2-12-2021_version2,2021.2.3,Win32,60.2373351,5e90a8363f920e3bda6b5068,61bbc5c79a1c66460f44041e,61bbc706e1fab6766dcc0e4d,,,,,,-68.19996955,44.79999536,1,0,0,response7disk,2.0337,11.00000721,-12.80002991,1,0,0,rectangle,11.00000721,-12.80002991,1,0,0,-4,1,"[126,43,36,32,25,23,32,2,115,111]",11.00000721,-12.80002991,1,0,0,1,59,140,59,1,Purple,Purple.jpg,Yellow,Yellow.jpg,,
,,,,,,,,,,,,,,,,,,-2,,,,,,,,,,,,,,,,,,,,,,,,,,,,001,2021-12-16_23h09.17.040,jm_natural_scene_simialrity_2-12-2021_version2,2021.2.3,Win32,60.2373351,5e90a8363f920e3bda6b5068,61bbc5c79a1c66460f44041e,61bbc706e1fab6766dcc0e4d,,,,,,-106.5999945,-35.20000583,1,0,0,response5disk,2.1667,-3.399993002,3.999994755,1,0,0,rectangle,-3.399993002,3.999994755,1,0,0,-4,3,"[126,43,36,32,25,23,32,2,115,111]",-3.399993002,3.999994755,1,0,0,1,60,141,65,1,Purple,Purple.jpg,LightGreen,LightGreen.jpg,,
,,,,,,,,,,,,,,,,,,-3,,,,,,,,,,,,,,,,,,,,,,,,,,,,001,2021-12-16_23h09.17.040,jm_natural_scene_simialrity_2-12-2021_version2,2021.2.3,Win32,60.2373351,5e90a8363f920e3bda6b5068,61bbc5c79a1c66460f44041e,61bbc706e1fab6766dcc0e4d,,,,,,-83.39999419,51.19997104,1,0,0,response7disk,3.0995,-2.59999299,8.799994826,1,0,0,rectangle,-2.59999299,8.799994826,1,0,0,-4,1,"[126,43,36,32,25,23,32,2,115,111]",-2.59999299,8.799994826,1,0,0,1,61,142,48,1,Turquiose,Turquiose.jpg,Red,Red.jpg,,
,,,,,,,,,,,,,,,,,,-2,,,,,,,,,,,,,,,,,,,,,,,,,,,,001,2021-12-16_23h09.17.040,jm_natural_scene_simialrity_2-12-2021_version2,2021.2.3,Win32,60.2373351,5e90a8363f920e3bda6b5068,61bbc5c79a1c66460f44041e,61bbc706e1fab6766dcc0e4d,,,,,,-64.99999392,-53.60005493,1,0,0,response5disk,2.2334,3.000007093,2.399994731,1,0,0,rectangle,3.000007093,2.399994731,1,0,0,-4,-1,"[126,43,36,32,25,23,32,2,115,111]",3.000007093,2.399994731,1,0,0,1,62,143,71,1,LightBlue,LightBlue.jpg,Turquiose,Turquiose.jpg,,
,,,,,,,,,,,,,,,,,,-2,,,,,,,,,,,,,,,,,,,,,,,,,,,,001,2021-12-16_23h09.17.040,jm_natural_scene_simialrity_2-12-2021_version2,2021.2.3,Win32,60.2373351,5e90a8363f920e3bda6b5068,61bbc5c79a1c66460f44041e,61bbc706e1fab6766dcc0e4d,,,,,,-66.59999394,-38.40000588,1,0,0,response5disk,2.3002,-15.39999318,-11.20000547,1,0,0,rectangle,-15.39999318,-11.20000547,1,0,0,-4,3,"[126,43,36,32,25,23,32,2,115,111]",-15.39999318,-11.20000547,1,0,0,1,63,144,72,1,DarkBlue,DarkBlue.jpg,Turquiose,Turquiose.jpg,,
,,,,,,,,,,,,,,,,,,-3,,,,,,,,,,,,,,,,,,,,,,,,,,,,001,2021-12-16_23h09.17.040,jm_natural_scene_simialrity_2-12-2021_version2,2021.2.3,Win32,60.2373351,5e90a8363f920e3bda6b5068,61bbc5c79a1c66460f44041e,61bbc706e1fab6766dcc0e4d,,,,,,-49.79999369,35.19997081,1,0,0,response7disk,1.3333,-3.399993002,12.79999489,1,0,0,rectangle,-3.399993002,12.79999489,1,0,0,-4,-2,"[126,43,36,32,25,23,32,2,115,111]",-3.399993002,12.79999489,1,0,0,1,64,145,11,1,Yellow,Yellow.jpg,DarkGreen,DarkGreen.jpg,,
,,,,,,,,,,,,,,,,,,-3,,,,,,,,,,,,,,,,,,,,,,,,,,,,001,2021-12-16_23h09.17.040,jm_natural_scene_simialrity_2-12-2021_version2,2021.2.3,Win32,60.2373351,5e90a8363f920e3bda6b5068,61bbc5c79a1c66460f44041e,61bbc706e1fab6766dcc0e4d,,,,,,-46.59999365,39.19997087,1,0,0,response7disk,4.2641,-7.399993062,16.79999495,1,0,0,rectangle,-7.399993062,16.79999495,1,0,0,-4,-2,"[126,43,36,32,25,23,32,2,115,111]",-7.399993062,16.79999495,1,0,0,1,65,146,6,1,Red,Red.jpg,DarkBlue,DarkBlue.jpg,,
,,,,,,,,,,,,,,,,,,-3,,,,,,,,,,,,,,,,,,,,,,,,,,,,001,2021-12-16_23h09.17.040,jm_natural_scene_simialrity_2-12-2021_version2,2021.2.3,Win32,60.2373351,5e90a8363f920e3bda6b5068,61bbc5c79a1c66460f44041e,61bbc706e1fab6766dcc0e4d,,,,,,-59.39999384,40.7999953,1,0,0,response7disk,1.2499,15.00000727,-1.600005329,1,0,0,rectangle,15.00000727,-1.600005329,1,0,0,-4,-3,"[126,43,36,32,25,23,32,2,115,111]",15.00000727,-1.600005329,1,0,0,1,66,147,33,1,Turquiose,Turquiose.jpg,Pink,Pink.jpg,,
,,,,,,,,,,,,,,,,,,-1,,,,,,,,,,,,,,,,,,,,,,,,,,,,001,2021-12-16_23h09.17.040,jm_natural_scene_simialrity_2-12-2021_version2,2021.2.3,Win32,60.2373351,5e90a8363f920e3bda6b5068,61bbc5c79a1c66460f44041e,61bbc706e1fab6766dcc0e4d,,,,,,-20.19999325,-66.40000629,1,0,0,response5disk,1.4331,2.200007081,-9.600005448,1,0,0,rectangle,2.200007081,-9.600005448,1,0,0,-4,-1,"[126,43,36,32,25,23,32,2,115,111]",2.200007081,-9.600005448,1,0,0,1,67,148,77,1,Purple,Purple.jpg,LightBlue,LightBlue.jpg,,
,,,,,,,,,,,,,,,,,,4,,,,,,,,,,,,,,,,,,,,,,,,,,,,001,2021-12-16_23h09.17.040,jm_natural_scene_simialrity_2-12-2021_version2,2021.2.3,Win32,60.2373351,5e90a8363f920e3bda6b5068,61bbc5c79a1c66460f44041e,61bbc706e1fab6766dcc0e4d,,,,,,24.60000741,48.79999542,1,0,0,response1disk,0.9835,-0.199992955,-4.000005364,1,0,0,rectangle,-0.199992955,-4.000005364,1,0,0,-4,-3,"[126,43,36,32,25,23,32,2,115,111]",-0.199992955,-4.000005364,1,0,0,1,68,149,0,1,Red,Red.jpg,Red,Red.jpg,,
,,,,,,,,,,,,,,,,,,-3,,,,,,,,,,,,,,,,,,,,,,,,,,,,001,2021-12-16_23h09.17.040,jm_natural_scene_simialrity_2-12-2021_version2,2021.2.3,Win32,60.2373351,5e90a8363f920e3bda6b5068,61bbc5c79a1c66460f44041e,61bbc706e1fab6766dcc0e4d,,,,,,-68.99999398,30.39999515,1,0,0,response7disk,2.0333,-8.999993086,17.59999496,1,0,0,rectangle,-8.999993086,17.59999496,1,0,0,-4,1,"[126,43,36,32,25,23,32,2,115,111]",-8.999993086,17.59999496,1,0,0,1,69,150,50,1,DarkBlue,DarkBlue.jpg,Red,Red.jpg,,
,,,,,,,,,,,,,,,,,,-3,,,,,,,,,,,,,,,,,,,,,,,,,,,,001,2021-12-16_23h09.17.040,jm_natural_scene_simialrity_2-12-2021_version2,2021.2.3,Win32,60.2373351,5e90a8363f920e3bda6b5068,61bbc5c79a1c66460f44041e,61bbc706e1fab6766dcc0e4d,,,,,,-49.79999369,36.79999524,1,0,0,response7disk,1.2496,-8.199993074,19.19997057,1,0,0,rectangle,-8.199993074,19.19997057,1,0,0,-4,-4,"[126,43,36,32,25,23,32,2,115,111]",-8.199993074,19.19997057,1,0,0,1,70,151,52,1,Purple,Purple.jpg,Red,Red.jpg,,
,,,,,,,,,,,,,,,,,,-3,,,,,,,,,,,,,,,,,,,,,,,,,,,,001,2021-12-16_23h09.17.040,jm_natural_scene_simialrity_2-12-2021_version2,2021.2.3,Win32,60.2373351,5e90a8363f920e3bda6b5068,61bbc5c79a1c66460f44041e,61bbc706e1fab6766dcc0e4d,,,,,,-60.99999386,34.39999521,1,0,0,response7disk,1.3508,2.200007081,13.5999949,1,0,0,rectangle,2.200007081,13.5999949,1,0,0,-4,2,"[126,43,36,32,25,23,32,2,115,111]",2.200007081,13.5999949,1,0,0,1,71,152,40,1,DarkBlue,DarkBlue.jpg,Pink,Pink.jpg,,
,,,,,,,,,,,,,,,,,,-2,,,,,,,,,,,,,,,,,,,,,,,,,,,,001,2021-12-16_23h09.17.040,jm_natural_scene_simialrity_2-12-2021_version2,2021.2.3,Win32,60.2373351,5e90a8363f920e3bda6b5068,61bbc5c79a1c66460f44041e,61bbc706e1fab6766dcc0e4d,,,,,,-71.39999402,-27.20000571,1,0,0,response5disk,1.8999,-16.99999321,1.599994719,1,0,0,rectangle,-16.99999321,1.599994719,1,0,0,-4,1,"[126,43,36,32,25,23,32,2,115,111]",-16.99999321,1.599994719,1,0,0,1,72,153,61,1,Turquiose,Turquiose.jpg,LightGreen,LightGreen.jpg,,
,,,,,,,,,,,,,,,,,,-2,,,,,,,,,,,,,,,,,,,,,,,,,,,,001,2021-12-16_23h09.17.040,jm_natural_scene_simialrity_2-12-2021_version2,2021.2.3,Win32,60.2373351,5e90a8363f920e3bda6b5068,61bbc5c79a1c66460f44041e,61bbc706e1fab6766dcc0e4d,,,,,,-58.59999382,-33.60000581,1,0,0,response5disk,1.3334,-12.99999315,-8.000005424,1,0,0,rectangle,-12.99999315,-8.000005424,1,0,0,-4,1,"[126,43,36,32,25,23,32,2,115,111]",-12.99999315,-8.000005424,1,0,0,1,73,154,62,1,LightBlue,LightBlue.jpg,LightGreen,LightGreen.jpg,,
,,,,,,,,,,,,,,,,,,-2,,,,,,,,,,,,,,,,,,,,,,,,,,,,001,2021-12-16_23h09.17.040,jm_natural_scene_simialrity_2-12-2021_version2,2021.2.3,Win32,60.2373351,5e90a8363f920e3bda6b5068,61bbc5c79a1c66460f44041e,61bbc706e1fab6766dcc0e4d,,,,,,-66.59999394,-40.80003033,1,0,0,response5disk,1.0834,-20.19999325,-12.00000548,1,0,0,rectangle,-20.19999325,-12.00000548,1,0,0,-4,3,"[126,43,36,32,25,23,32,2,115,111]",-20.19999325,-12.00000548,1,0,0,1,74,155,63,1,DarkBlue,DarkBlue.jpg,LightGreen,LightGreen.jpg,,
,,,,,,,,,,,,,,,,,,-3,,,,,,,,,,,,,,,,,,,,,,,,,,,,001,2021-12-16_23h09.17.040,jm_natural_scene_simialrity_2-12-2021_version2,2021.2.3,Win32,60.2373351,5e90a8363f920e3bda6b5068,61bbc5c79a1c66460f44041e,61bbc706e1fab6766dcc0e4d,,,,,,-68.99999398,47.19997098,1,0,0,response7disk,4.1166,-13.79999316,13.5999949,1,0,0,rectangle,-13.79999316,13.5999949,1,0,0,-4,1,"[126,43,36,32,25,23,32,2,115,111]",-13.79999316,13.5999949,1,0,0,1,75,156,8,1,Red,Red.jpg,Purple,Purple.jpg,,
,,,,,,,,,,,,,,,,,,-2,,,,,,,,,,,,,,,,,,,,,,,,,,,,001,2021-12-16_23h09.17.040,jm_natural_scene_simialrity_2-12-2021_version2,2021.2.3,Win32,60.2373351,5e90a8363f920e3bda6b5068,61bbc5c79a1c66460f44041e,61bbc706e1fab6766dcc0e4d,,,,,,-68.19996955,-24.80003009,1,0,0,response5disk,1.3669,15.80000728,16.79999495,1,0,0,rectangle,15.80000728,16.79999495,1,0,0,-4,-2,"[126,43,36,32,25,23,32,2,115,111]",15.80000728,16.79999495,1,0,0,1,76,157,23,1,LightGreen,LightGreen.jpg,Purple,Purple.jpg,,
,,,,,,,,,,,,,,,,,,-1,,,,,,,,,,,,,,,,,,,,,,,,,,,,001,2021-12-16_23h09.17.040,jm_natural_scene_simialrity_2-12-2021_version2,2021.2.3,Win32,60.2373351,5e90a8363f920e3bda6b5068,61bbc5c79a1c66460f44041e,61bbc706e1fab6766dcc0e4d,,,,,,-40.99999356,-56.80000615,1,0,0,response5disk,2.4332,-7.399993062,-5.600005388,1,0,0,rectangle,-7.399993062,-5.600005388,1,0,0,-4,-1,"[126,43,36,32,25,23,32,2,115,111]",-7.399993062,-5.600005388,1,0,0,1,77,158,75,1,DarkBlue,DarkBlue.jpg,LightBlue,LightBlue.jpg,,
,,,,,,,,,,,,,,,,,,1,,,,,,,,,,,,,,,,,,,,,,,,,,,,001,2021-12-16_23h09.17.040,jm_natural_scene_simialrity_2-12-2021_version2,2021.2.3,Win32,60.2373351,5e90a8363f920e3bda6b5068,61bbc5c79a1c66460f44041e,61bbc706e1fab6766dcc0e4d,,,,,,48.6000566,-80.0000065,1,0,0,response3disk,1.6669,5.400007129,4.799994767,1,0,0,rectangle,5.400007129,4.799994767,1,0,0,-4,-3,"[126,43,36,32,25,23,32,2,115,111]",5.400007129,4.799994767,1,0,0,1,78,159,60,1,DarkGreen,DarkGreen.jpg,LightGreen,LightGreen.jpg,,
,,,,,,,,,,,,,,,,,,1,,,,,,,,,,,,,,,,,,,,,,,,,,,,001,2021-12-16_23h09.17.040,jm_natural_scene_simialrity_2-12-2021_version2,2021.2.3,Win32,60.2373351,5e90a8363f920e3bda6b5068,61bbc5c79a1c66460f44041e,61bbc706e1fab6766dcc0e4d,,,,,,30.2000075,-52.00000608,1,0,0,response3disk,1.8668,0.600007057,4.799994767,1,0,0,rectangle,0.600007057,4.799994767,1,0,0,-4,1,"[126,43,36,32,25,23,32,2,115,111]",0.600007057,4.799994767,1,0,0,1,79,160,7,1,Red,Red.jpg,Pink,Pink.jpg,,
,,,,,,,,,,,,,,,,,,-3,,,,,,,,,,,,,,,,,,,,,,,,,,,,001,2021-12-16_23h09.17.040,jm_natural_scene_simialrity_2-12-2021_version2,2021.2.3,Win32,60.2373351,5e90a8363f920e3bda6b5068,61bbc5c79a1c66460f44041e,61bbc706e1fab6766dcc0e4d,,,,,,-45.79999363,31.99999517,1,0,0,response7disk,1.2668,7.000007153,-4.000005364,1,0,0,rectangle,7.000007153,-4.000005364,1,0,0,-4,1,"[126,43,36,32,25,23,32,2,115,111]",7.000007153,-4.000005364,1,0,0,1,80,161,16,1,Yellow,Yellow.jpg,Purple,Purple.jpg,,
