key_resp.keys,key_resp.rt,key_resp_16.keys,key_resp_16.rt,key_resp_2.keys,key_resp_2.rt,key_resp_3.keys,key_resp_3.rt,key_resp_19.keys,key_resp_19.rt,key_resp_10.keys,key_resp_10.rt,mouse_prac.x,mouse_prac.y,mouse_prac.leftButton,mouse_prac.midButton,mouse_prac.rightButton,mouse_prac.clicked_name,similarity,mouse_10.x,mouse_10.y,mouse_10.leftButton,mouse_10.midButton,mouse_10.rightButton,mouse_10.clicked_name,mouse_catch_prac.x,mouse_catch_prac.y,mouse_catch_prac.leftButton,mouse_catch_prac.midButton,mouse_catch_prac.rightButton,catchnumberprac,mouse_6.x,mouse_6.y,mouse_6.leftButton,mouse_6.midButton,mouse_6.rightButton,during_prac.thisRepN,during_prac.thisTrialN,during_prac.thisN,during_prac.thisIndex,during_prac.ran,trailimage1,trial1adress,trailimage2,trial2adress,participant,session,date,expName,psychopyVersion,OS,frameRate,PROLIFIC_PID,STUDY_ID,SESSION_ID,mouse_catch_prac.clicked_name,catchprac,mouse_6.clicked_name,key_resp_22.keys,key_resp_22.rt,mouse.x,mouse.y,mouse.leftButton,mouse.midButton,mouse.rightButton,mouse.clicked_name,response_time,mouse_2.x,mouse_2.y,mouse_2.leftButton,mouse_2.midButton,mouse_2.rightButton,mouse_2.clicked_name,mouse_3.x,mouse_3.y,mouse_3.leftButton,mouse_3.midButton,mouse_3.rightButton,catchresponse,catchnumber,catchtrialorder,mouse_11.x,mouse_11.y,mouse_11.leftButton,mouse_11.midButton,mouse_11.rightButton,trials_2.thisRepN,trials_2.thisTrialN,trials_2.thisN,trials_2.thisIndex,trials_2.ran,image1,image1adress,image2,image2adress,mouse_3.clicked_name,mouse_11.clicked_name
space,3.705,space,21.4604,space,3.7745,space,5.6908,space,15.3814,space,3.8996,92,-57,1,0,0,response3disk_5,2,-5,-5,1,0,0,rectangle_8,-5,-5,1,0,0,-1,-5,-5,1,0,0,0,0,0,0,1,trail1,trail1.jpg,trail1,trail1.jpg,,001,2021-12-16_23h13.32.115,jm_natural_scene_simialrity_2-12-2021_version2,2021.2.3,Win32,59.99880002,5d131f87906ece001a15fb92,61bbc5c79a1c66460f44041e,61bbc64b3aed3d2d6f395b45,,,,,,,,,,,,,,,,,,,,,,,,,,,,,,,,,,,,,,,,,,
,,,,,,,,,,,,-102,66,1,0,0,response7disk_5,-3,-6,-18,1,0,0,rectangle_8,-6,-18,1,0,0,-1,-6,-18,1,0,0,0,1,1,2,1,trail1,trail1.jpg,trail3,trail3.jpg,,001,2021-12-16_23h13.32.115,jm_natural_scene_simialrity_2-12-2021_version2,2021.2.3,Win32,59.99880002,5d131f87906ece001a15fb92,61bbc5c79a1c66460f44041e,61bbc64b3aed3d2d6f395b45,,,,,,,,,,,,,,,,,,,,,,,,,,,,,,,,,,,,,,,,,,
,,,,,,,,,,,,33,99,1,0,0,response1disk_5,4,-3,8,1,0,0,rectangle_8,-3,8,1,0,0,-1,-3,8,1,0,0,0,2,2,3,1,trail2,trail2.jpg,trail2,trail2.jpg,,001,2021-12-16_23h13.32.115,jm_natural_scene_simialrity_2-12-2021_version2,2021.2.3,Win32,59.99880002,5d131f87906ece001a15fb92,61bbc5c79a1c66460f44041e,61bbc64b3aed3d2d6f395b45,,,,,,,,,,,,,,,,,,,,,,,,,,,,,,,,,,,,,,,,,,
,,,,,,,,,,,,69,-32,1,0,0,response3disk_5,2,12,-13,1,0,0,rectangle_8,-60,-114,1,0,0,-1,-5,-7,1,0,0,0,3,3,1,1,trail1,trail1.jpg,trail2,trail2.jpg,,001,2021-12-16_23h13.32.115,jm_natural_scene_simialrity_2-12-2021_version2,2021.2.3,Win32,59.99880002,5d131f87906ece001a15fb92,61bbc5c79a1c66460f44041e,61bbc64b3aed3d2d6f395b45,response5disk_7,-1,rectangle_4,,,,,,,,,,,,,,,,,,,,,,,,,,,,,,,,,,,,,,,
,,,,,,,,,,,,-63,42,1,0,0,response7disk_5,-3,1,3,1,0,0,rectangle_8,-50,-107,1,0,0,-1,-2,5,1,0,0,0,4,4,4,1,trail2,trail2.jpg,trail3,trail3.jpg,,001,2021-12-16_23h13.32.115,jm_natural_scene_simialrity_2-12-2021_version2,2021.2.3,Win32,59.99880002,5d131f87906ece001a15fb92,61bbc5c79a1c66460f44041e,61bbc64b3aed3d2d6f395b45,response5disk_7,-1,rectangle_4,,,,,,,,,,,,,,,,,,,,,,,,,,,,,,,,,,,,,,,
,,,,,,,,,,,,47,89,1,0,0,response1disk_5,4,-11,1,1,0,0,rectangle_8,-11,1,1,0,0,-1,-11,1,1,0,0,0,5,5,5,1,trail3,trail3.jpg,trail3,trail3.jpg,,001,2021-12-16_23h13.32.115,jm_natural_scene_simialrity_2-12-2021_version2,2021.2.3,Win32,59.99880002,5d131f87906ece001a15fb92,61bbc5c79a1c66460f44041e,61bbc64b3aed3d2d6f395b45,,,,,,,,,,,,,,,,,,,,,,,,,,,,,,,,,,,,,,,,,,
,,,,,,,,,,,,,,,,,,-2,,,,,,,,,,,,,,,,,,,,,,,,,,,,001,2021-12-16_23h13.32.115,jm_natural_scene_simialrity_2-12-2021_version2,2021.2.3,Win32,59.99880002,5d131f87906ece001a15fb92,61bbc5c79a1c66460f44041e,61bbc64b3aed3d2d6f395b45,,,,space,2.0847,-95,-50,1,0,0,response5disk,2.3522,-4,1,1,0,0,rectangle,-4,1,1,0,0,,-1,"[41,11,74,6,22,106,152,62,124,44]",-4,1,1,0,0,0,0,0,61,1,Turquiose,Turquiose.jpg,LightGreen,LightGreen.jpg,,
,,,,,,,,,,,,,,,,,,-4,,,,,,,,,,,,,,,,,,,,,,,,,,,,001,2021-12-16_23h13.32.115,jm_natural_scene_simialrity_2-12-2021_version2,2021.2.3,Win32,59.99880002,5d131f87906ece001a15fb92,61bbc5c79a1c66460f44041e,61bbc64b3aed3d2d6f395b45,,,,,,-46,94,1,0,0,response7disk,1.5672,9,7,1,0,0,rectangle,9,7,1,0,0,,1,"[41,11,74,6,22,106,152,62,124,44]",9,7,1,0,0,0,1,1,54,1,DarkGreen,DarkGreen.jpg,Yellow,Yellow.jpg,,
,,,,,,,,,,,,,,,,,,-4,,,,,,,,,,,,,,,,,,,,,,,,,,,,001,2021-12-16_23h13.32.115,jm_natural_scene_simialrity_2-12-2021_version2,2021.2.3,Win32,59.99880002,5d131f87906ece001a15fb92,61bbc5c79a1c66460f44041e,61bbc64b3aed3d2d6f395b45,,,,,,-46,94,1,0,0,response7disk,1.1514,-6,0,1,0,0,rectangle,-6,0,1,0,0,,-1,"[41,11,74,6,22,106,152,62,124,44]",-6,0,1,0,0,0,2,2,16,1,Yellow,Yellow.jpg,Purple,Purple.jpg,,
,,,,,,,,,,,,,,,,,,3,,,,,,,,,,,,,,,,,,,,,,,,,,,,001,2021-12-16_23h13.32.115,jm_natural_scene_simialrity_2-12-2021_version2,2021.2.3,Win32,59.99880002,5d131f87906ece001a15fb92,61bbc5c79a1c66460f44041e,61bbc64b3aed3d2d6f395b45,,,,,,85,61,1,0,0,response1disk,1.7303,-7,0,1,0,0,rectangle,-7,0,1,0,0,,-2,"[41,11,74,6,22,106,152,62,124,44]",-7,0,1,0,0,0,3,3,77,1,Purple,Purple.jpg,LightBlue,LightBlue.jpg,,
,,,,,,,,,,,,,,,,,,2,,,,,,,,,,,,,,,,,,,,,,,,,,,,001,2021-12-16_23h13.32.115,jm_natural_scene_simialrity_2-12-2021_version2,2021.2.3,Win32,59.99880002,5d131f87906ece001a15fb92,61bbc5c79a1c66460f44041e,61bbc64b3aed3d2d6f395b45,,,,,,85,-72,1,0,0,response3disk,1.8833,-3,-1,1,0,0,rectangle,-3,-1,1,0,0,,-1,"[41,11,74,6,22,106,152,62,124,44]",-3,-1,1,0,0,0,4,4,26,1,DarkGreen,DarkGreen.jpg,LightBlue,LightBlue.jpg,,
,,,,,,,,,,,,,,,,,,-4,,,,,,,,,,,,,,,,,,,,,,,,,,,,001,2021-12-16_23h13.32.115,jm_natural_scene_simialrity_2-12-2021_version2,2021.2.3,Win32,59.99880002,5d131f87906ece001a15fb92,61bbc5c79a1c66460f44041e,61bbc64b3aed3d2d6f395b45,,,,,,-62,139,1,0,0,response7disk,1.0168,-5,4,1,0,0,rectangle,-94,46,1,0,0,-3,-3,"[41,11,74,6,22,106,152,62,124,44]",6,-2,1,0,0,0,5,5,69,1,Pink,Pink.jpg,DarkGreen,DarkGreen.jpg,response7disk_3,rectangle
,,,,,,,,,,,,,,,,,,-4,,,,,,,,,,,,,,,,,,,,,,,,,,,,001,2021-12-16_23h13.32.115,jm_natural_scene_simialrity_2-12-2021_version2,2021.2.3,Win32,59.99880002,5d131f87906ece001a15fb92,61bbc5c79a1c66460f44041e,61bbc64b3aed3d2d6f395b45,,,,,,-32,89,1,0,0,response7disk,1.3352,-3,-15,1,0,0,rectangle,-3,-15,1,0,0,-3,-3,"[41,11,74,6,22,106,152,62,124,44]",-3,-15,1,0,0,0,6,6,5,1,Red,Red.jpg,LightBlue,LightBlue.jpg,,
,,,,,,,,,,,,,,,,,,2,,,,,,,,,,,,,,,,,,,,,,,,,,,,001,2021-12-16_23h13.32.115,jm_natural_scene_simialrity_2-12-2021_version2,2021.2.3,Win32,59.99880002,5d131f87906ece001a15fb92,61bbc5c79a1c66460f44041e,61bbc64b3aed3d2d6f395b45,,,,,,116,-47,1,0,0,response3disk,2.9677,5,13,1,0,0,rectangle,5,13,1,0,0,-3,-4,"[41,11,74,6,22,106,152,62,124,44]",5,13,1,0,0,0,7,7,43,1,Pink,Pink.jpg,Purple,Purple.jpg,,
,,,,,,,,,,,,,,,,,,4,,,,,,,,,,,,,,,,,,,,,,,,,,,,001,2021-12-16_23h13.32.115,jm_natural_scene_simialrity_2-12-2021_version2,2021.2.3,Win32,59.99880002,5d131f87906ece001a15fb92,61bbc5c79a1c66460f44041e,61bbc64b3aed3d2d6f395b45,,,,,,55,91,1,0,0,response1disk,1.216,-18,2,1,0,0,rectangle,-18,2,1,0,0,-3,-2,"[41,11,74,6,22,106,152,62,124,44]",-18,2,1,0,0,0,8,8,0,1,Red,Red.jpg,Red,Red.jpg,,
,,,,,,,,,,,,,,,,,,-4,,,,,,,,,,,,,,,,,,,,,,,,,,,,001,2021-12-16_23h13.32.115,jm_natural_scene_simialrity_2-12-2021_version2,2021.2.3,Win32,59.99880002,5d131f87906ece001a15fb92,61bbc5c79a1c66460f44041e,61bbc64b3aed3d2d6f395b45,,,,,,-58,82,1,0,0,response7disk,1.9001,3,-4,1,0,0,rectangle,3,-4,1,0,0,-3,3,"[41,11,74,6,22,106,152,62,124,44]",3,-4,1,0,0,0,9,9,28,1,DarkGreen,DarkGreen.jpg,Pink,Pink.jpg,,
,,,,,,,,,,,,,,,,,,2,,,,,,,,,,,,,,,,,,,,,,,,,,,,001,2021-12-16_23h13.32.115,jm_natural_scene_simialrity_2-12-2021_version2,2021.2.3,Win32,59.99880002,5d131f87906ece001a15fb92,61bbc5c79a1c66460f44041e,61bbc64b3aed3d2d6f395b45,,,,,,72,-25,1,0,0,response3disk,1.6369,-4,7,1,0,0,rectangle,99,39,1,0,0,3,3,"[41,11,74,6,22,106,152,62,124,44]",-7,-1,1,0,0,0,10,10,32,1,Turquiose,Turquiose.jpg,DarkBlue,DarkBlue.jpg,response1disk_3,rectangle
,,,,,,,,,,,,,,,,,,-4,,,,,,,,,,,,,,,,,,,,,,,,,,,,001,2021-12-16_23h13.32.115,jm_natural_scene_simialrity_2-12-2021_version2,2021.2.3,Win32,59.99880002,5d131f87906ece001a15fb92,61bbc5c79a1c66460f44041e,61bbc64b3aed3d2d6f395b45,,,,,,-46,123,1,0,0,response7disk,1.4008,1,2,1,0,0,rectangle,1,2,1,0,0,3,3,"[41,11,74,6,22,106,152,62,124,44]",1,2,1,0,0,0,11,11,33,1,Turquiose,Turquiose.jpg,Pink,Pink.jpg,,
,,,,,,,,,,,,,,,,,,2,,,,,,,,,,,,,,,,,,,,,,,,,,,,001,2021-12-16_23h13.32.115,jm_natural_scene_simialrity_2-12-2021_version2,2021.2.3,Win32,59.99880002,5d131f87906ece001a15fb92,61bbc5c79a1c66460f44041e,61bbc64b3aed3d2d6f395b45,,,,,,98,-73,1,0,0,response3disk,1.9686,-3,-4,1,0,0,rectangle,-3,-4,1,0,0,3,1,"[41,11,74,6,22,106,152,62,124,44]",-3,-4,1,0,0,0,12,12,52,1,Purple,Purple.jpg,Red,Red.jpg,,
,,,,,,,,,,,,,,,,,,-1,,,,,,,,,,,,,,,,,,,,,,,,,,,,001,2021-12-16_23h13.32.115,jm_natural_scene_simialrity_2-12-2021_version2,2021.2.3,Win32,59.99880002,5d131f87906ece001a15fb92,61bbc5c79a1c66460f44041e,61bbc64b3aed3d2d6f395b45,,,,,,-38,-95,1,0,0,response5disk,1.7847,11,7,1,0,0,rectangle,11,7,1,0,0,3,-3,"[41,11,74,6,22,106,152,62,124,44]",11,7,1,0,0,0,13,13,76,1,Pink,Pink.jpg,LightBlue,LightBlue.jpg,,
,,,,,,,,,,,,,,,,,,3,,,,,,,,,,,,,,,,,,,,,,,,,,,,001,2021-12-16_23h13.32.115,jm_natural_scene_simialrity_2-12-2021_version2,2021.2.3,Win32,59.99880002,5d131f87906ece001a15fb92,61bbc5c79a1c66460f44041e,61bbc64b3aed3d2d6f395b45,,,,,,73,46,1,0,0,response1disk,1.3507,1,10,1,0,0,rectangle,1,10,1,0,0,3,-3,"[41,11,74,6,22,106,152,62,124,44]",1,10,1,0,0,0,14,14,71,1,LightBlue,LightBlue.jpg,Turquiose,Turquiose.jpg,,
,,,,,,,,,,,,,,,,,,-4,,,,,,,,,,,,,,,,,,,,,,,,,,,,001,2021-12-16_23h13.32.115,jm_natural_scene_simialrity_2-12-2021_version2,2021.2.3,Win32,59.99880002,5d131f87906ece001a15fb92,61bbc5c79a1c66460f44041e,61bbc64b3aed3d2d6f395b45,,,,,,-47,105,1,0,0,response7disk,1.0666,7,2,1,0,0,rectangle,7,2,1,0,0,3,2,"[41,11,74,6,22,106,152,62,124,44]",7,2,1,0,0,0,15,15,59,1,Purple,Purple.jpg,Yellow,Yellow.jpg,,
,,,,,,,,,,,,,,,,,,4,,,,,,,,,,,,,,,,,,,,,,,,,,,,001,2021-12-16_23h13.32.115,jm_natural_scene_simialrity_2-12-2021_version2,2021.2.3,Win32,59.99880002,5d131f87906ece001a15fb92,61bbc5c79a1c66460f44041e,61bbc64b3aed3d2d6f395b45,,,,,,53,78,1,0,0,response1disk,1.2344,-12,-6,1,0,0,rectangle,-12,-6,1,0,0,3,-4,"[41,11,74,6,22,106,152,62,124,44]",-12,-6,1,0,0,0,16,16,24,1,DarkGreen,DarkGreen.jpg,DarkGreen,DarkGreen.jpg,,
,,,,,,,,,,,,,,,,,,3,,,,,,,,,,,,,,,,,,,,,,,,,,,,001,2021-12-16_23h13.32.115,jm_natural_scene_simialrity_2-12-2021_version2,2021.2.3,Win32,59.99880002,5d131f87906ece001a15fb92,61bbc5c79a1c66460f44041e,61bbc64b3aed3d2d6f395b45,,,,,,80,54,1,0,0,response1disk,1.1178,-12,-11,1,0,0,rectangle,-12,-11,1,0,0,3,-3,"[41,11,74,6,22,106,152,62,124,44]",-12,-11,1,0,0,0,17,17,38,1,LightBlue,LightBlue.jpg,Purple,Purple.jpg,,
,,,,,,,,,,,,,,,,,,-4,,,,,,,,,,,,,,,,,,,,,,,,,,,,001,2021-12-16_23h13.32.115,jm_natural_scene_simialrity_2-12-2021_version2,2021.2.3,Win32,59.99880002,5d131f87906ece001a15fb92,61bbc5c79a1c66460f44041e,61bbc64b3aed3d2d6f395b45,,,,,,-59,93,1,0,0,response7disk,1.051,-3,8,1,0,0,rectangle,-3,8,1,0,0,3,3,"[41,11,74,6,22,106,152,62,124,44]",-3,8,1,0,0,0,18,18,55,1,Turquiose,Turquiose.jpg,Yellow,Yellow.jpg,,
,,,,,,,,,,,,,,,,,,-4,,,,,,,,,,,,,,,,,,,,,,,,,,,,001,2021-12-16_23h13.32.115,jm_natural_scene_simialrity_2-12-2021_version2,2021.2.3,Win32,59.99880002,5d131f87906ece001a15fb92,61bbc5c79a1c66460f44041e,61bbc64b3aed3d2d6f395b45,,,,,,-39,94,1,0,0,response7disk,1.0847,-5,7,1,0,0,rectangle,-5,7,1,0,0,3,1,"[41,11,74,6,22,106,152,62,124,44]",-5,7,1,0,0,0,19,19,64,1,Pink,Pink.jpg,LightGreen,LightGreen.jpg,,
,,,,,,,,,,,,,,,,,,3,,,,,,,,,,,,,,,,,,,,,,,,,,,,001,2021-12-16_23h13.32.115,jm_natural_scene_simialrity_2-12-2021_version2,2021.2.3,Win32,59.99880002,5d131f87906ece001a15fb92,61bbc5c79a1c66460f44041e,61bbc64b3aed3d2d6f395b45,,,,,,98,43,1,0,0,response1disk,1.3676,3,5,1,0,0,rectangle,3,5,1,0,0,3,1,"[41,11,74,6,22,106,152,62,124,44]",3,5,1,0,0,0,20,20,8,1,Red,Red.jpg,Purple,Purple.jpg,,
,,,,,,,,,,,,,,,,,,-3,,,,,,,,,,,,,,,,,,,,,,,,,,,,001,2021-12-16_23h13.32.115,jm_natural_scene_simialrity_2-12-2021_version2,2021.2.3,Win32,59.99880002,5d131f87906ece001a15fb92,61bbc5c79a1c66460f44041e,61bbc64b3aed3d2d6f395b45,,,,,,-51,33,1,0,0,response7disk,1.9676,7,-2,1,0,0,rectangle,45,-105,1,0,0,1,1,"[41,11,74,6,22,106,152,62,124,44]",-1,-5,1,0,0,0,21,21,36,1,LightBlue,LightBlue.jpg,DarkBlue,DarkBlue.jpg,response3disk_3,rectangle
,,,,,,,,,,,,,,,,,,4,,,,,,,,,,,,,,,,,,,,,,,,,,,,001,2021-12-16_23h13.32.115,jm_natural_scene_simialrity_2-12-2021_version2,2021.2.3,Win32,59.99880002,5d131f87906ece001a15fb92,61bbc5c79a1c66460f44041e,61bbc64b3aed3d2d6f395b45,,,,,,60,132,1,0,0,response1disk,1.1007,-8,-7,1,0,0,rectangle,-8,-7,1,0,0,1,2,"[41,11,74,6,22,106,152,62,124,44]",-8,-7,1,0,0,0,22,22,60,1,DarkGreen,DarkGreen.jpg,LightGreen,LightGreen.jpg,,
,,,,,,,,,,,,,,,,,,-2,,,,,,,,,,,,,,,,,,,,,,,,,,,,001,2021-12-16_23h13.32.115,jm_natural_scene_simialrity_2-12-2021_version2,2021.2.3,Win32,59.99880002,5d131f87906ece001a15fb92,61bbc5c79a1c66460f44041e,61bbc64b3aed3d2d6f395b45,,,,,,-99,-65,1,0,0,response5disk,1.985,9,9,1,0,0,rectangle,9,9,1,0,0,1,3,"[41,11,74,6,22,106,152,62,124,44]",9,9,1,0,0,0,23,23,29,1,DarkGreen,DarkGreen.jpg,Purple,Purple.jpg,,
,,,,,,,,,,,,,,,,,,1,,,,,,,,,,,,,,,,,,,,,,,,,,,,001,2021-12-16_23h13.32.115,jm_natural_scene_simialrity_2-12-2021_version2,2021.2.3,Win32,59.99880002,5d131f87906ece001a15fb92,61bbc5c79a1c66460f44041e,61bbc64b3aed3d2d6f395b45,,,,,,79,-85,1,0,0,response3disk,2.183,-1,-4,1,0,0,rectangle,-1,-4,1,0,0,1,3,"[41,11,74,6,22,106,152,62,124,44]",-1,-4,1,0,0,0,24,24,15,1,Yellow,Yellow.jpg,Pink,Pink.jpg,,
,,,,,,,,,,,,,,,,,,2,,,,,,,,,,,,,,,,,,,,,,,,,,,,001,2021-12-16_23h13.32.115,jm_natural_scene_simialrity_2-12-2021_version2,2021.2.3,Win32,59.99880002,5d131f87906ece001a15fb92,61bbc5c79a1c66460f44041e,61bbc64b3aed3d2d6f395b45,,,,,,113,-46,1,0,0,response3disk,1.3587,-7,6,1,0,0,rectangle,-7,6,1,0,0,1,1,"[41,11,74,6,22,106,152,62,124,44]",-7,6,1,0,0,0,25,25,74,1,Purple,Purple.jpg,Turquiose,Turquiose.jpg,,
,,,,,,,,,,,,,,,,,,-1,,,,,,,,,,,,,,,,,,,,,,,,,,,,001,2021-12-16_23h13.32.115,jm_natural_scene_simialrity_2-12-2021_version2,2021.2.3,Win32,59.99880002,5d131f87906ece001a15fb92,61bbc5c79a1c66460f44041e,61bbc64b3aed3d2d6f395b45,,,,,,-26,-76,1,0,0,response5disk,2.8812,4,7,1,0,0,rectangle,4,7,1,0,0,1,-1,"[41,11,74,6,22,106,152,62,124,44]",4,7,1,0,0,0,26,26,44,1,Purple,Purple.jpg,Purple,Purple.jpg,,
,,,,,,,,,,,,,,,,,,-2,,,,,,,,,,,,,,,,,,,,,,,,,,,,001,2021-12-16_23h13.32.115,jm_natural_scene_simialrity_2-12-2021_version2,2021.2.3,Win32,59.99880002,5d131f87906ece001a15fb92,61bbc5c79a1c66460f44041e,61bbc64b3aed3d2d6f395b45,,,,,,-80,-52,1,0,0,response5disk,1.2167,8,3,1,0,0,rectangle,8,3,1,0,0,1,-4,"[41,11,74,6,22,106,152,62,124,44]",8,3,1,0,0,0,27,27,37,1,LightBlue,LightBlue.jpg,Pink,Pink.jpg,,
,,,,,,,,,,,,,,,,,,3,,,,,,,,,,,,,,,,,,,,,,,,,,,,001,2021-12-16_23h13.32.115,jm_natural_scene_simialrity_2-12-2021_version2,2021.2.3,Win32,59.99880002,5d131f87906ece001a15fb92,61bbc5c79a1c66460f44041e,61bbc64b3aed3d2d6f395b45,,,,,,84,44,1,0,0,response1disk,2.2536,-17,-23,1,0,0,rectangle,-17,-23,1,0,0,-1,-2,"[41,11,74,6,22,106,152,62,124,44]",-17,-23,1,0,0,0,28,28,31,1,Turquiose,Turquiose.jpg,LightBlue,LightBlue.jpg,,
,,,,,,,,,,,,,,,,,,2,,,,,,,,,,,,,,,,,,,,,,,,,,,,001,2021-12-16_23h13.32.115,jm_natural_scene_simialrity_2-12-2021_version2,2021.2.3,Win32,59.99880002,5d131f87906ece001a15fb92,61bbc5c79a1c66460f44041e,61bbc64b3aed3d2d6f395b45,,,,,,97,-39,1,0,0,response3disk,1.4965,0,2,1,0,0,rectangle,0,2,1,0,0,-1,-3,"[41,11,74,6,22,106,152,62,124,44]",0,2,1,0,0,0,29,29,75,1,DarkBlue,DarkBlue.jpg,LightBlue,LightBlue.jpg,,
,,,,,,,,,,,,,,,,,,1,,,,,,,,,,,,,,,,,,,,,,,,,,,,001,2021-12-16_23h13.32.115,jm_natural_scene_simialrity_2-12-2021_version2,2021.2.3,Win32,59.99880002,5d131f87906ece001a15fb92,61bbc5c79a1c66460f44041e,61bbc64b3aed3d2d6f395b45,,,,,,33,-92,1,0,0,response3disk,1.2667,-3,-1,1,0,0,rectangle,-3,-1,1,0,0,-1,1,"[41,11,74,6,22,106,152,62,124,44]",-3,-1,1,0,0,0,30,30,58,1,Pink,Pink.jpg,Yellow,Yellow.jpg,,
,,,,,,,,,,,,,,,,,,-4,,,,,,,,,,,,,,,,,,,,,,,,,,,,001,2021-12-16_23h13.32.115,jm_natural_scene_simialrity_2-12-2021_version2,2021.2.3,Win32,59.99880002,5d131f87906ece001a15fb92,61bbc5c79a1c66460f44041e,61bbc64b3aed3d2d6f395b45,,,,,,-36,88,1,0,0,response7disk,1.0005,3,-6,1,0,0,rectangle,3,-6,1,0,0,-1,-3,"[41,11,74,6,22,106,152,62,124,44]",3,-6,1,0,0,0,31,31,57,1,DarkBlue,DarkBlue.jpg,Yellow,Yellow.jpg,,
,,,,,,,,,,,,,,,,,,3,,,,,,,,,,,,,,,,,,,,,,,,,,,,001,2021-12-16_23h13.32.115,jm_natural_scene_simialrity_2-12-2021_version2,2021.2.3,Win32,59.99880002,5d131f87906ece001a15fb92,61bbc5c79a1c66460f44041e,61bbc64b3aed3d2d6f395b45,,,,,,91,22,1,0,0,response1disk,1.384,0,-13,1,0,0,rectangle,0,-13,1,0,0,-1,-1,"[41,11,74,6,22,106,152,62,124,44]",0,-13,1,0,0,0,32,32,34,1,Turquiose,Turquiose.jpg,Purple,Purple.jpg,,
,,,,,,,,,,,,,,,,,,-4,,,,,,,,,,,,,,,,,,,,,,,,,,,,001,2021-12-16_23h13.32.115,jm_natural_scene_simialrity_2-12-2021_version2,2021.2.3,Win32,59.99880002,5d131f87906ece001a15fb92,61bbc5c79a1c66460f44041e,61bbc64b3aed3d2d6f395b45,,,,,,-35,50,1,0,0,response7disk,1.3517,4,-6,1,0,0,rectangle,4,-6,1,0,0,-1,1,"[41,11,74,6,22,106,152,62,124,44]",4,-6,1,0,0,0,33,33,63,1,DarkBlue,DarkBlue.jpg,LightGreen,LightGreen.jpg,,
,,,,,,,,,,,,,,,,,,-4,,,,,,,,,,,,,,,,,,,,,,,,,,,,001,2021-12-16_23h13.32.115,jm_natural_scene_simialrity_2-12-2021_version2,2021.2.3,Win32,59.99880002,5d131f87906ece001a15fb92,61bbc5c79a1c66460f44041e,61bbc64b3aed3d2d6f395b45,,,,,,-39,86,1,0,0,response7disk,1.0159,-6,15,1,0,0,rectangle,-6,15,1,0,0,-1,3,"[41,11,74,6,22,106,152,62,124,44]",-6,15,1,0,0,0,34,34,73,1,Pink,Pink.jpg,Turquiose,Turquiose.jpg,,
,,,,,,,,,,,,,,,,,,-1,,,,,,,,,,,,,,,,,,,,,,,,,,,,001,2021-12-16_23h13.32.115,jm_natural_scene_simialrity_2-12-2021_version2,2021.2.3,Win32,59.99880002,5d131f87906ece001a15fb92,61bbc5c79a1c66460f44041e,61bbc64b3aed3d2d6f395b45,,,,,,-25,-79,1,0,0,response5disk,1.9879,-1,-6,1,0,0,rectangle,-1,-6,1,0,0,-1,1,"[41,11,74,6,22,106,152,62,124,44]",-1,-6,1,0,0,0,35,35,70,1,Purple,Purple.jpg,DarkGreen,DarkGreen.jpg,,
,,,,,,,,,,,,,,,,,,-4,,,,,,,,,,,,,,,,,,,,,,,,,,,,001,2021-12-16_23h13.32.115,jm_natural_scene_simialrity_2-12-2021_version2,2021.2.3,Win32,59.99880002,5d131f87906ece001a15fb92,61bbc5c79a1c66460f44041e,61bbc64b3aed3d2d6f395b45,,,,,,-44,53,1,0,0,response7disk,2.3666,0,-5,1,0,0,rectangle,0,-5,1,0,0,-1,-1,"[41,11,74,6,22,106,152,62,124,44]",0,-5,1,0,0,0,36,36,21,1,LightGreen,LightGreen.jpg,DarkBlue,DarkBlue.jpg,,
,,,,,,,,,,,,,,,,,,2,,,,,,,,,,,,,,,,,,,,,,,,,,,,001,2021-12-16_23h13.32.115,jm_natural_scene_simialrity_2-12-2021_version2,2021.2.3,Win32,59.99880002,5d131f87906ece001a15fb92,61bbc5c79a1c66460f44041e,61bbc64b3aed3d2d6f395b45,,,,,,72,-40,1,0,0,response3disk,1.2505,5,-5,1,0,0,rectangle,5,-5,1,0,0,-1,2,"[41,11,74,6,22,106,152,62,124,44]",5,-5,1,0,0,0,37,37,51,1,Pink,Pink.jpg,Red,Red.jpg,,
,,,,,,,,,,,,,,,,,,-4,,,,,,,,,,,,,,,,,,,,,,,,,,,,001,2021-12-16_23h13.32.115,jm_natural_scene_simialrity_2-12-2021_version2,2021.2.3,Win32,59.99880002,5d131f87906ece001a15fb92,61bbc5c79a1c66460f44041e,61bbc64b3aed3d2d6f395b45,,,,,,-40,82,1,0,0,response7disk,0.9509,4,-21,1,0,0,rectangle,4,-21,1,0,0,-1,-4,"[41,11,74,6,22,106,152,62,124,44]",4,-21,1,0,0,0,38,38,2,1,Red,Red.jpg,LightGreen,LightGreen.jpg,,
,,,,,,,,,,,,,,,,,,4,,,,,,,,,,,,,,,,,,,,,,,,,,,,001,2021-12-16_23h13.32.115,jm_natural_scene_simialrity_2-12-2021_version2,2021.2.3,Win32,59.99880002,5d131f87906ece001a15fb92,61bbc5c79a1c66460f44041e,61bbc64b3aed3d2d6f395b45,,,,,,36,92,1,0,0,response1disk,1.3002,0,0,1,0,0,rectangle,0,0,1,0,0,-1,-4,"[41,11,74,6,22,106,152,62,124,44]",0,0,1,0,0,0,39,39,35,1,LightBlue,LightBlue.jpg,LightBlue,LightBlue.jpg,,
,,,,,,,,,,,,,,,,,,-4,,,,,,,,,,,,,,,,,,,,,,,,,,,,001,2021-12-16_23h13.32.115,jm_natural_scene_simialrity_2-12-2021_version2,2021.2.3,Win32,59.99880002,5d131f87906ece001a15fb92,61bbc5c79a1c66460f44041e,61bbc64b3aed3d2d6f395b45,,,,,,-53,115,1,0,0,response7disk,0.9169,0,5,1,0,0,rectangle,101,-38,1,0,0,2,2,"[41,11,74,6,22,106,152,62,124,44]",-13,-6,1,0,0,0,40,40,10,1,Yellow,Yellow.jpg,LightGreen,LightGreen.jpg,response3disk_3,rectangle
,,,,,,,,,,,,,,,,,,-4,,,,,,,,,,,,,,,,,,,,,,,,,,,,001,2021-12-16_23h13.32.115,jm_natural_scene_simialrity_2-12-2021_version2,2021.2.3,Win32,59.99880002,5d131f87906ece001a15fb92,61bbc5c79a1c66460f44041e,61bbc64b3aed3d2d6f395b45,,,,,,-47,80,1,0,0,response7disk,0.9315,1,8,1,0,0,rectangle,1,8,1,0,0,2,1,"[41,11,74,6,22,106,152,62,124,44]",1,8,1,0,0,0,41,41,40,1,DarkBlue,DarkBlue.jpg,Pink,Pink.jpg,,
,,,,,,,,,,,,,,,,,,-4,,,,,,,,,,,,,,,,,,,,,,,,,,,,001,2021-12-16_23h13.32.115,jm_natural_scene_simialrity_2-12-2021_version2,2021.2.3,Win32,59.99880002,5d131f87906ece001a15fb92,61bbc5c79a1c66460f44041e,61bbc64b3aed3d2d6f395b45,,,,,,-47,79,1,0,0,response7disk,0.8493,2,4,1,0,0,rectangle,2,4,1,0,0,2,2,"[41,11,74,6,22,106,152,62,124,44]",2,4,1,0,0,0,42,42,4,1,Red,Red.jpg,Turquiose,Turquiose.jpg,,
,,,,,,,,,,,,,,,,,,-4,,,,,,,,,,,,,,,,,,,,,,,,,,,,001,2021-12-16_23h13.32.115,jm_natural_scene_simialrity_2-12-2021_version2,2021.2.3,Win32,59.99880002,5d131f87906ece001a15fb92,61bbc5c79a1c66460f44041e,61bbc64b3aed3d2d6f395b45,,,,,,-51,98,1,0,0,response7disk,0.9335,7,-9,1,0,0,rectangle,77,-47,1,0,0,2,2,"[41,11,74,6,22,106,152,62,124,44]",5,-4,1,0,0,0,43,43,11,1,Yellow,Yellow.jpg,DarkGreen,DarkGreen.jpg,response3disk_3,rectangle
,,,,,,,,,,,,,,,,,,1,,,,,,,,,,,,,,,,,,,,,,,,,,,,001,2021-12-16_23h13.32.115,jm_natural_scene_simialrity_2-12-2021_version2,2021.2.3,Win32,59.99880002,5d131f87906ece001a15fb92,61bbc5c79a1c66460f44041e,61bbc64b3aed3d2d6f395b45,,,,,,65,-111,1,0,0,response3disk,1.7497,-5,1,1,0,0,rectangle,-5,1,1,0,0,2,-4,"[41,11,74,6,22,106,152,62,124,44]",-5,1,1,0,0,0,44,44,1,1,Red,Red.jpg,Yellow,Yellow.jpg,,
,,,,,,,,,,,,,,,,,,-3,,,,,,,,,,,,,,,,,,,,,,,,,,,,001,2021-12-16_23h13.32.115,jm_natural_scene_simialrity_2-12-2021_version2,2021.2.3,Win32,59.99880002,5d131f87906ece001a15fb92,61bbc5c79a1c66460f44041e,61bbc64b3aed3d2d6f395b45,,,,,,-81,38,1,0,0,response7disk,1.0169,-4,10,1,0,0,rectangle,-4,10,1,0,0,2,-3,"[41,11,74,6,22,106,152,62,124,44]",-4,10,1,0,0,0,45,45,19,1,LightGreen,LightGreen.jpg,Turquiose,Turquiose.jpg,,
,,,,,,,,,,,,,,,,,,-4,,,,,,,,,,,,,,,,,,,,,,,,,,,,001,2021-12-16_23h13.32.115,jm_natural_scene_simialrity_2-12-2021_version2,2021.2.3,Win32,59.99880002,5d131f87906ece001a15fb92,61bbc5c79a1c66460f44041e,61bbc64b3aed3d2d6f395b45,,,,,,-69,98,1,0,0,response7disk,1.4005,-7,4,1,0,0,rectangle,-7,4,1,0,0,2,-1,"[41,11,74,6,22,106,152,62,124,44]",-7,4,1,0,0,0,46,46,56,1,LightBlue,LightBlue.jpg,Yellow,Yellow.jpg,,
,,,,,,,,,,,,,,,,,,2,,,,,,,,,,,,,,,,,,,,,,,,,,,,001,2021-12-16_23h13.32.115,jm_natural_scene_simialrity_2-12-2021_version2,2021.2.3,Win32,59.99880002,5d131f87906ece001a15fb92,61bbc5c79a1c66460f44041e,61bbc64b3aed3d2d6f395b45,,,,,,99,-69,1,0,0,response3disk,1.2874,-9,3,1,0,0,rectangle,-9,3,1,0,0,2,-3,"[41,11,74,6,22,106,152,62,124,44]",-9,3,1,0,0,0,47,47,80,1,Purple,Purple.jpg,Pink,Pink.jpg,,
,,,,,,,,,,,,,,,,,,4,,,,,,,,,,,,,,,,,,,,,,,,,,,,001,2021-12-16_23h13.32.115,jm_natural_scene_simialrity_2-12-2021_version2,2021.2.3,Win32,59.99880002,5d131f87906ece001a15fb92,61bbc5c79a1c66460f44041e,61bbc64b3aed3d2d6f395b45,,,,,,22,92,1,0,0,response1disk,1.0817,-10,3,1,0,0,rectangle,-10,3,1,0,0,2,-2,"[41,11,74,6,22,106,152,62,124,44]",-10,3,1,0,0,0,48,48,42,1,Pink,Pink.jpg,Pink,Pink.jpg,,
,,,,,,,,,,,,,,,,,,-4,,,,,,,,,,,,,,,,,,,,,,,,,,,,001,2021-12-16_23h13.32.115,jm_natural_scene_simialrity_2-12-2021_version2,2021.2.3,Win32,59.99880002,5d131f87906ece001a15fb92,61bbc5c79a1c66460f44041e,61bbc64b3aed3d2d6f395b45,,,,,,-59,97,1,0,0,response7disk,1.1202,-2,2,1,0,0,rectangle,-2,2,1,0,0,2,-2,"[41,11,74,6,22,106,152,62,124,44]",-2,2,1,0,0,0,49,49,12,1,Yellow,Yellow.jpg,Turquiose,Turquiose.jpg,,
,,,,,,,,,,,,,,,,,,-3,,,,,,,,,,,,,,,,,,,,,,,,,,,,001,2021-12-16_23h13.32.115,jm_natural_scene_simialrity_2-12-2021_version2,2021.2.3,Win32,59.99880002,5d131f87906ece001a15fb92,61bbc5c79a1c66460f44041e,61bbc64b3aed3d2d6f395b45,,,,,,-61,23,1,0,0,response7disk,1.132,-2,-13,1,0,0,rectangle,-2,-13,1,0,0,2,-4,"[41,11,74,6,22,106,152,62,124,44]",-2,-13,1,0,0,0,50,50,66,1,Turquiose,Turquiose.jpg,DarkGreen,DarkGreen.jpg,,
,,,,,,,,,,,,,,,,,,-2,,,,,,,,,,,,,,,,,,,,,,,,,,,,001,2021-12-16_23h13.32.115,jm_natural_scene_simialrity_2-12-2021_version2,2021.2.3,Win32,59.99880002,5d131f87906ece001a15fb92,61bbc5c79a1c66460f44041e,61bbc64b3aed3d2d6f395b45,,,,,,-87,-44,1,0,0,response5disk,1.7356,-1,-2,1,0,0,rectangle,-1,-2,1,0,0,2,-4,"[41,11,74,6,22,106,152,62,124,44]",-1,-2,1,0,0,0,51,51,23,1,LightGreen,LightGreen.jpg,Purple,Purple.jpg,,
,,,,,,,,,,,,,,,,,,-3,,,,,,,,,,,,,,,,,,,,,,,,,,,,001,2021-12-16_23h13.32.115,jm_natural_scene_simialrity_2-12-2021_version2,2021.2.3,Win32,59.99880002,5d131f87906ece001a15fb92,61bbc5c79a1c66460f44041e,61bbc64b3aed3d2d6f395b45,,,,,,-102,50,1,0,0,response7disk,1.2159,-5,9,1,0,0,rectangle,-5,9,1,0,0,2,2,"[41,11,74,6,22,106,152,62,124,44]",-5,9,1,0,0,0,52,52,27,1,DarkGreen,DarkGreen.jpg,DarkBlue,DarkBlue.jpg,,
,,,,,,,,,,,,,,,,,,-4,,,,,,,,,,,,,,,,,,,,,,,,,,,,001,2021-12-16_23h13.32.115,jm_natural_scene_simialrity_2-12-2021_version2,2021.2.3,Win32,59.99880002,5d131f87906ece001a15fb92,61bbc5c79a1c66460f44041e,61bbc64b3aed3d2d6f395b45,,,,,,-53,89,1,0,0,response7disk,1.0496,9,-7,1,0,0,rectangle,9,-7,1,0,0,2,-4,"[41,11,74,6,22,106,152,62,124,44]",9,-7,1,0,0,0,53,53,22,1,LightGreen,LightGreen.jpg,Pink,Pink.jpg,,
,,,,,,,,,,,,,,,,,,4,,,,,,,,,,,,,,,,,,,,,,,,,,,,001,2021-12-16_23h13.32.115,jm_natural_scene_simialrity_2-12-2021_version2,2021.2.3,Win32,59.99880002,5d131f87906ece001a15fb92,61bbc5c79a1c66460f44041e,61bbc64b3aed3d2d6f395b45,,,,,,49,93,1,0,0,response1disk,0.9863,5,-11,1,0,0,rectangle,5,-11,1,0,0,2,2,"[41,11,74,6,22,106,152,62,124,44]",5,-11,1,0,0,0,54,54,18,1,LightGreen,LightGreen.jpg,DarkGreen,DarkGreen.jpg,,
,,,,,,,,,,,,,,,,,,-4,,,,,,,,,,,,,,,,,,,,,,,,,,,,001,2021-12-16_23h13.32.115,jm_natural_scene_simialrity_2-12-2021_version2,2021.2.3,Win32,59.99880002,5d131f87906ece001a15fb92,61bbc5c79a1c66460f44041e,61bbc64b3aed3d2d6f395b45,,,,,,-54,88,1,0,0,response7disk,2.2664,3,-11,1,0,0,rectangle,3,-11,1,0,0,2,3,"[41,11,74,6,22,106,152,62,124,44]",3,-11,1,0,0,0,55,55,3,1,Red,Red.jpg,DarkGreen,DarkGreen.jpg,,
,,,,,,,,,,,,,,,,,,-3,,,,,,,,,,,,,,,,,,,,,,,,,,,,001,2021-12-16_23h13.32.115,jm_natural_scene_simialrity_2-12-2021_version2,2021.2.3,Win32,59.99880002,5d131f87906ece001a15fb92,61bbc5c79a1c66460f44041e,61bbc64b3aed3d2d6f395b45,,,,,,-110,56,1,0,0,response7disk,1.0497,-7,-8,1,0,0,rectangle,-7,-8,1,0,0,2,2,"[41,11,74,6,22,106,152,62,124,44]",-7,-8,1,0,0,0,56,56,25,1,DarkGreen,DarkGreen.jpg,Turquiose,Turquiose.jpg,,
,,,,,,,,,,,,,,,,,,4,,,,,,,,,,,,,,,,,,,,,,,,,,,,001,2021-12-16_23h13.32.115,jm_natural_scene_simialrity_2-12-2021_version2,2021.2.3,Win32,59.99880002,5d131f87906ece001a15fb92,61bbc5c79a1c66460f44041e,61bbc64b3aed3d2d6f395b45,,,,,,57,101,1,0,0,response1disk,1.0996,-2,-3,1,0,0,rectangle,-2,-3,1,0,0,2,-2,"[41,11,74,6,22,106,152,62,124,44]",-2,-3,1,0,0,0,57,57,39,1,DarkBlue,DarkBlue.jpg,DarkBlue,DarkBlue.jpg,,
,,,,,,,,,,,,,,,,,,3,,,,,,,,,,,,,,,,,,,,,,,,,,,,001,2021-12-16_23h13.32.115,jm_natural_scene_simialrity_2-12-2021_version2,2021.2.3,Win32,59.99880002,5d131f87906ece001a15fb92,61bbc5c79a1c66460f44041e,61bbc64b3aed3d2d6f395b45,,,,,,98,60,1,0,0,response1disk,0.9504,4,-4,1,0,0,rectangle,4,-4,1,0,0,2,-4,"[41,11,74,6,22,106,152,62,124,44]",4,-4,1,0,0,0,58,58,7,1,Red,Red.jpg,Pink,Pink.jpg,,
,,,,,,,,,,,,,,,,,,-3,,,,,,,,,,,,,,,,,,,,,,,,,,,,001,2021-12-16_23h13.32.115,jm_natural_scene_simialrity_2-12-2021_version2,2021.2.3,Win32,59.99880002,5d131f87906ece001a15fb92,61bbc5c79a1c66460f44041e,61bbc64b3aed3d2d6f395b45,,,,,,-59,30,1,0,0,response7disk,1.0335,-11,8,1,0,0,rectangle,-11,8,1,0,0,2,-3,"[41,11,74,6,22,106,152,62,124,44]",-11,8,1,0,0,0,59,59,49,1,LightBlue,LightBlue.jpg,Red,Red.jpg,,
,,,,,,,,,,,,,,,,,,-4,,,,,,,,,,,,,,,,,,,,,,,,,,,,001,2021-12-16_23h13.32.115,jm_natural_scene_simialrity_2-12-2021_version2,2021.2.3,Win32,59.99880002,5d131f87906ece001a15fb92,61bbc5c79a1c66460f44041e,61bbc64b3aed3d2d6f395b45,,,,,,-51,76,1,0,0,response7disk,1.1839,0,2,1,0,0,rectangle,0,2,1,0,0,2,1,"[41,11,74,6,22,106,152,62,124,44]",0,2,1,0,0,0,60,60,6,1,Red,Red.jpg,DarkBlue,DarkBlue.jpg,,
,,,,,,,,,,,,,,,,,,-4,,,,,,,,,,,,,,,,,,,,,,,,,,,,001,2021-12-16_23h13.32.115,jm_natural_scene_simialrity_2-12-2021_version2,2021.2.3,Win32,59.99880002,5d131f87906ece001a15fb92,61bbc5c79a1c66460f44041e,61bbc64b3aed3d2d6f395b45,,,,,,-45,82,1,0,0,response7disk,1.3367,-10,13,1,0,0,rectangle,85,46,1,0,0,3,3,"[41,11,74,6,22,106,152,62,124,44]",3,-7,1,0,0,0,61,61,53,1,LightGreen,LightGreen.jpg,Yellow,Yellow.jpg,response1disk_3,rectangle
,,,,,,,,,,,,,,,,,,-2,,,,,,,,,,,,,,,,,,,,,,,,,,,,001,2021-12-16_23h13.32.115,jm_natural_scene_simialrity_2-12-2021_version2,2021.2.3,Win32,59.99880002,5d131f87906ece001a15fb92,61bbc5c79a1c66460f44041e,61bbc64b3aed3d2d6f395b45,,,,,,-126,-27,1,0,0,response5disk,1.5004,2,-4,1,0,0,rectangle,2,-4,1,0,0,3,-4,"[41,11,74,6,22,106,152,62,124,44]",2,-4,1,0,0,0,62,62,62,1,LightBlue,LightBlue.jpg,LightGreen,LightGreen.jpg,,
,,,,,,,,,,,,,,,,,,-2,,,,,,,,,,,,,,,,,,,,,,,,,,,,001,2021-12-16_23h13.32.115,jm_natural_scene_simialrity_2-12-2021_version2,2021.2.3,Win32,59.99880002,5d131f87906ece001a15fb92,61bbc5c79a1c66460f44041e,61bbc64b3aed3d2d6f395b45,,,,,,-87,-28,1,0,0,response5disk,1.0664,-14,11,1,0,0,rectangle,-14,11,1,0,0,3,1,"[41,11,74,6,22,106,152,62,124,44]",-14,11,1,0,0,0,63,63,72,1,DarkBlue,DarkBlue.jpg,Turquiose,Turquiose.jpg,,
,,,,,,,,,,,,,,,,,,-1,,,,,,,,,,,,,,,,,,,,,,,,,,,,001,2021-12-16_23h13.32.115,jm_natural_scene_simialrity_2-12-2021_version2,2021.2.3,Win32,59.99880002,5d131f87906ece001a15fb92,61bbc5c79a1c66460f44041e,61bbc64b3aed3d2d6f395b45,,,,,,-50,-104,1,0,0,response5disk,1.6661,-24,-10,1,0,0,rectangle,-24,-10,1,0,0,3,-4,"[41,11,74,6,22,106,152,62,124,44]",-24,-10,1,0,0,0,64,64,67,1,LightBlue,LightBlue.jpg,DarkGreen,DarkGreen.jpg,,
,,,,,,,,,,,,,,,,,,4,,,,,,,,,,,,,,,,,,,,,,,,,,,,001,2021-12-16_23h13.32.115,jm_natural_scene_simialrity_2-12-2021_version2,2021.2.3,Win32,59.99880002,5d131f87906ece001a15fb92,61bbc5c79a1c66460f44041e,61bbc64b3aed3d2d6f395b45,,,,,,60,114,1,0,0,response1disk,1.0328,1,-19,1,0,0,rectangle,1,-19,1,0,0,3,-4,"[41,11,74,6,22,106,152,62,124,44]",1,-19,1,0,0,0,65,65,9,1,Yellow,Yellow.jpg,Yellow,Yellow.jpg,,
,,,,,,,,,,,,,,,,,,-3,,,,,,,,,,,,,,,,,,,,,,,,,,,,001,2021-12-16_23h13.32.115,jm_natural_scene_simialrity_2-12-2021_version2,2021.2.3,Win32,59.99880002,5d131f87906ece001a15fb92,61bbc5c79a1c66460f44041e,61bbc64b3aed3d2d6f395b45,,,,,,-63,28,1,0,0,response7disk,1.0017,8,-1,1,0,0,rectangle,8,-1,1,0,0,3,-4,"[41,11,74,6,22,106,152,62,124,44]",8,-1,1,0,0,0,66,66,68,1,DarkBlue,DarkBlue.jpg,DarkGreen,DarkGreen.jpg,,
,,,,,,,,,,,,,,,,,,-2,,,,,,,,,,,,,,,,,,,,,,,,,,,,001,2021-12-16_23h13.32.115,jm_natural_scene_simialrity_2-12-2021_version2,2021.2.3,Win32,59.99880002,5d131f87906ece001a15fb92,61bbc5c79a1c66460f44041e,61bbc64b3aed3d2d6f395b45,,,,,,-72,-41,1,0,0,response5disk,1.1495,-15,-5,1,0,0,rectangle,-15,-5,1,0,0,3,1,"[41,11,74,6,22,106,152,62,124,44]",-15,-5,1,0,0,0,67,67,65,1,Purple,Purple.jpg,LightGreen,LightGreen.jpg,,
,,,,,,,,,,,,,,,,,,-3,,,,,,,,,,,,,,,,,,,,,,,,,,,,001,2021-12-16_23h13.32.115,jm_natural_scene_simialrity_2-12-2021_version2,2021.2.3,Win32,59.99880002,5d131f87906ece001a15fb92,61bbc5c79a1c66460f44041e,61bbc64b3aed3d2d6f395b45,,,,,,-66,22,1,0,0,response7disk,1.1677,10,-17,1,0,0,rectangle,10,-17,1,0,0,3,-4,"[41,11,74,6,22,106,152,62,124,44]",10,-17,1,0,0,0,68,68,79,1,Purple,Purple.jpg,DarkBlue,DarkBlue.jpg,,
,,,,,,,,,,,,,,,,,,-4,,,,,,,,,,,,,,,,,,,,,,,,,,,,001,2021-12-16_23h13.32.115,jm_natural_scene_simialrity_2-12-2021_version2,2021.2.3,Win32,59.99880002,5d131f87906ece001a15fb92,61bbc5c79a1c66460f44041e,61bbc64b3aed3d2d6f395b45,,,,,,-46,101,1,0,0,response7disk,1.0546,3,-6,1,0,0,rectangle,3,-6,1,0,0,3,2,"[41,11,74,6,22,106,152,62,124,44]",3,-6,1,0,0,0,69,69,46,1,LightGreen,LightGreen.jpg,Red,Red.jpg,,
,,,,,,,,,,,,,,,,,,4,,,,,,,,,,,,,,,,,,,,,,,,,,,,001,2021-12-16_23h13.32.115,jm_natural_scene_simialrity_2-12-2021_version2,2021.2.3,Win32,59.99880002,5d131f87906ece001a15fb92,61bbc5c79a1c66460f44041e,61bbc64b3aed3d2d6f395b45,,,,,,23,86,1,0,0,response1disk,0.981,-5,-4,1,0,0,rectangle,-5,-4,1,0,0,3,-2,"[41,11,74,6,22,106,152,62,124,44]",-5,-4,1,0,0,0,70,70,30,1,Turquiose,Turquiose.jpg,Turquiose,Turquiose.jpg,,
,,,,,,,,,,,,,,,,,,-3,,,,,,,,,,,,,,,,,,,,,,,,,,,,001,2021-12-16_23h13.32.115,jm_natural_scene_simialrity_2-12-2021_version2,2021.2.3,Win32,59.99880002,5d131f87906ece001a15fb92,61bbc5c79a1c66460f44041e,61bbc64b3aed3d2d6f395b45,,,,,,-65,53,1,0,0,response7disk,1.097,-13,9,1,0,0,rectangle,-13,9,1,0,0,3,1,"[41,11,74,6,22,106,152,62,124,44]",-13,9,1,0,0,0,71,71,20,1,LightGreen,LightGreen.jpg,LightBlue,LightBlue.jpg,,
,,,,,,,,,,,,,,,,,,-4,,,,,,,,,,,,,,,,,,,,,,,,,,,,001,2021-12-16_23h13.32.115,jm_natural_scene_simialrity_2-12-2021_version2,2021.2.3,Win32,59.99880002,5d131f87906ece001a15fb92,61bbc5c79a1c66460f44041e,61bbc64b3aed3d2d6f395b45,,,,,,-62,105,1,0,0,response7disk,1.0333,-12,5,1,0,0,rectangle,-12,5,1,0,0,3,-2,"[41,11,74,6,22,106,152,62,124,44]",-12,5,1,0,0,0,72,72,50,1,DarkBlue,DarkBlue.jpg,Red,Red.jpg,,
,,,,,,,,,,,,,,,,,,2,,,,,,,,,,,,,,,,,,,,,,,,,,,,001,2021-12-16_23h13.32.115,jm_natural_scene_simialrity_2-12-2021_version2,2021.2.3,Win32,59.99880002,5d131f87906ece001a15fb92,61bbc5c79a1c66460f44041e,61bbc64b3aed3d2d6f395b45,,,,,,112,-69,1,0,0,response3disk,2.5173,12,2,1,0,0,rectangle,88,32,1,0,0,3,3,"[41,11,74,6,22,106,152,62,124,44]",9,7,1,0,0,0,73,73,45,1,Yellow,Yellow.jpg,Red,Red.jpg,response1disk_3,rectangle
,,,,,,,,,,,,,,,,,,-4,,,,,,,,,,,,,,,,,,,,,,,,,,,,001,2021-12-16_23h13.32.115,jm_natural_scene_simialrity_2-12-2021_version2,2021.2.3,Win32,59.99880002,5d131f87906ece001a15fb92,61bbc5c79a1c66460f44041e,61bbc64b3aed3d2d6f395b45,,,,,,-57,85,1,0,0,response7disk,0.9682,10,-13,1,0,0,rectangle,10,-13,1,0,0,3,-4,"[41,11,74,6,22,106,152,62,124,44]",10,-13,1,0,0,0,74,74,48,1,Turquiose,Turquiose.jpg,Red,Red.jpg,,
,,,,,,,,,,,,,,,,,,-4,,,,,,,,,,,,,,,,,,,,,,,,,,,,001,2021-12-16_23h13.32.115,jm_natural_scene_simialrity_2-12-2021_version2,2021.2.3,Win32,59.99880002,5d131f87906ece001a15fb92,61bbc5c79a1c66460f44041e,61bbc64b3aed3d2d6f395b45,,,,,,-32,95,1,0,0,response7disk,0.8519,-8,-5,1,0,0,rectangle,-8,-5,1,0,0,3,-2,"[41,11,74,6,22,106,152,62,124,44]",-8,-5,1,0,0,0,75,75,78,1,Pink,Pink.jpg,DarkBlue,DarkBlue.jpg,,
,,,,,,,,,,,,,,,,,,-4,,,,,,,,,,,,,,,,,,,,,,,,,,,,001,2021-12-16_23h13.32.115,jm_natural_scene_simialrity_2-12-2021_version2,2021.2.3,Win32,59.99880002,5d131f87906ece001a15fb92,61bbc5c79a1c66460f44041e,61bbc64b3aed3d2d6f395b45,,,,,,-63,98,1,0,0,response7disk,1.3837,-14,11,1,0,0,rectangle,-14,11,1,0,0,3,3,"[41,11,74,6,22,106,152,62,124,44]",-14,11,1,0,0,0,76,76,13,1,Yellow,Yellow.jpg,LightBlue,LightBlue.jpg,,
,,,,,,,,,,,,,,,,,,-4,,,,,,,,,,,,,,,,,,,,,,,,,,,,001,2021-12-16_23h13.32.115,jm_natural_scene_simialrity_2-12-2021_version2,2021.2.3,Win32,59.99880002,5d131f87906ece001a15fb92,61bbc5c79a1c66460f44041e,61bbc64b3aed3d2d6f395b45,,,,,,-52,99,1,0,0,response7disk,0.9176,-12,9,1,0,0,rectangle,-12,9,1,0,0,3,-3,"[41,11,74,6,22,106,152,62,124,44]",-12,9,1,0,0,0,77,77,47,1,DarkGreen,DarkGreen.jpg,Red,Red.jpg,,
,,,,,,,,,,,,,,,,,,-1,,,,,,,,,,,,,,,,,,,,,,,,,,,,001,2021-12-16_23h13.32.115,jm_natural_scene_simialrity_2-12-2021_version2,2021.2.3,Win32,59.99880002,5d131f87906ece001a15fb92,61bbc5c79a1c66460f44041e,61bbc64b3aed3d2d6f395b45,,,,,,-38,-116,1,0,0,response5disk,2.1863,2,5,1,0,0,rectangle,2,5,1,0,0,3,1,"[41,11,74,6,22,106,152,62,124,44]",2,5,1,0,0,0,78,78,41,1,DarkBlue,DarkBlue.jpg,Purple,Purple.jpg,,
,,,,,,,,,,,,,,,,,,4,,,,,,,,,,,,,,,,,,,,,,,,,,,,001,2021-12-16_23h13.32.115,jm_natural_scene_simialrity_2-12-2021_version2,2021.2.3,Win32,59.99880002,5d131f87906ece001a15fb92,61bbc5c79a1c66460f44041e,61bbc64b3aed3d2d6f395b45,,,,,,42,134,1,0,0,response1disk,0.8367,-5,-13,1,0,0,rectangle,-5,-13,1,0,0,3,2,"[41,11,74,6,22,106,152,62,124,44]",-5,-13,1,0,0,0,79,79,17,1,LightGreen,LightGreen.jpg,LightGreen,LightGreen.jpg,,
,,,,,,,,,,,,,,,,,,-4,,,,,,,,,,,,,,,,,,,,,,,,,,,,001,2021-12-16_23h13.32.115,jm_natural_scene_simialrity_2-12-2021_version2,2021.2.3,Win32,59.99880002,5d131f87906ece001a15fb92,61bbc5c79a1c66460f44041e,61bbc64b3aed3d2d6f395b45,,,,,,-63,74,1,0,0,response7disk,1.0337,-4,-12,1,0,0,rectangle,-4,-12,1,0,0,3,-2,"[41,11,74,6,22,106,152,62,124,44]",-4,-12,1,0,0,0,80,80,14,1,Yellow,Yellow.jpg,DarkBlue,DarkBlue.jpg,,
,,,,,,,,,,,,,,,,,,4,,,,,,,,,,,,,,,,,,,,,,,,,,,,001,2021-12-16_23h13.32.115,jm_natural_scene_simialrity_2-12-2021_version2,2021.2.3,Win32,59.99880002,5d131f87906ece001a15fb92,61bbc5c79a1c66460f44041e,61bbc64b3aed3d2d6f395b45,,,,,,65,124,1,0,0,response1disk,0.8836,1,-4,1,0,0,rectangle,1,-4,1,0,0,3,-4,"[41,11,74,6,22,106,152,62,124,44]",1,-4,1,0,0,1,0,81,44,1,Purple,Purple.jpg,Purple,Purple.jpg,,
,,,,,,,,,,,,,,,,,,-4,,,,,,,,,,,,,,,,,,,,,,,,,,,,001,2021-12-16_23h13.32.115,jm_natural_scene_simialrity_2-12-2021_version2,2021.2.3,Win32,59.99880002,5d131f87906ece001a15fb92,61bbc5c79a1c66460f44041e,61bbc64b3aed3d2d6f395b45,,,,,,-45,93,1,0,0,response7disk,0.8161,-2,13,1,0,0,rectangle,-2,13,1,0,0,3,2,"[41,11,74,6,22,106,152,62,124,44]",-2,13,1,0,0,1,1,82,55,1,Turquiose,Turquiose.jpg,Yellow,Yellow.jpg,,
,,,,,,,,,,,,,,,,,,-4,,,,,,,,,,,,,,,,,,,,,,,,,,,,001,2021-12-16_23h13.32.115,jm_natural_scene_simialrity_2-12-2021_version2,2021.2.3,Win32,59.99880002,5d131f87906ece001a15fb92,61bbc5c79a1c66460f44041e,61bbc64b3aed3d2d6f395b45,,,,,,-37,74,1,0,0,response7disk,0.8501,-6,15,1,0,0,rectangle,-6,15,1,0,0,3,-4,"[41,11,74,6,22,106,152,62,124,44]",-6,15,1,0,0,1,2,83,12,1,Yellow,Yellow.jpg,Turquiose,Turquiose.jpg,,
,,,,,,,,,,,,,,,,,,-2,,,,,,,,,,,,,,,,,,,,,,,,,,,,001,2021-12-16_23h13.32.115,jm_natural_scene_simialrity_2-12-2021_version2,2021.2.3,Win32,59.99880002,5d131f87906ece001a15fb92,61bbc5c79a1c66460f44041e,61bbc64b3aed3d2d6f395b45,,,,,,-92,-31,1,0,0,response5disk,1.2174,-15,5,1,0,0,rectangle,-15,5,1,0,0,3,-3,"[41,11,74,6,22,106,152,62,124,44]",-15,5,1,0,0,1,3,84,20,1,LightGreen,LightGreen.jpg,LightBlue,LightBlue.jpg,,
,,,,,,,,,,,,,,,,,,-3,,,,,,,,,,,,,,,,,,,,,,,,,,,,001,2021-12-16_23h13.32.115,jm_natural_scene_simialrity_2-12-2021_version2,2021.2.3,Win32,59.99880002,5d131f87906ece001a15fb92,61bbc5c79a1c66460f44041e,61bbc64b3aed3d2d6f395b45,,,,,,-91,66,1,0,0,response7disk,0.9653,-6,9,1,0,0,rectangle,-6,9,1,0,0,3,3,"[41,11,74,6,22,106,152,62,124,44]",-6,9,1,0,0,1,4,85,21,1,LightGreen,LightGreen.jpg,DarkBlue,DarkBlue.jpg,,
,,,,,,,,,,,,,,,,,,-4,,,,,,,,,,,,,,,,,,,,,,,,,,,,001,2021-12-16_23h13.32.115,jm_natural_scene_simialrity_2-12-2021_version2,2021.2.3,Win32,59.99880002,5d131f87906ece001a15fb92,61bbc5c79a1c66460f44041e,61bbc64b3aed3d2d6f395b45,,,,,,-71,90,1,0,0,response7disk,1.3335,14,-20,1,0,0,rectangle,14,-20,1,0,0,3,2,"[41,11,74,6,22,106,152,62,124,44]",14,-20,1,0,0,1,5,86,5,1,Red,Red.jpg,LightBlue,LightBlue.jpg,,
,,,,,,,,,,,,,,,,,,-3,,,,,,,,,,,,,,,,,,,,,,,,,,,,001,2021-12-16_23h13.32.115,jm_natural_scene_simialrity_2-12-2021_version2,2021.2.3,Win32,59.99880002,5d131f87906ece001a15fb92,61bbc5c79a1c66460f44041e,61bbc64b3aed3d2d6f395b45,,,,,,-87,52,1,0,0,response7disk,0.9211,3,5,1,0,0,rectangle,3,5,1,0,0,3,1,"[41,11,74,6,22,106,152,62,124,44]",3,5,1,0,0,1,6,87,19,1,LightGreen,LightGreen.jpg,Turquiose,Turquiose.jpg,,
,,,,,,,,,,,,,,,,,,1,,,,,,,,,,,,,,,,,,,,,,,,,,,,001,2021-12-16_23h13.32.115,jm_natural_scene_simialrity_2-12-2021_version2,2021.2.3,Win32,59.99880002,5d131f87906ece001a15fb92,61bbc5c79a1c66460f44041e,61bbc64b3aed3d2d6f395b45,,,,,,68,-86,1,0,0,response3disk,1.7995,2,2,1,0,0,rectangle,2,2,1,0,0,3,-3,"[41,11,74,6,22,106,152,62,124,44]",2,2,1,0,0,1,7,88,43,1,Pink,Pink.jpg,Purple,Purple.jpg,,
,,,,,,,,,,,,,,,,,,-4,,,,,,,,,,,,,,,,,,,,,,,,,,,,001,2021-12-16_23h13.32.115,jm_natural_scene_simialrity_2-12-2021_version2,2021.2.3,Win32,59.99880002,5d131f87906ece001a15fb92,61bbc5c79a1c66460f44041e,61bbc64b3aed3d2d6f395b45,,,,,,-46,88,1,0,0,response7disk,0.8978,6,-17,1,0,0,rectangle,6,-17,1,0,0,3,-1,"[41,11,74,6,22,106,152,62,124,44]",6,-17,1,0,0,1,8,89,47,1,DarkGreen,DarkGreen.jpg,Red,Red.jpg,,
,,,,,,,,,,,,,,,,,,-3,,,,,,,,,,,,,,,,,,,,,,,,,,,,001,2021-12-16_23h13.32.115,jm_natural_scene_simialrity_2-12-2021_version2,2021.2.3,Win32,59.99880002,5d131f87906ece001a15fb92,61bbc5c79a1c66460f44041e,61bbc64b3aed3d2d6f395b45,,,,,,-65,29,1,0,0,response7disk,1.0003,0,-9,1,0,0,rectangle,0,-9,1,0,0,3,-3,"[41,11,74,6,22,106,152,62,124,44]",0,-9,1,0,0,1,9,90,26,1,DarkGreen,DarkGreen.jpg,LightBlue,LightBlue.jpg,,
,,,,,,,,,,,,,,,,,,3,,,,,,,,,,,,,,,,,,,,,,,,,,,,001,2021-12-16_23h13.32.115,jm_natural_scene_simialrity_2-12-2021_version2,2021.2.3,Win32,59.99880002,5d131f87906ece001a15fb92,61bbc5c79a1c66460f44041e,61bbc64b3aed3d2d6f395b45,,,,,,88,29,1,0,0,response1disk,1.9173,6,-5,1,0,0,rectangle,6,-5,1,0,0,3,1,"[41,11,74,6,22,106,152,62,124,44]",6,-5,1,0,0,1,10,91,38,1,LightBlue,LightBlue.jpg,Purple,Purple.jpg,,
,,,,,,,,,,,,,,,,,,-3,,,,,,,,,,,,,,,,,,,,,,,,,,,,001,2021-12-16_23h13.32.115,jm_natural_scene_simialrity_2-12-2021_version2,2021.2.3,Win32,59.99880002,5d131f87906ece001a15fb92,61bbc5c79a1c66460f44041e,61bbc64b3aed3d2d6f395b45,,,,,,-89,33,1,0,0,response7disk,2.317,17,-1,1,0,0,rectangle,17,-1,1,0,0,3,-2,"[41,11,74,6,22,106,152,62,124,44]",17,-1,1,0,0,1,11,92,76,1,Pink,Pink.jpg,LightBlue,LightBlue.jpg,,
,,,,,,,,,,,,,,,,,,-2,,,,,,,,,,,,,,,,,,,,,,,,,,,,001,2021-12-16_23h13.32.115,jm_natural_scene_simialrity_2-12-2021_version2,2021.2.3,Win32,59.99880002,5d131f87906ece001a15fb92,61bbc5c79a1c66460f44041e,61bbc64b3aed3d2d6f395b45,,,,,,-77,-57,1,0,0,response5disk,1.9002,-14,7,1,0,0,rectangle,-14,7,1,0,0,3,1,"[41,11,74,6,22,106,152,62,124,44]",-14,7,1,0,0,1,12,93,70,1,Purple,Purple.jpg,DarkGreen,DarkGreen.jpg,,
,,,,,,,,,,,,,,,,,,-4,,,,,,,,,,,,,,,,,,,,,,,,,,,,001,2021-12-16_23h13.32.115,jm_natural_scene_simialrity_2-12-2021_version2,2021.2.3,Win32,59.99880002,5d131f87906ece001a15fb92,61bbc5c79a1c66460f44041e,61bbc64b3aed3d2d6f395b45,,,,,,-49,139,1,0,0,response7disk,1.6003,3,-5,1,0,0,rectangle,3,-5,1,0,0,3,-4,"[41,11,74,6,22,106,152,62,124,44]",3,-5,1,0,0,1,13,94,4,1,Red,Red.jpg,Turquiose,Turquiose.jpg,,
,,,,,,,,,,,,,,,,,,1,,,,,,,,,,,,,,,,,,,,,,,,,,,,001,2021-12-16_23h13.32.115,jm_natural_scene_simialrity_2-12-2021_version2,2021.2.3,Win32,59.99880002,5d131f87906ece001a15fb92,61bbc5c79a1c66460f44041e,61bbc64b3aed3d2d6f395b45,,,,,,54,-90,1,0,0,response3disk,1.4169,-6,0,1,0,0,rectangle,-6,0,1,0,0,3,2,"[41,11,74,6,22,106,152,62,124,44]",-6,0,1,0,0,1,14,95,1,1,Red,Red.jpg,Yellow,Yellow.jpg,,
,,,,,,,,,,,,,,,,,,2,,,,,,,,,,,,,,,,,,,,,,,,,,,,001,2021-12-16_23h13.32.115,jm_natural_scene_simialrity_2-12-2021_version2,2021.2.3,Win32,59.99880002,5d131f87906ece001a15fb92,61bbc5c79a1c66460f44041e,61bbc64b3aed3d2d6f395b45,,,,,,73,-63,1,0,0,response3disk,1.3664,-18,18,1,0,0,rectangle,-18,18,1,0,0,-3,-3,"[41,11,74,6,22,106,152,62,124,44]",-18,18,1,0,0,1,15,96,41,1,DarkBlue,DarkBlue.jpg,Purple,Purple.jpg,,
,,,,,,,,,,,,,,,,,,4,,,,,,,,,,,,,,,,,,,,,,,,,,,,001,2021-12-16_23h13.32.115,jm_natural_scene_simialrity_2-12-2021_version2,2021.2.3,Win32,59.99880002,5d131f87906ece001a15fb92,61bbc5c79a1c66460f44041e,61bbc64b3aed3d2d6f395b45,,,,,,48,116,1,0,0,response1disk,1.3669,2,-16,1,0,0,rectangle,2,-16,1,0,0,-3,-1,"[41,11,74,6,22,106,152,62,124,44]",2,-16,1,0,0,1,16,97,39,1,DarkBlue,DarkBlue.jpg,DarkBlue,DarkBlue.jpg,,
,,,,,,,,,,,,,,,,,,-4,,,,,,,,,,,,,,,,,,,,,,,,,,,,001,2021-12-16_23h13.32.115,jm_natural_scene_simialrity_2-12-2021_version2,2021.2.3,Win32,59.99880002,5d131f87906ece001a15fb92,61bbc5c79a1c66460f44041e,61bbc64b3aed3d2d6f395b45,,,,,,-60,91,1,0,0,response7disk,1.5837,-1,-4,1,0,0,rectangle,-1,-4,1,0,0,-3,1,"[41,11,74,6,22,106,152,62,124,44]",-1,-4,1,0,0,1,17,98,53,1,LightGreen,LightGreen.jpg,Yellow,Yellow.jpg,,
,,,,,,,,,,,,,,,,,,1,,,,,,,,,,,,,,,,,,,,,,,,,,,,001,2021-12-16_23h13.32.115,jm_natural_scene_simialrity_2-12-2021_version2,2021.2.3,Win32,59.99880002,5d131f87906ece001a15fb92,61bbc5c79a1c66460f44041e,61bbc64b3aed3d2d6f395b45,,,,,,22,-94,1,0,0,response3disk,1.6502,-13,2,1,0,0,rectangle,-13,2,1,0,0,-3,-4,"[41,11,74,6,22,106,152,62,124,44]",-13,2,1,0,0,1,18,99,74,1,Purple,Purple.jpg,Turquiose,Turquiose.jpg,,
,,,,,,,,,,,,,,,,,,-4,,,,,,,,,,,,,,,,,,,,,,,,,,,,001,2021-12-16_23h13.32.115,jm_natural_scene_simialrity_2-12-2021_version2,2021.2.3,Win32,59.99880002,5d131f87906ece001a15fb92,61bbc5c79a1c66460f44041e,61bbc64b3aed3d2d6f395b45,,,,,,-41,86,1,0,0,response7disk,1.0001,-4,5,1,0,0,rectangle,-4,5,1,0,0,-3,-2,"[41,11,74,6,22,106,152,62,124,44]",-4,5,1,0,0,1,19,100,49,1,LightBlue,LightBlue.jpg,Red,Red.jpg,,
,,,,,,,,,,,,,,,,,,2,,,,,,,,,,,,,,,,,,,,,,,,,,,,001,2021-12-16_23h13.32.115,jm_natural_scene_simialrity_2-12-2021_version2,2021.2.3,Win32,59.99880002,5d131f87906ece001a15fb92,61bbc5c79a1c66460f44041e,61bbc64b3aed3d2d6f395b45,,,,,,76,-28,1,0,0,response3disk,1.3167,7,-20,1,0,0,rectangle,7,-20,1,0,0,-3,1,"[41,11,74,6,22,106,152,62,124,44]",7,-20,1,0,0,1,20,101,45,1,Yellow,Yellow.jpg,Red,Red.jpg,,
,,,,,,,,,,,,,,,,,,-3,,,,,,,,,,,,,,,,,,,,,,,,,,,,001,2021-12-16_23h13.32.115,jm_natural_scene_simialrity_2-12-2021_version2,2021.2.3,Win32,59.99880002,5d131f87906ece001a15fb92,61bbc5c79a1c66460f44041e,61bbc64b3aed3d2d6f395b45,,,,,,-72,31,1,0,0,response7disk,2.317,-10,-4,1,0,0,rectangle,-10,-4,1,0,0,-3,-3,"[41,11,74,6,22,106,152,62,124,44]",-10,-4,1,0,0,1,21,102,56,1,LightBlue,LightBlue.jpg,Yellow,Yellow.jpg,,
,,,,,,,,,,,,,,,,,,4,,,,,,,,,,,,,,,,,,,,,,,,,,,,001,2021-12-16_23h13.32.115,jm_natural_scene_simialrity_2-12-2021_version2,2021.2.3,Win32,59.99880002,5d131f87906ece001a15fb92,61bbc5c79a1c66460f44041e,61bbc64b3aed3d2d6f395b45,,,,,,49,129,1,0,0,response1disk,0.8668,-20,1,1,0,0,rectangle,-20,1,1,0,0,-3,1,"[41,11,74,6,22,106,152,62,124,44]",-20,1,1,0,0,1,22,103,42,1,Pink,Pink.jpg,Pink,Pink.jpg,,
,,,,,,,,,,,,,,,,,,-4,,,,,,,,,,,,,,,,,,,,,,,,,,,,001,2021-12-16_23h13.32.115,jm_natural_scene_simialrity_2-12-2021_version2,2021.2.3,Win32,59.99880002,5d131f87906ece001a15fb92,61bbc5c79a1c66460f44041e,61bbc64b3aed3d2d6f395b45,,,,,,-54,103,1,0,0,response7disk,0.9003,-6,-3,1,0,0,rectangle,-6,-3,1,0,0,-3,-1,"[41,11,74,6,22,106,152,62,124,44]",-6,-3,1,0,0,1,23,104,13,1,Yellow,Yellow.jpg,LightBlue,LightBlue.jpg,,
,,,,,,,,,,,,,,,,,,4,,,,,,,,,,,,,,,,,,,,,,,,,,,,001,2021-12-16_23h13.32.115,jm_natural_scene_simialrity_2-12-2021_version2,2021.2.3,Win32,59.99880002,5d131f87906ece001a15fb92,61bbc5c79a1c66460f44041e,61bbc64b3aed3d2d6f395b45,,,,,,25,78,1,0,0,response1disk,1.0002,-4,-5,1,0,0,rectangle,-35,-104,1,0,0,-1,-1,"[41,11,74,6,22,106,152,62,124,44]",2,1,1,0,0,1,24,105,35,1,LightBlue,LightBlue.jpg,LightBlue,LightBlue.jpg,response5disk_3,rectangle
,,,,,,,,,,,,,,,,,,4,,,,,,,,,,,,,,,,,,,,,,,,,,,,001,2021-12-16_23h13.32.115,jm_natural_scene_simialrity_2-12-2021_version2,2021.2.3,Win32,59.99880002,5d131f87906ece001a15fb92,61bbc5c79a1c66460f44041e,61bbc64b3aed3d2d6f395b45,,,,,,37,99,1,0,0,response1disk,1.0003,8,7,1,0,0,rectangle,8,7,1,0,0,-1,1,"[41,11,74,6,22,106,152,62,124,44]",8,7,1,0,0,1,25,106,18,1,LightGreen,LightGreen.jpg,DarkGreen,DarkGreen.jpg,,
,,,,,,,,,,,,,,,,,,-3,,,,,,,,,,,,,,,,,,,,,,,,,,,,001,2021-12-16_23h13.32.115,jm_natural_scene_simialrity_2-12-2021_version2,2021.2.3,Win32,59.99880002,5d131f87906ece001a15fb92,61bbc5c79a1c66460f44041e,61bbc64b3aed3d2d6f395b45,,,,,,-91,40,1,0,0,response7disk,1.4334,6,0,1,0,0,rectangle,6,0,1,0,0,-1,-2,"[41,11,74,6,22,106,152,62,124,44]",6,0,1,0,0,1,26,107,27,1,DarkGreen,DarkGreen.jpg,DarkBlue,DarkBlue.jpg,,
,,,,,,,,,,,,,,,,,,-3,,,,,,,,,,,,,,,,,,,,,,,,,,,,001,2021-12-16_23h13.32.115,jm_natural_scene_simialrity_2-12-2021_version2,2021.2.3,Win32,59.99880002,5d131f87906ece001a15fb92,61bbc5c79a1c66460f44041e,61bbc64b3aed3d2d6f395b45,,,,,,-84,51,1,0,0,response7disk,1.7001,-5,2,1,0,0,rectangle,-5,2,1,0,0,-1,-2,"[41,11,74,6,22,106,152,62,124,44]",-5,2,1,0,0,1,27,108,57,1,DarkBlue,DarkBlue.jpg,Yellow,Yellow.jpg,,
,,,,,,,,,,,,,,,,,,-4,,,,,,,,,,,,,,,,,,,,,,,,,,,,001,2021-12-16_23h13.32.115,jm_natural_scene_simialrity_2-12-2021_version2,2021.2.3,Win32,59.99880002,5d131f87906ece001a15fb92,61bbc5c79a1c66460f44041e,61bbc64b3aed3d2d6f395b45,,,,,,-56,90,1,0,0,response7disk,0.9664,-6,15,1,0,0,rectangle,-6,15,1,0,0,-1,-1,"[41,11,74,6,22,106,152,62,124,44]",-6,15,1,0,0,1,28,109,28,1,DarkGreen,DarkGreen.jpg,Pink,Pink.jpg,,
,,,,,,,,,,,,,,,,,,3,,,,,,,,,,,,,,,,,,,,,,,,,,,,001,2021-12-16_23h13.32.115,jm_natural_scene_simialrity_2-12-2021_version2,2021.2.3,Win32,59.99880002,5d131f87906ece001a15fb92,61bbc5c79a1c66460f44041e,61bbc64b3aed3d2d6f395b45,,,,,,83,54,1,0,0,response1disk,0.9668,3,-5,1,0,0,rectangle,3,-5,1,0,0,-1,-2,"[41,11,74,6,22,106,152,62,124,44]",3,-5,1,0,0,1,29,110,51,1,Pink,Pink.jpg,Red,Red.jpg,,
,,,,,,,,,,,,,,,,,,3,,,,,,,,,,,,,,,,,,,,,,,,,,,,001,2021-12-16_23h13.32.115,jm_natural_scene_simialrity_2-12-2021_version2,2021.2.3,Win32,59.99880002,5d131f87906ece001a15fb92,61bbc5c79a1c66460f44041e,61bbc64b3aed3d2d6f395b45,,,,,,98,45,1,0,0,response1disk,0.8168,-22,-15,1,0,0,rectangle,-22,-15,1,0,0,-1,2,"[41,11,74,6,22,106,152,62,124,44]",-22,-15,1,0,0,1,30,111,80,1,Purple,Purple.jpg,Pink,Pink.jpg,,
,,,,,,,,,,,,,,,,,,3,,,,,,,,,,,,,,,,,,,,,,,,,,,,001,2021-12-16_23h13.32.115,jm_natural_scene_simialrity_2-12-2021_version2,2021.2.3,Win32,59.99880002,5d131f87906ece001a15fb92,61bbc5c79a1c66460f44041e,61bbc64b3aed3d2d6f395b45,,,,,,66,22,1,0,0,response1disk,1.1669,-25,-4,1,0,0,rectangle,-25,-4,1,0,0,-1,-3,"[41,11,74,6,22,106,152,62,124,44]",-25,-4,1,0,0,1,31,112,34,1,Turquiose,Turquiose.jpg,Purple,Purple.jpg,,
,,,,,,,,,,,,,,,,,,3,,,,,,,,,,,,,,,,,,,,,,,,,,,,001,2021-12-16_23h13.32.115,jm_natural_scene_simialrity_2-12-2021_version2,2021.2.3,Win32,59.99880002,5d131f87906ece001a15fb92,61bbc5c79a1c66460f44041e,61bbc64b3aed3d2d6f395b45,,,,,,103,41,1,0,0,response1disk,1.2168,-6,7,1,0,0,rectangle,-6,7,1,0,0,-1,-4,"[41,11,74,6,22,106,152,62,124,44]",-6,7,1,0,0,1,32,113,36,1,LightBlue,LightBlue.jpg,DarkBlue,DarkBlue.jpg,,
,,,,,,,,,,,,,,,,,,3,,,,,,,,,,,,,,,,,,,,,,,,,,,,001,2021-12-16_23h13.32.115,jm_natural_scene_simialrity_2-12-2021_version2,2021.2.3,Win32,59.99880002,5d131f87906ece001a15fb92,61bbc5c79a1c66460f44041e,61bbc64b3aed3d2d6f395b45,,,,,,97,61,1,0,0,response1disk,1.6201,8,2,1,0,0,rectangle,8,2,1,0,0,-1,-1,"[41,11,74,6,22,106,152,62,124,44]",8,2,1,0,0,1,33,114,32,1,Turquiose,Turquiose.jpg,DarkBlue,DarkBlue.jpg,,
,,,,,,,,,,,,,,,,,,4,,,,,,,,,,,,,,,,,,,,,,,,,,,,001,2021-12-16_23h13.32.115,jm_natural_scene_simialrity_2-12-2021_version2,2021.2.3,Win32,59.99880002,5d131f87906ece001a15fb92,61bbc5c79a1c66460f44041e,61bbc64b3aed3d2d6f395b45,,,,,,51,112,1,0,0,response1disk,0.8846,-6,15,1,0,0,rectangle,-6,15,1,0,0,-1,-1,"[41,11,74,6,22,106,152,62,124,44]",-6,15,1,0,0,1,34,115,9,1,Yellow,Yellow.jpg,Yellow,Yellow.jpg,,
,,,,,,,,,,,,,,,,,,-4,,,,,,,,,,,,,,,,,,,,,,,,,,,,001,2021-12-16_23h13.32.115,jm_natural_scene_simialrity_2-12-2021_version2,2021.2.3,Win32,59.99880002,5d131f87906ece001a15fb92,61bbc5c79a1c66460f44041e,61bbc64b3aed3d2d6f395b45,,,,,,-41,114,1,0,0,response7disk,1.0648,7,3,1,0,0,rectangle,7,3,1,0,0,-1,2,"[41,11,74,6,22,106,152,62,124,44]",7,3,1,0,0,1,35,116,2,1,Red,Red.jpg,LightGreen,LightGreen.jpg,,
,,,,,,,,,,,,,,,,,,-4,,,,,,,,,,,,,,,,,,,,,,,,,,,,001,2021-12-16_23h13.32.115,jm_natural_scene_simialrity_2-12-2021_version2,2021.2.3,Win32,59.99880002,5d131f87906ece001a15fb92,61bbc5c79a1c66460f44041e,61bbc64b3aed3d2d6f395b45,,,,,,-59,70,1,0,0,response7disk,1.9994,-8,1,1,0,0,rectangle,-8,1,1,0,0,-1,2,"[41,11,74,6,22,106,152,62,124,44]",-8,1,1,0,0,1,36,117,14,1,Yellow,Yellow.jpg,DarkBlue,DarkBlue.jpg,,
,,,,,,,,,,,,,,,,,,-4,,,,,,,,,,,,,,,,,,,,,,,,,,,,001,2021-12-16_23h13.32.115,jm_natural_scene_simialrity_2-12-2021_version2,2021.2.3,Win32,59.99880002,5d131f87906ece001a15fb92,61bbc5c79a1c66460f44041e,61bbc64b3aed3d2d6f395b45,,,,,,-70,128,1,0,0,response7disk,0.9667,13,4,1,0,0,rectangle,13,4,1,0,0,-1,-1,"[41,11,74,6,22,106,152,62,124,44]",13,4,1,0,0,1,37,118,78,1,Pink,Pink.jpg,DarkBlue,DarkBlue.jpg,,
,,,,,,,,,,,,,,,,,,-2,,,,,,,,,,,,,,,,,,,,,,,,,,,,001,2021-12-16_23h13.32.115,jm_natural_scene_simialrity_2-12-2021_version2,2021.2.3,Win32,59.99880002,5d131f87906ece001a15fb92,61bbc5c79a1c66460f44041e,61bbc64b3aed3d2d6f395b45,,,,,,-78,-64,1,0,0,response5disk,1.352,-2,-9,1,0,0,rectangle,-2,-9,1,0,0,-1,-1,"[41,11,74,6,22,106,152,62,124,44]",-2,-9,1,0,0,1,38,119,68,1,DarkBlue,DarkBlue.jpg,DarkGreen,DarkGreen.jpg,,
,,,,,,,,,,,,,,,,,,-4,,,,,,,,,,,,,,,,,,,,,,,,,,,,001,2021-12-16_23h13.32.115,jm_natural_scene_simialrity_2-12-2021_version2,2021.2.3,Win32,59.99880002,5d131f87906ece001a15fb92,61bbc5c79a1c66460f44041e,61bbc64b3aed3d2d6f395b45,,,,,,-35,94,1,0,0,response7disk,1.1504,7,-7,1,0,0,rectangle,7,-7,1,0,0,-1,1,"[41,11,74,6,22,106,152,62,124,44]",7,-7,1,0,0,1,39,120,22,1,LightGreen,LightGreen.jpg,Pink,Pink.jpg,,
,,,,,,,,,,,,,,,,,,3,,,,,,,,,,,,,,,,,,,,,,,,,,,,001,2021-12-16_23h13.32.115,jm_natural_scene_simialrity_2-12-2021_version2,2021.2.3,Win32,59.99880002,5d131f87906ece001a15fb92,61bbc5c79a1c66460f44041e,61bbc64b3aed3d2d6f395b45,,,,,,94,50,1,0,0,response1disk,1.0174,-2,2,1,0,0,rectangle,-2,2,1,0,0,-1,-3,"[41,11,74,6,22,106,152,62,124,44]",-2,2,1,0,0,1,40,121,58,1,Pink,Pink.jpg,Yellow,Yellow.jpg,,
,,,,,,,,,,,,,,,,,,-4,,,,,,,,,,,,,,,,,,,,,,,,,,,,001,2021-12-16_23h13.32.115,jm_natural_scene_simialrity_2-12-2021_version2,2021.2.3,Win32,59.99880002,5d131f87906ece001a15fb92,61bbc5c79a1c66460f44041e,61bbc64b3aed3d2d6f395b45,,,,,,-58,59,1,0,0,response7disk,1.4677,-14,7,1,0,0,rectangle,-14,7,1,0,0,-1,2,"[41,11,74,6,22,106,152,62,124,44]",-14,7,1,0,0,1,41,122,10,1,Yellow,Yellow.jpg,LightGreen,LightGreen.jpg,,
,,,,,,,,,,,,,,,,,,1,,,,,,,,,,,,,,,,,,,,,,,,,,,,001,2021-12-16_23h13.32.115,jm_natural_scene_simialrity_2-12-2021_version2,2021.2.3,Win32,59.99880002,5d131f87906ece001a15fb92,61bbc5c79a1c66460f44041e,61bbc64b3aed3d2d6f395b45,,,,,,50,-74,1,0,0,response3disk,1.9171,-11,12,1,0,0,rectangle,-105,-26,1,0,0,-1,-2,"[41,11,74,6,22,106,152,62,124,44]",-1,-13,1,0,0,1,42,123,67,1,LightBlue,LightBlue.jpg,DarkGreen,DarkGreen.jpg,response5disk_3,rectangle
,,,,,,,,,,,,,,,,,,2,,,,,,,,,,,,,,,,,,,,,,,,,,,,001,2021-12-16_23h13.32.115,jm_natural_scene_simialrity_2-12-2021_version2,2021.2.3,Win32,59.99880002,5d131f87906ece001a15fb92,61bbc5c79a1c66460f44041e,61bbc64b3aed3d2d6f395b45,,,,,,68,-50,1,0,0,response3disk,1.3004,7,-11,1,0,0,rectangle,7,-11,1,0,0,-1,-4,"[41,11,74,6,22,106,152,62,124,44]",7,-11,1,0,0,1,43,124,15,1,Yellow,Yellow.jpg,Pink,Pink.jpg,,
,,,,,,,,,,,,,,,,,,3,,,,,,,,,,,,,,,,,,,,,,,,,,,,001,2021-12-16_23h13.32.115,jm_natural_scene_simialrity_2-12-2021_version2,2021.2.3,Win32,59.99880002,5d131f87906ece001a15fb92,61bbc5c79a1c66460f44041e,61bbc64b3aed3d2d6f395b45,,,,,,89,21,1,0,0,response1disk,1.1336,10,-5,1,0,0,rectangle,10,-5,1,0,0,-1,1,"[41,11,74,6,22,106,152,62,124,44]",10,-5,1,0,0,1,44,125,25,1,DarkGreen,DarkGreen.jpg,Turquiose,Turquiose.jpg,,
,,,,,,,,,,,,,,,,,,-2,,,,,,,,,,,,,,,,,,,,,,,,,,,,001,2021-12-16_23h13.32.115,jm_natural_scene_simialrity_2-12-2021_version2,2021.2.3,Win32,59.99880002,5d131f87906ece001a15fb92,61bbc5c79a1c66460f44041e,61bbc64b3aed3d2d6f395b45,,,,,,-97,-53,1,0,0,response5disk,1.5516,-15,-13,1,0,0,rectangle,-15,-13,1,0,0,-1,-4,"[41,11,74,6,22,106,152,62,124,44]",-15,-13,1,0,0,1,45,126,66,1,Turquiose,Turquiose.jpg,DarkGreen,DarkGreen.jpg,,
,,,,,,,,,,,,,,,,,,3,,,,,,,,,,,,,,,,,,,,,,,,,,,,001,2021-12-16_23h13.32.115,jm_natural_scene_simialrity_2-12-2021_version2,2021.2.3,Win32,59.99880002,5d131f87906ece001a15fb92,61bbc5c79a1c66460f44041e,61bbc64b3aed3d2d6f395b45,,,,,,70,21,1,0,0,response1disk,0.9835,0,5,1,0,0,rectangle,0,5,1,0,0,-1,3,"[41,11,74,6,22,106,152,62,124,44]",0,5,1,0,0,1,46,127,31,1,Turquiose,Turquiose.jpg,LightBlue,LightBlue.jpg,,
,,,,,,,,,,,,,,,,,,-2,,,,,,,,,,,,,,,,,,,,,,,,,,,,001,2021-12-16_23h13.32.115,jm_natural_scene_simialrity_2-12-2021_version2,2021.2.3,Win32,59.99880002,5d131f87906ece001a15fb92,61bbc5c79a1c66460f44041e,61bbc64b3aed3d2d6f395b45,,,,,,-78,-34,1,0,0,response5disk,1.2174,-17,9,1,0,0,rectangle,-17,9,1,0,0,-1,1,"[41,11,74,6,22,106,152,62,124,44]",-17,9,1,0,0,1,47,128,37,1,LightBlue,LightBlue.jpg,Pink,Pink.jpg,,
,,,,,,,,,,,,,,,,,,-4,,,,,,,,,,,,,,,,,,,,,,,,,,,,001,2021-12-16_23h13.32.115,jm_natural_scene_simialrity_2-12-2021_version2,2021.2.3,Win32,59.99880002,5d131f87906ece001a15fb92,61bbc5c79a1c66460f44041e,61bbc64b3aed3d2d6f395b45,,,,,,-46,79,1,0,0,response7disk,0.867,3,-9,1,0,0,rectangle,3,-9,1,0,0,-1,-4,"[41,11,74,6,22,106,152,62,124,44]",3,-9,1,0,0,1,48,129,64,1,Pink,Pink.jpg,LightGreen,LightGreen.jpg,,
,,,,,,,,,,,,,,,,,,-4,,,,,,,,,,,,,,,,,,,,,,,,,,,,001,2021-12-16_23h13.32.115,jm_natural_scene_simialrity_2-12-2021_version2,2021.2.3,Win32,59.99880002,5d131f87906ece001a15fb92,61bbc5c79a1c66460f44041e,61bbc64b3aed3d2d6f395b45,,,,,,-49,100,1,0,0,response7disk,0.8834,7,-11,1,0,0,rectangle,7,-11,1,0,0,-1,-3,"[41,11,74,6,22,106,152,62,124,44]",7,-11,1,0,0,1,49,130,46,1,LightGreen,LightGreen.jpg,Red,Red.jpg,,
,,,,,,,,,,,,,,,,,,4,,,,,,,,,,,,,,,,,,,,,,,,,,,,001,2021-12-16_23h13.32.115,jm_natural_scene_simialrity_2-12-2021_version2,2021.2.3,Win32,59.99880002,5d131f87906ece001a15fb92,61bbc5c79a1c66460f44041e,61bbc64b3aed3d2d6f395b45,,,,,,57,80,1,0,0,response1disk,1.0987,-8,-15,1,0,0,rectangle,-8,-15,1,0,0,-1,-2,"[41,11,74,6,22,106,152,62,124,44]",-8,-15,1,0,0,1,50,131,30,1,Turquiose,Turquiose.jpg,Turquiose,Turquiose.jpg,,
,,,,,,,,,,,,,,,,,,4,,,,,,,,,,,,,,,,,,,,,,,,,,,,001,2021-12-16_23h13.32.115,jm_natural_scene_simialrity_2-12-2021_version2,2021.2.3,Win32,59.99880002,5d131f87906ece001a15fb92,61bbc5c79a1c66460f44041e,61bbc64b3aed3d2d6f395b45,,,,,,42,91,1,0,0,response1disk,0.8504,-1,7,1,0,0,rectangle,-1,7,1,0,0,-1,2,"[41,11,74,6,22,106,152,62,124,44]",-1,7,1,0,0,1,51,132,24,1,DarkGreen,DarkGreen.jpg,DarkGreen,DarkGreen.jpg,,
,,,,,,,,,,,,,,,,,,3,,,,,,,,,,,,,,,,,,,,,,,,,,,,001,2021-12-16_23h13.32.115,jm_natural_scene_simialrity_2-12-2021_version2,2021.2.3,Win32,59.99880002,5d131f87906ece001a15fb92,61bbc5c79a1c66460f44041e,61bbc64b3aed3d2d6f395b45,,,,,,55,27,1,0,0,response1disk,1.0345,4,-13,1,0,0,rectangle,4,-13,1,0,0,-1,-4,"[41,11,74,6,22,106,152,62,124,44]",4,-13,1,0,0,1,52,133,79,1,Purple,Purple.jpg,DarkBlue,DarkBlue.jpg,,
,,,,,,,,,,,,,,,,,,-4,,,,,,,,,,,,,,,,,,,,,,,,,,,,001,2021-12-16_23h13.32.115,jm_natural_scene_simialrity_2-12-2021_version2,2021.2.3,Win32,59.99880002,5d131f87906ece001a15fb92,61bbc5c79a1c66460f44041e,61bbc64b3aed3d2d6f395b45,,,,,,-60,117,1,0,0,response7disk,1.0848,-3,0,1,0,0,rectangle,-3,0,1,0,0,-1,-3,"[41,11,74,6,22,106,152,62,124,44]",-3,0,1,0,0,1,53,134,54,1,DarkGreen,DarkGreen.jpg,Yellow,Yellow.jpg,,
,,,,,,,,,,,,,,,,,,-4,,,,,,,,,,,,,,,,,,,,,,,,,,,,001,2021-12-16_23h13.32.115,jm_natural_scene_simialrity_2-12-2021_version2,2021.2.3,Win32,59.99880002,5d131f87906ece001a15fb92,61bbc5c79a1c66460f44041e,61bbc64b3aed3d2d6f395b45,,,,,,-62,111,1,0,0,response7disk,0.7977,-15,8,1,0,0,rectangle,-15,8,1,0,0,-1,-1,"[41,11,74,6,22,106,152,62,124,44]",-15,8,1,0,0,1,54,135,3,1,Red,Red.jpg,DarkGreen,DarkGreen.jpg,,
,,,,,,,,,,,,,,,,,,-4,,,,,,,,,,,,,,,,,,,,,,,,,,,,001,2021-12-16_23h13.32.115,jm_natural_scene_simialrity_2-12-2021_version2,2021.2.3,Win32,59.99880002,5d131f87906ece001a15fb92,61bbc5c79a1c66460f44041e,61bbc64b3aed3d2d6f395b45,,,,,,-22,75,1,0,0,response7disk,0.9002,17,-12,1,0,0,rectangle,17,-12,1,0,0,-1,-2,"[41,11,74,6,22,106,152,62,124,44]",17,-12,1,0,0,1,55,136,73,1,Pink,Pink.jpg,Turquiose,Turquiose.jpg,,
,,,,,,,,,,,,,,,,,,-4,,,,,,,,,,,,,,,,,,,,,,,,,,,,001,2021-12-16_23h13.32.115,jm_natural_scene_simialrity_2-12-2021_version2,2021.2.3,Win32,59.99880002,5d131f87906ece001a15fb92,61bbc5c79a1c66460f44041e,61bbc64b3aed3d2d6f395b45,,,,,,-32,64,1,0,0,response7disk,1.0216,-1,6,1,0,0,rectangle,-1,6,1,0,0,-1,-4,"[41,11,74,6,22,106,152,62,124,44]",-1,6,1,0,0,1,56,137,29,1,DarkGreen,DarkGreen.jpg,Purple,Purple.jpg,,
,,,,,,,,,,,,,,,,,,-4,,,,,,,,,,,,,,,,,,,,,,,,,,,,001,2021-12-16_23h13.32.115,jm_natural_scene_simialrity_2-12-2021_version2,2021.2.3,Win32,59.99880002,5d131f87906ece001a15fb92,61bbc5c79a1c66460f44041e,61bbc64b3aed3d2d6f395b45,,,,,,-52,72,1,0,0,response7disk,0.8844,-9,-19,1,0,0,rectangle,-9,-19,1,0,0,-1,2,"[41,11,74,6,22,106,152,62,124,44]",-9,-19,1,0,0,1,57,138,69,1,Pink,Pink.jpg,DarkGreen,DarkGreen.jpg,,
,,,,,,,,,,,,,,,,,,4,,,,,,,,,,,,,,,,,,,,,,,,,,,,001,2021-12-16_23h13.32.115,jm_natural_scene_simialrity_2-12-2021_version2,2021.2.3,Win32,59.99880002,5d131f87906ece001a15fb92,61bbc5c79a1c66460f44041e,61bbc64b3aed3d2d6f395b45,,,,,,73,131,1,0,0,response1disk,0.8,3,-11,1,0,0,rectangle,3,-11,1,0,0,-1,2,"[41,11,74,6,22,106,152,62,124,44]",3,-11,1,0,0,1,58,139,17,1,LightGreen,LightGreen.jpg,LightGreen,LightGreen.jpg,,
,,,,,,,,,,,,,,,,,,-4,,,,,,,,,,,,,,,,,,,,,,,,,,,,001,2021-12-16_23h13.32.115,jm_natural_scene_simialrity_2-12-2021_version2,2021.2.3,Win32,59.99880002,5d131f87906ece001a15fb92,61bbc5c79a1c66460f44041e,61bbc64b3aed3d2d6f395b45,,,,,,-28,78,1,0,0,response7disk,0.8343,5,-2,1,0,0,rectangle,5,-2,1,0,0,-1,-1,"[41,11,74,6,22,106,152,62,124,44]",5,-2,1,0,0,1,59,140,59,1,Purple,Purple.jpg,Yellow,Yellow.jpg,,
,,,,,,,,,,,,,,,,,,-4,,,,,,,,,,,,,,,,,,,,,,,,,,,,001,2021-12-16_23h13.32.115,jm_natural_scene_simialrity_2-12-2021_version2,2021.2.3,Win32,59.99880002,5d131f87906ece001a15fb92,61bbc5c79a1c66460f44041e,61bbc64b3aed3d2d6f395b45,,,,,,-33,87,1,0,0,response7disk,1.183,-14,9,1,0,0,rectangle,-14,9,1,0,0,-1,-2,"[41,11,74,6,22,106,152,62,124,44]",-14,9,1,0,0,1,60,141,65,1,Purple,Purple.jpg,LightGreen,LightGreen.jpg,,
,,,,,,,,,,,,,,,,,,-4,,,,,,,,,,,,,,,,,,,,,,,,,,,,001,2021-12-16_23h13.32.115,jm_natural_scene_simialrity_2-12-2021_version2,2021.2.3,Win32,59.99880002,5d131f87906ece001a15fb92,61bbc5c79a1c66460f44041e,61bbc64b3aed3d2d6f395b45,,,,,,-47,120,1,0,0,response7disk,0.8525,-1,10,1,0,0,rectangle,-1,10,1,0,0,-1,-4,"[41,11,74,6,22,106,152,62,124,44]",-1,10,1,0,0,1,61,142,48,1,Turquiose,Turquiose.jpg,Red,Red.jpg,,
,,,,,,,,,,,,,,,,,,-4,,,,,,,,,,,,,,,,,,,,,,,,,,,,001,2021-12-16_23h13.32.115,jm_natural_scene_simialrity_2-12-2021_version2,2021.2.3,Win32,59.99880002,5d131f87906ece001a15fb92,61bbc5c79a1c66460f44041e,61bbc64b3aed3d2d6f395b45,,,,,,-29,72,1,0,0,response7disk,0.8369,15,5,1,0,0,rectangle,15,5,1,0,0,-1,-3,"[41,11,74,6,22,106,152,62,124,44]",15,5,1,0,0,1,62,143,71,1,LightBlue,LightBlue.jpg,Turquiose,Turquiose.jpg,,
,,,,,,,,,,,,,,,,,,3,,,,,,,,,,,,,,,,,,,,,,,,,,,,001,2021-12-16_23h13.32.115,jm_natural_scene_simialrity_2-12-2021_version2,2021.2.3,Win32,59.99880002,5d131f87906ece001a15fb92,61bbc5c79a1c66460f44041e,61bbc64b3aed3d2d6f395b45,,,,,,67,31,1,0,0,response1disk,1.2343,2,-22,1,0,0,rectangle,2,-22,1,0,0,-1,1,"[41,11,74,6,22,106,152,62,124,44]",2,-22,1,0,0,1,63,144,72,1,DarkBlue,DarkBlue.jpg,Turquiose,Turquiose.jpg,,
,,,,,,,,,,,,,,,,,,-4,,,,,,,,,,,,,,,,,,,,,,,,,,,,001,2021-12-16_23h13.32.115,jm_natural_scene_simialrity_2-12-2021_version2,2021.2.3,Win32,59.99880002,5d131f87906ece001a15fb92,61bbc5c79a1c66460f44041e,61bbc64b3aed3d2d6f395b45,,,,,,-40,73,1,0,0,response7disk,0.8839,-9,3,1,0,0,rectangle,-9,3,1,0,0,-1,3,"[41,11,74,6,22,106,152,62,124,44]",-9,3,1,0,0,1,64,145,11,1,Yellow,Yellow.jpg,DarkGreen,DarkGreen.jpg,,
,,,,,,,,,,,,,,,,,,-3,,,,,,,,,,,,,,,,,,,,,,,,,,,,001,2021-12-16_23h13.32.115,jm_natural_scene_simialrity_2-12-2021_version2,2021.2.3,Win32,59.99880002,5d131f87906ece001a15fb92,61bbc5c79a1c66460f44041e,61bbc64b3aed3d2d6f395b45,,,,,,-65,35,1,0,0,response7disk,1.9183,6,-20,1,0,0,rectangle,6,-20,1,0,0,-1,2,"[41,11,74,6,22,106,152,62,124,44]",6,-20,1,0,0,1,65,146,6,1,Red,Red.jpg,DarkBlue,DarkBlue.jpg,,
,,,,,,,,,,,,,,,,,,-3,,,,,,,,,,,,,,,,,,,,,,,,,,,,001,2021-12-16_23h13.32.115,jm_natural_scene_simialrity_2-12-2021_version2,2021.2.3,Win32,59.99880002,5d131f87906ece001a15fb92,61bbc5c79a1c66460f44041e,61bbc64b3aed3d2d6f395b45,,,,,,-64,26,1,0,0,response7disk,1.0338,-2,2,1,0,0,rectangle,-2,2,1,0,0,-1,-3,"[41,11,74,6,22,106,152,62,124,44]",-2,2,1,0,0,1,66,147,33,1,Turquiose,Turquiose.jpg,Pink,Pink.jpg,,
,,,,,,,,,,,,,,,,,,4,,,,,,,,,,,,,,,,,,,,,,,,,,,,001,2021-12-16_23h13.32.115,jm_natural_scene_simialrity_2-12-2021_version2,2021.2.3,Win32,59.99880002,5d131f87906ece001a15fb92,61bbc5c79a1c66460f44041e,61bbc64b3aed3d2d6f395b45,,,,,,48,71,1,0,0,response1disk,1.1501,-14,-8,1,0,0,rectangle,-14,-8,1,0,0,-1,-2,"[41,11,74,6,22,106,152,62,124,44]",-14,-8,1,0,0,1,67,148,77,1,Purple,Purple.jpg,LightBlue,LightBlue.jpg,,
,,,,,,,,,,,,,,,,,,4,,,,,,,,,,,,,,,,,,,,,,,,,,,,001,2021-12-16_23h13.32.115,jm_natural_scene_simialrity_2-12-2021_version2,2021.2.3,Win32,59.99880002,5d131f87906ece001a15fb92,61bbc5c79a1c66460f44041e,61bbc64b3aed3d2d6f395b45,,,,,,28,64,1,0,0,response1disk,0.9188,-1,12,1,0,0,rectangle,-1,12,1,0,0,-1,-2,"[41,11,74,6,22,106,152,62,124,44]",-1,12,1,0,0,1,68,149,0,1,Red,Red.jpg,Red,Red.jpg,,
,,,,,,,,,,,,,,,,,,-4,,,,,,,,,,,,,,,,,,,,,,,,,,,,001,2021-12-16_23h13.32.115,jm_natural_scene_simialrity_2-12-2021_version2,2021.2.3,Win32,59.99880002,5d131f87906ece001a15fb92,61bbc5c79a1c66460f44041e,61bbc64b3aed3d2d6f395b45,,,,,,-41,85,1,0,0,response7disk,0.8507,6,2,1,0,0,rectangle,6,2,1,0,0,-1,3,"[41,11,74,6,22,106,152,62,124,44]",6,2,1,0,0,1,69,150,50,1,DarkBlue,DarkBlue.jpg,Red,Red.jpg,,
,,,,,,,,,,,,,,,,,,-4,,,,,,,,,,,,,,,,,,,,,,,,,,,,001,2021-12-16_23h13.32.115,jm_natural_scene_simialrity_2-12-2021_version2,2021.2.3,Win32,59.99880002,5d131f87906ece001a15fb92,61bbc5c79a1c66460f44041e,61bbc64b3aed3d2d6f395b45,,,,,,-46,87,1,0,0,response7disk,0.9007,-16,18,1,0,0,rectangle,52,-97,1,0,0,1,1,"[41,11,74,6,22,106,152,62,124,44]",1,-6,1,0,0,1,70,151,52,1,Purple,Purple.jpg,Red,Red.jpg,response3disk_3,rectangle
,,,,,,,,,,,,,,,,,,-4,,,,,,,,,,,,,,,,,,,,,,,,,,,,001,2021-12-16_23h13.32.115,jm_natural_scene_simialrity_2-12-2021_version2,2021.2.3,Win32,59.99880002,5d131f87906ece001a15fb92,61bbc5c79a1c66460f44041e,61bbc64b3aed3d2d6f395b45,,,,,,-42,79,1,0,0,response7disk,0.8709,3,-7,1,0,0,rectangle,3,-7,1,0,0,1,-3,"[41,11,74,6,22,106,152,62,124,44]",3,-7,1,0,0,1,71,152,40,1,DarkBlue,DarkBlue.jpg,Pink,Pink.jpg,,
,,,,,,,,,,,,,,,,,,-1,,,,,,,,,,,,,,,,,,,,,,,,,,,,001,2021-12-16_23h13.32.115,jm_natural_scene_simialrity_2-12-2021_version2,2021.2.3,Win32,59.99880002,5d131f87906ece001a15fb92,61bbc5c79a1c66460f44041e,61bbc64b3aed3d2d6f395b45,,,,,,-64,-87,1,0,0,response5disk,1.3003,17,15,1,0,0,rectangle,17,15,1,0,0,1,3,"[41,11,74,6,22,106,152,62,124,44]",17,15,1,0,0,1,72,153,61,1,Turquiose,Turquiose.jpg,LightGreen,LightGreen.jpg,,
,,,,,,,,,,,,,,,,,,-4,,,,,,,,,,,,,,,,,,,,,,,,,,,,001,2021-12-16_23h13.32.115,jm_natural_scene_simialrity_2-12-2021_version2,2021.2.3,Win32,59.99880002,5d131f87906ece001a15fb92,61bbc5c79a1c66460f44041e,61bbc64b3aed3d2d6f395b45,,,,,,-51,57,1,0,0,response7disk,1.0168,-12,11,1,0,0,rectangle,-12,11,1,0,0,1,-3,"[41,11,74,6,22,106,152,62,124,44]",-12,11,1,0,0,1,73,154,62,1,LightBlue,LightBlue.jpg,LightGreen,LightGreen.jpg,,
,,,,,,,,,,,,,,,,,,2,,,,,,,,,,,,,,,,,,,,,,,,,,,,001,2021-12-16_23h13.32.115,jm_natural_scene_simialrity_2-12-2021_version2,2021.2.3,Win32,59.99880002,5d131f87906ece001a15fb92,61bbc5c79a1c66460f44041e,61bbc64b3aed3d2d6f395b45,,,,,,79,-64,1,0,0,response3disk,1.7001,-1,9,1,0,0,rectangle,-1,9,1,0,0,1,2,"[41,11,74,6,22,106,152,62,124,44]",-1,9,1,0,0,1,74,155,63,1,DarkBlue,DarkBlue.jpg,LightGreen,LightGreen.jpg,,
,,,,,,,,,,,,,,,,,,-2,,,,,,,,,,,,,,,,,,,,,,,,,,,,001,2021-12-16_23h13.32.115,jm_natural_scene_simialrity_2-12-2021_version2,2021.2.3,Win32,59.99880002,5d131f87906ece001a15fb92,61bbc5c79a1c66460f44041e,61bbc64b3aed3d2d6f395b45,,,,,,-106,-78,1,0,0,response5disk,1.4002,-7,-9,1,0,0,rectangle,-7,-9,1,0,0,1,-1,"[41,11,74,6,22,106,152,62,124,44]",-7,-9,1,0,0,1,75,156,8,1,Red,Red.jpg,Purple,Purple.jpg,,
,,,,,,,,,,,,,,,,,,-3,,,,,,,,,,,,,,,,,,,,,,,,,,,,001,2021-12-16_23h13.32.115,jm_natural_scene_simialrity_2-12-2021_version2,2021.2.3,Win32,59.99880002,5d131f87906ece001a15fb92,61bbc5c79a1c66460f44041e,61bbc64b3aed3d2d6f395b45,,,,,,-87,27,1,0,0,response7disk,0.9668,-18,-2,1,0,0,rectangle,-18,-2,1,0,0,1,-3,"[41,11,74,6,22,106,152,62,124,44]",-18,-2,1,0,0,1,76,157,23,1,LightGreen,LightGreen.jpg,Purple,Purple.jpg,,
,,,,,,,,,,,,,,,,,,3,,,,,,,,,,,,,,,,,,,,,,,,,,,,001,2021-12-16_23h13.32.115,jm_natural_scene_simialrity_2-12-2021_version2,2021.2.3,Win32,59.99880002,5d131f87906ece001a15fb92,61bbc5c79a1c66460f44041e,61bbc64b3aed3d2d6f395b45,,,,,,66,50,1,0,0,response1disk,1.0502,12,20,1,0,0,rectangle,12,20,1,0,0,1,-1,"[41,11,74,6,22,106,152,62,124,44]",12,20,1,0,0,1,77,158,75,1,DarkBlue,DarkBlue.jpg,LightBlue,LightBlue.jpg,,
,,,,,,,,,,,,,,,,,,4,,,,,,,,,,,,,,,,,,,,,,,,,,,,001,2021-12-16_23h13.32.115,jm_natural_scene_simialrity_2-12-2021_version2,2021.2.3,Win32,59.99880002,5d131f87906ece001a15fb92,61bbc5c79a1c66460f44041e,61bbc64b3aed3d2d6f395b45,,,,,,36,96,1,0,0,response1disk,0.8502,-13,-14,1,0,0,rectangle,-13,-14,1,0,0,1,-2,"[41,11,74,6,22,106,152,62,124,44]",-13,-14,1,0,0,1,78,159,60,1,DarkGreen,DarkGreen.jpg,LightGreen,LightGreen.jpg,,
,,,,,,,,,,,,,,,,,,4,,,,,,,,,,,,,,,,,,,,,,,,,,,,001,2021-12-16_23h13.32.115,jm_natural_scene_simialrity_2-12-2021_version2,2021.2.3,Win32,59.99880002,5d131f87906ece001a15fb92,61bbc5c79a1c66460f44041e,61bbc64b3aed3d2d6f395b45,,,,,,55,99,1,0,0,response1disk,0.8668,6,6,1,0,0,rectangle,6,6,1,0,0,1,-4,"[41,11,74,6,22,106,152,62,124,44]",6,6,1,0,0,1,79,160,7,1,Red,Red.jpg,Pink,Pink.jpg,,
,,,,,,,,,,,,,,,,,,-4,,,,,,,,,,,,,,,,,,,,,,,,,,,,001,2021-12-16_23h13.32.115,jm_natural_scene_simialrity_2-12-2021_version2,2021.2.3,Win32,59.99880002,5d131f87906ece001a15fb92,61bbc5c79a1c66460f44041e,61bbc64b3aed3d2d6f395b45,,,,,,-35,70,1,0,0,response7disk,1.1335,-7,-8,1,0,0,rectangle,-7,-8,1,0,0,1,3,"[41,11,74,6,22,106,152,62,124,44]",-7,-8,1,0,0,1,80,161,16,1,Yellow,Yellow.jpg,Purple,Purple.jpg,,
