key_resp.keys,key_resp.rt,key_resp_16.keys,key_resp_16.rt,key_resp_2.keys,key_resp_2.rt,key_resp_3.keys,key_resp_3.rt,key_resp_19.keys,key_resp_19.rt,key_resp_10.keys,key_resp_10.rt,mouse_prac.x,mouse_prac.y,mouse_prac.leftButton,mouse_prac.midButton,mouse_prac.rightButton,mouse_prac.clicked_name,similarity,mouse_10.x,mouse_10.y,mouse_10.leftButton,mouse_10.midButton,mouse_10.rightButton,mouse_10.clicked_name,mouse_catch_prac.x,mouse_catch_prac.y,mouse_catch_prac.leftButton,mouse_catch_prac.midButton,mouse_catch_prac.rightButton,catchnumberprac,mouse_6.x,mouse_6.y,mouse_6.leftButton,mouse_6.midButton,mouse_6.rightButton,during_prac.thisRepN,during_prac.thisTrialN,during_prac.thisN,during_prac.thisIndex,during_prac.ran,trailimage1,trial1adress,trailimage2,trial2adress,participant,session,date,expName,psychopyVersion,OS,frameRate,PROLIFIC_PID,STUDY_ID,SESSION_ID,mouse_catch_prac.clicked_name,catchprac,mouse_6.clicked_name,key_resp_22.keys,key_resp_22.rt,mouse.x,mouse.y,mouse.leftButton,mouse.midButton,mouse.rightButton,mouse.clicked_name,response_time,mouse_2.x,mouse_2.y,mouse_2.leftButton,mouse_2.midButton,mouse_2.rightButton,mouse_2.clicked_name,mouse_3.x,mouse_3.y,mouse_3.leftButton,mouse_3.midButton,mouse_3.rightButton,catchresponse,catchnumber,catchtrialorder,mouse_11.x,mouse_11.y,mouse_11.leftButton,mouse_11.midButton,mouse_11.rightButton,trials_2.thisRepN,trials_2.thisTrialN,trials_2.thisN,trials_2.thisIndex,trials_2.ran,image1,image1adress,image2,image2adress,mouse_3.clicked_name,mouse_11.clicked_name
space,1.6006,space,56.1645,space,4.9817,space,9.9781,space,12.3646,space,5.1609,-112.5605469,113.5344543,1,0,0,response7disk_5,-4,-10.05895996,-5.820739746,1,0,0,rectangle_8,-10.05895996,-5.820739746,1,0,0,-4,-10.05895996,-5.820739746,1,0,0,0,0,0,3,1,trail2,trail2.jpg,trail2,trail2.jpg,,001,2021-12-16_18h05.36.603,jm_natural_scene_simialrity_2-12-2021_version2,2021.2.3,MacIntel,60.0024001,60c1a188c2924eeed13edeb2,61bbc5c79a1c66460f44041e,61bbc62c0eb0c2f3fbec9240,,,,,,,,,,,,,,,,,,,,,,,,,,,,,,,,,,,,,,,,,,
,,,,,,,,,,,,63.95404053,58.47241211,1,0,0,response1disk_5,3,4.587402344,11.00177002,1,0,0,rectangle_8,-43.03338623,80.72781372,1,0,0,-4,10.11627197,0.739471436,1,0,0,0,1,1,5,1,trail3,trail3.jpg,trail3,trail3.jpg,,001,2021-12-16_18h05.36.603,jm_natural_scene_simialrity_2-12-2021_version2,2021.2.3,MacIntel,60.0024001,60c1a188c2924eeed13edeb2,61bbc5c79a1c66460f44041e,61bbc62c0eb0c2f3fbec9240,response7disk_7,-4,rectangle_4,,,,,,,,,,,,,,,,,,,,,,,,,,,,,,,,,,,,,,,
,,,,,,,,,,,,-95.68572998,-28.94393921,1,0,0,response5disk_5,-2,5.41015625,2.485168457,1,0,0,rectangle_8,-37.67260742,77.48577881,1,0,0,-4,11.9954834,-6.888092041,1,0,0,0,2,2,2,1,trail1,trail1.jpg,trail3,trail3.jpg,,001,2021-12-16_18h05.36.603,jm_natural_scene_simialrity_2-12-2021_version2,2021.2.3,MacIntel,60.0024001,60c1a188c2924eeed13edeb2,61bbc5c79a1c66460f44041e,61bbc62c0eb0c2f3fbec9240,response7disk_7,-4,rectangle_4,,,,,,,,,,,,,,,,,,,,,,,,,,,,,,,,,,,,,,,
,,,,,,,,,,,,86.01513672,109.4690552,1,0,0,response1disk_5,4,-14.97076416,-0.681304932,1,0,0,rectangle_8,-14.97076416,-0.681304932,1,0,0,-4,-14.97076416,-0.681304932,1,0,0,0,3,3,0,1,trail1,trail1.jpg,trail1,trail1.jpg,,001,2021-12-16_18h05.36.603,jm_natural_scene_simialrity_2-12-2021_version2,2021.2.3,MacIntel,60.0024001,60c1a188c2924eeed13edeb2,61bbc5c79a1c66460f44041e,61bbc62c0eb0c2f3fbec9240,,,,,,,,,,,,,,,,,,,,,,,,,,,,,,,,,,,,,,,,,,
,,,,,,,,,,,,-42.35327148,87.09301758,1,0,0,response7disk_5,-4,9.872619629,-13.40905762,1,0,0,rectangle_8,9.872619629,-13.40905762,1,0,0,-4,9.872619629,-13.40905762,1,0,0,0,4,4,1,1,trail1,trail1.jpg,trail2,trail2.jpg,,001,2021-12-16_18h05.36.603,jm_natural_scene_simialrity_2-12-2021_version2,2021.2.3,MacIntel,60.0024001,60c1a188c2924eeed13edeb2,61bbc5c79a1c66460f44041e,61bbc62c0eb0c2f3fbec9240,,,,,,,,,,,,,,,,,,,,,,,,,,,,,,,,,,,,,,,,,,
,,,,,,,,,,,,-72.89208984,89.16390991,1,0,0,response7disk_5,-4,-8.826599121,-0.230987549,1,0,0,rectangle_8,-8.826599121,-0.230987549,1,0,0,-4,-8.826599121,-0.230987549,1,0,0,0,5,5,4,1,trail2,trail2.jpg,trail3,trail3.jpg,,001,2021-12-16_18h05.36.603,jm_natural_scene_simialrity_2-12-2021_version2,2021.2.3,MacIntel,60.0024001,60c1a188c2924eeed13edeb2,61bbc5c79a1c66460f44041e,61bbc62c0eb0c2f3fbec9240,,,,,,,,,,,,,,,,,,,,,,,,,,,,,,,,,,,,,,,,,,
,,,,,,,,,,,,,,,,,,-4,,,,,,,,,,,,,,,,,,,,,,,,,,,,001,2021-12-16_18h05.36.603,jm_natural_scene_simialrity_2-12-2021_version2,2021.2.3,MacIntel,60.0024001,60c1a188c2924eeed13edeb2,61bbc5c79a1c66460f44041e,61bbc62c0eb0c2f3fbec9240,,,,space,1.6324,-41.37390137,100.1357422,1,0,0,response7disk,0.9713,8.047058105,-1.064483643,1,0,0,rectangle,8.047058105,-1.064483643,1,0,0,,-3,"[139,133,155,25,66,118,54,105,78,57]",8.047058105,-1.064483643,1,0,0,0,0,0,61,1,Turquiose,Turquiose.jpg,LightGreen,LightGreen.jpg,,
,,,,,,,,,,,,,,,,,,-4,,,,,,,,,,,,,,,,,,,,,,,,,,,,001,2021-12-16_18h05.36.603,jm_natural_scene_simialrity_2-12-2021_version2,2021.2.3,MacIntel,60.0024001,60c1a188c2924eeed13edeb2,61bbc5c79a1c66460f44041e,61bbc62c0eb0c2f3fbec9240,,,,,,-71.30114746,131.5264282,1,0,0,response7disk,0.8663,5.485595703,5.241760254,1,0,0,rectangle,5.485595703,5.241760254,1,0,0,,3,"[139,133,155,25,66,118,54,105,78,57]",5.485595703,5.241760254,1,0,0,0,1,1,54,1,DarkGreen,DarkGreen.jpg,Yellow,Yellow.jpg,,
,,,,,,,,,,,,,,,,,,-4,,,,,,,,,,,,,,,,,,,,,,,,,,,,001,2021-12-16_18h05.36.603,jm_natural_scene_simialrity_2-12-2021_version2,2021.2.3,MacIntel,60.0024001,60c1a188c2924eeed13edeb2,61bbc5c79a1c66460f44041e,61bbc62c0eb0c2f3fbec9240,,,,,,-59.07342529,112.5301819,1,0,0,response7disk,1.5004,14.9387207,-3.607330322,1,0,0,rectangle,14.9387207,-3.607330322,1,0,0,,2,"[139,133,155,25,66,118,54,105,78,57]",14.9387207,-3.607330322,1,0,0,0,2,2,16,1,Yellow,Yellow.jpg,Purple,Purple.jpg,,
,,,,,,,,,,,,,,,,,,-2,,,,,,,,,,,,,,,,,,,,,,,,,,,,001,2021-12-16_18h05.36.603,jm_natural_scene_simialrity_2-12-2021_version2,2021.2.3,MacIntel,60.0024001,60c1a188c2924eeed13edeb2,61bbc5c79a1c66460f44041e,61bbc62c0eb0c2f3fbec9240,,,,,,-76.34869385,-24.24993896,1,0,0,response5disk,2.4177,-3.356445313,-0.959899902,1,0,0,rectangle,-3.356445313,-0.959899902,1,0,0,,2,"[139,133,155,25,66,118,54,105,78,57]",-3.356445313,-0.959899902,1,0,0,0,3,3,77,1,Purple,Purple.jpg,LightBlue,LightBlue.jpg,,
,,,,,,,,,,,,,,,,,,2,,,,,,,,,,,,,,,,,,,,,,,,,,,,001,2021-12-16_18h05.36.603,jm_natural_scene_simialrity_2-12-2021_version2,2021.2.3,MacIntel,60.0024001,60c1a188c2924eeed13edeb2,61bbc5c79a1c66460f44041e,61bbc62c0eb0c2f3fbec9240,,,,,,125.0618286,-33.85995483,1,0,0,response3disk,1.7497,-16.77618408,5.036071777,1,0,0,rectangle,-16.77618408,5.036071777,1,0,0,,-2,"[139,133,155,25,66,118,54,105,78,57]",-16.77618408,5.036071777,1,0,0,0,4,4,26,1,DarkGreen,DarkGreen.jpg,LightBlue,LightBlue.jpg,,
,,,,,,,,,,,,,,,,,,-3,,,,,,,,,,,,,,,,,,,,,,,,,,,,001,2021-12-16_18h05.36.603,jm_natural_scene_simialrity_2-12-2021_version2,2021.2.3,MacIntel,60.0024001,60c1a188c2924eeed13edeb2,61bbc5c79a1c66460f44041e,61bbc62c0eb0c2f3fbec9240,,,,,,-96.58331299,26.80450439,1,0,0,response7disk,2.033,-7.719116211,-9.241943359,1,0,0,rectangle,-7.719116211,-9.241943359,1,0,0,,-4,"[139,133,155,25,66,118,54,105,78,57]",-7.719116211,-9.241943359,1,0,0,0,5,5,69,1,Pink,Pink.jpg,DarkGreen,DarkGreen.jpg,,
,,,,,,,,,,,,,,,,,,-3,,,,,,,,,,,,,,,,,,,,,,,,,,,,001,2021-12-16_18h05.36.603,jm_natural_scene_simialrity_2-12-2021_version2,2021.2.3,MacIntel,60.0024001,60c1a188c2924eeed13edeb2,61bbc5c79a1c66460f44041e,61bbc62c0eb0c2f3fbec9240,,,,,,-93.3369751,33.9901123,1,0,0,response7disk,1.9174,8.095336914,19.77474976,1,0,0,rectangle,8.095336914,19.77474976,1,0,0,,-1,"[139,133,155,25,66,118,54,105,78,57]",8.095336914,19.77474976,1,0,0,0,6,6,5,1,Red,Red.jpg,LightBlue,LightBlue.jpg,,
,,,,,,,,,,,,,,,,,,-2,,,,,,,,,,,,,,,,,,,,,,,,,,,,001,2021-12-16_18h05.36.603,jm_natural_scene_simialrity_2-12-2021_version2,2021.2.3,MacIntel,60.0024001,60c1a188c2924eeed13edeb2,61bbc5c79a1c66460f44041e,61bbc62c0eb0c2f3fbec9240,,,,,,-105.0830688,-25.95022583,1,0,0,response5disk,2.1408,12.86810303,11.95806885,1,0,0,rectangle,12.86810303,11.95806885,1,0,0,,1,"[139,133,155,25,66,118,54,105,78,57]",12.86810303,11.95806885,1,0,0,0,7,7,43,1,Pink,Pink.jpg,Purple,Purple.jpg,,
,,,,,,,,,,,,,,,,,,4,,,,,,,,,,,,,,,,,,,,,,,,,,,,001,2021-12-16_18h05.36.603,jm_natural_scene_simialrity_2-12-2021_version2,2021.2.3,MacIntel,60.0024001,60c1a188c2924eeed13edeb2,61bbc5c79a1c66460f44041e,61bbc62c0eb0c2f3fbec9240,,,,,,70.66107178,92.52133179,1,0,0,response1disk,1.2506,18.6661377,1.283660889,1,0,0,rectangle,18.6661377,1.283660889,1,0,0,,1,"[139,133,155,25,66,118,54,105,78,57]",18.6661377,1.283660889,1,0,0,0,8,8,0,1,Red,Red.jpg,Red,Red.jpg,,
,,,,,,,,,,,,,,,,,,-3,,,,,,,,,,,,,,,,,,,,,,,,,,,,001,2021-12-16_18h05.36.603,jm_natural_scene_simialrity_2-12-2021_version2,2021.2.3,MacIntel,60.0024001,60c1a188c2924eeed13edeb2,61bbc5c79a1c66460f44041e,61bbc62c0eb0c2f3fbec9240,,,,,,-112.8025513,32.73330688,1,0,0,response7disk,2.1569,-18.949646,24.45553589,1,0,0,rectangle,-18.949646,24.45553589,1,0,0,-4,-2,"[139,133,155,25,66,118,54,105,78,57]",-18.949646,24.45553589,1,0,0,0,9,9,28,1,DarkGreen,DarkGreen.jpg,Pink,Pink.jpg,,
,,,,,,,,,,,,,,,,,,-4,,,,,,,,,,,,,,,,,,,,,,,,,,,,001,2021-12-16_18h05.36.603,jm_natural_scene_simialrity_2-12-2021_version2,2021.2.3,MacIntel,60.0024001,60c1a188c2924eeed13edeb2,61bbc5c79a1c66460f44041e,61bbc62c0eb0c2f3fbec9240,,,,,,-57.77050781,86.00494385,1,0,0,response7disk,0.8161,-19.234375,2.535949707,1,0,0,rectangle,-19.234375,2.535949707,1,0,0,-4,1,"[139,133,155,25,66,118,54,105,78,57]",-19.234375,2.535949707,1,0,0,0,10,10,32,1,Turquiose,Turquiose.jpg,DarkBlue,DarkBlue.jpg,,
,,,,,,,,,,,,,,,,,,-4,,,,,,,,,,,,,,,,,,,,,,,,,,,,001,2021-12-16_18h05.36.603,jm_natural_scene_simialrity_2-12-2021_version2,2021.2.3,MacIntel,60.0024001,60c1a188c2924eeed13edeb2,61bbc5c79a1c66460f44041e,61bbc62c0eb0c2f3fbec9240,,,,,,-52.01885986,80.96469116,1,0,0,response7disk,0.8328,-13.96447754,1.409515381,1,0,0,rectangle,-13.96447754,1.409515381,1,0,0,-4,2,"[139,133,155,25,66,118,54,105,78,57]",-13.96447754,1.409515381,1,0,0,0,11,11,33,1,Turquiose,Turquiose.jpg,Pink,Pink.jpg,,
,,,,,,,,,,,,,,,,,,-3,,,,,,,,,,,,,,,,,,,,,,,,,,,,001,2021-12-16_18h05.36.603,jm_natural_scene_simialrity_2-12-2021_version2,2021.2.3,MacIntel,60.0024001,60c1a188c2924eeed13edeb2,61bbc5c79a1c66460f44041e,61bbc62c0eb0c2f3fbec9240,,,,,,-98.87695313,36.30859375,1,0,0,response7disk,0.8857,3.171264648,11.1232605,1,0,0,rectangle,3.171264648,11.1232605,1,0,0,-4,2,"[139,133,155,25,66,118,54,105,78,57]",3.171264648,11.1232605,1,0,0,0,12,12,52,1,Purple,Purple.jpg,Red,Red.jpg,,
,,,,,,,,,,,,,,,,,,-3,,,,,,,,,,,,,,,,,,,,,,,,,,,,001,2021-12-16_18h05.36.603,jm_natural_scene_simialrity_2-12-2021_version2,2021.2.3,MacIntel,60.0024001,60c1a188c2924eeed13edeb2,61bbc5c79a1c66460f44041e,61bbc62c0eb0c2f3fbec9240,,,,,,-101.8053589,33.02722168,1,0,0,response7disk,1.0169,-21.69104004,-9.626220703,1,0,0,rectangle,-21.69104004,-9.626220703,1,0,0,-4,3,"[139,133,155,25,66,118,54,105,78,57]",-21.69104004,-9.626220703,1,0,0,0,13,13,76,1,Pink,Pink.jpg,LightBlue,LightBlue.jpg,,
,,,,,,,,,,,,,,,,,,-3,,,,,,,,,,,,,,,,,,,,,,,,,,,,001,2021-12-16_18h05.36.603,jm_natural_scene_simialrity_2-12-2021_version2,2021.2.3,MacIntel,60.0024001,60c1a188c2924eeed13edeb2,61bbc5c79a1c66460f44041e,61bbc62c0eb0c2f3fbec9240,,,,,,-74.33459473,45.49755859,1,0,0,response7disk,0.9159,5.279174805,3.369018555,1,0,0,rectangle,5.279174805,3.369018555,1,0,0,-4,-3,"[139,133,155,25,66,118,54,105,78,57]",5.279174805,3.369018555,1,0,0,0,14,14,71,1,LightBlue,LightBlue.jpg,Turquiose,Turquiose.jpg,,
,,,,,,,,,,,,,,,,,,-4,,,,,,,,,,,,,,,,,,,,,,,,,,,,001,2021-12-16_18h05.36.603,jm_natural_scene_simialrity_2-12-2021_version2,2021.2.3,MacIntel,60.0024001,60c1a188c2924eeed13edeb2,61bbc5c79a1c66460f44041e,61bbc62c0eb0c2f3fbec9240,,,,,,-52.30810547,69.29003906,1,0,0,response7disk,1.0184,-21.32159424,-7.692810059,1,0,0,rectangle,-21.32159424,-7.692810059,1,0,0,-4,-2,"[139,133,155,25,66,118,54,105,78,57]",-21.32159424,-7.692810059,1,0,0,0,15,15,59,1,Purple,Purple.jpg,Yellow,Yellow.jpg,,
,,,,,,,,,,,,,,,,,,4,,,,,,,,,,,,,,,,,,,,,,,,,,,,001,2021-12-16_18h05.36.603,jm_natural_scene_simialrity_2-12-2021_version2,2021.2.3,MacIntel,60.0024001,60c1a188c2924eeed13edeb2,61bbc5c79a1c66460f44041e,61bbc62c0eb0c2f3fbec9240,,,,,,45.91296387,77.38690186,1,0,0,response1disk,0.8148,-4.560852051,-5.530487061,1,0,0,rectangle,-4.560852051,-5.530487061,1,0,0,-4,2,"[139,133,155,25,66,118,54,105,78,57]",-4.560852051,-5.530487061,1,0,0,0,16,16,24,1,DarkGreen,DarkGreen.jpg,DarkGreen,DarkGreen.jpg,,
,,,,,,,,,,,,,,,,,,-4,,,,,,,,,,,,,,,,,,,,,,,,,,,,001,2021-12-16_18h05.36.603,jm_natural_scene_simialrity_2-12-2021_version2,2021.2.3,MacIntel,60.0024001,60c1a188c2924eeed13edeb2,61bbc5c79a1c66460f44041e,61bbc62c0eb0c2f3fbec9240,,,,,,-95.46563721,104.9622803,1,0,0,response7disk,1.3823,3.515197754,-2.545806885,1,0,0,rectangle,3.515197754,-2.545806885,1,0,0,-4,-2,"[139,133,155,25,66,118,54,105,78,57]",3.515197754,-2.545806885,1,0,0,0,17,17,38,1,LightBlue,LightBlue.jpg,Purple,Purple.jpg,,
,,,,,,,,,,,,,,,,,,-4,,,,,,,,,,,,,,,,,,,,,,,,,,,,001,2021-12-16_18h05.36.603,jm_natural_scene_simialrity_2-12-2021_version2,2021.2.3,MacIntel,60.0024001,60c1a188c2924eeed13edeb2,61bbc5c79a1c66460f44041e,61bbc62c0eb0c2f3fbec9240,,,,,,-52.00280762,89.50180054,1,0,0,response7disk,1.1046,-3.230834961,17.80923462,1,0,0,rectangle,-3.230834961,17.80923462,1,0,0,-4,3,"[139,133,155,25,66,118,54,105,78,57]",-3.230834961,17.80923462,1,0,0,0,18,18,55,1,Turquiose,Turquiose.jpg,Yellow,Yellow.jpg,,
,,,,,,,,,,,,,,,,,,-4,,,,,,,,,,,,,,,,,,,,,,,,,,,,001,2021-12-16_18h05.36.603,jm_natural_scene_simialrity_2-12-2021_version2,2021.2.3,MacIntel,60.0024001,60c1a188c2924eeed13edeb2,61bbc5c79a1c66460f44041e,61bbc62c0eb0c2f3fbec9240,,,,,,-27.82055664,68.3326416,1,0,0,response7disk,0.7215,7.600219727,1.303253174,1,0,0,rectangle,7.600219727,1.303253174,1,0,0,-4,-4,"[139,133,155,25,66,118,54,105,78,57]",7.600219727,1.303253174,1,0,0,0,19,19,64,1,Pink,Pink.jpg,LightGreen,LightGreen.jpg,,
,,,,,,,,,,,,,,,,,,-4,,,,,,,,,,,,,,,,,,,,,,,,,,,,001,2021-12-16_18h05.36.603,jm_natural_scene_simialrity_2-12-2021_version2,2021.2.3,MacIntel,60.0024001,60c1a188c2924eeed13edeb2,61bbc5c79a1c66460f44041e,61bbc62c0eb0c2f3fbec9240,,,,,,-52.39086914,94.68640137,1,0,0,response7disk,0.8713,-10.25683594,21.74069214,1,0,0,rectangle,-10.25683594,21.74069214,1,0,0,-4,-3,"[139,133,155,25,66,118,54,105,78,57]",-10.25683594,21.74069214,1,0,0,0,20,20,8,1,Red,Red.jpg,Purple,Purple.jpg,,
,,,,,,,,,,,,,,,,,,-4,,,,,,,,,,,,,,,,,,,,,,,,,,,,001,2021-12-16_18h05.36.603,jm_natural_scene_simialrity_2-12-2021_version2,2021.2.3,MacIntel,60.0024001,60c1a188c2924eeed13edeb2,61bbc5c79a1c66460f44041e,61bbc62c0eb0c2f3fbec9240,,,,,,-52.01116943,114.6525269,1,0,0,response7disk,0.8713,14.86322021,-7.721832275,1,0,0,rectangle,14.86322021,-7.721832275,1,0,0,-4,-4,"[139,133,155,25,66,118,54,105,78,57]",14.86322021,-7.721832275,1,0,0,0,21,21,36,1,LightBlue,LightBlue.jpg,DarkBlue,DarkBlue.jpg,,
,,,,,,,,,,,,,,,,,,2,,,,,,,,,,,,,,,,,,,,,,,,,,,,001,2021-12-16_18h05.36.603,jm_natural_scene_simialrity_2-12-2021_version2,2021.2.3,MacIntel,60.0024001,60c1a188c2924eeed13edeb2,61bbc5c79a1c66460f44041e,61bbc62c0eb0c2f3fbec9240,,,,,,104.2044067,-38.43682861,1,0,0,response3disk,2.6699,-2.525878906,4.965362549,1,0,0,rectangle,-2.525878906,4.965362549,1,0,0,-4,-1,"[139,133,155,25,66,118,54,105,78,57]",-2.525878906,4.965362549,1,0,0,0,22,22,60,1,DarkGreen,DarkGreen.jpg,LightGreen,LightGreen.jpg,,
,,,,,,,,,,,,,,,,,,-4,,,,,,,,,,,,,,,,,,,,,,,,,,,,001,2021-12-16_18h05.36.603,jm_natural_scene_simialrity_2-12-2021_version2,2021.2.3,MacIntel,60.0024001,60c1a188c2924eeed13edeb2,61bbc5c79a1c66460f44041e,61bbc62c0eb0c2f3fbec9240,,,,,,-38.85272217,71.4480896,1,0,0,response7disk,0.7375,-5.742614746,-11.32705688,1,0,0,rectangle,-5.742614746,-11.32705688,1,0,0,-4,-2,"[139,133,155,25,66,118,54,105,78,57]",-5.742614746,-11.32705688,1,0,0,0,23,23,29,1,DarkGreen,DarkGreen.jpg,Purple,Purple.jpg,,
,,,,,,,,,,,,,,,,,,2,,,,,,,,,,,,,,,,,,,,,,,,,,,,001,2021-12-16_18h05.36.603,jm_natural_scene_simialrity_2-12-2021_version2,2021.2.3,MacIntel,60.0024001,60c1a188c2924eeed13edeb2,61bbc5c79a1c66460f44041e,61bbc62c0eb0c2f3fbec9240,,,,,,107.2544556,-28.22918701,1,0,0,response3disk,1.5831,6.792236328,12.3598938,1,0,0,rectangle,-64.97961426,-38.51602173,1,0,0,-4,-2,"[139,133,155,25,66,118,54,105,78,57]",-3.830505371,17.52230835,1,0,0,0,24,24,15,1,Yellow,Yellow.jpg,Pink,Pink.jpg,response5disk_3,rectangle
,,,,,,,,,,,,,,,,,,-4,,,,,,,,,,,,,,,,,,,,,,,,,,,,001,2021-12-16_18h05.36.603,jm_natural_scene_simialrity_2-12-2021_version2,2021.2.3,MacIntel,60.0024001,60c1a188c2924eeed13edeb2,61bbc5c79a1c66460f44041e,61bbc62c0eb0c2f3fbec9240,,,,,,-44.9979248,102.0858765,1,0,0,response7disk,1.7335,-3.750732422,13.79977417,1,0,0,rectangle,-3.750732422,13.79977417,1,0,0,-4,-3,"[139,133,155,25,66,118,54,105,78,57]",-3.750732422,13.79977417,1,0,0,0,25,25,74,1,Purple,Purple.jpg,Turquiose,Turquiose.jpg,,
,,,,,,,,,,,,,,,,,,4,,,,,,,,,,,,,,,,,,,,,,,,,,,,001,2021-12-16_18h05.36.603,jm_natural_scene_simialrity_2-12-2021_version2,2021.2.3,MacIntel,60.0024001,60c1a188c2924eeed13edeb2,61bbc5c79a1c66460f44041e,61bbc62c0eb0c2f3fbec9240,,,,,,65.72393799,89.23529053,1,0,0,response1disk,0.9354,17.1293335,1.387237549,1,0,0,rectangle,17.1293335,1.387237549,1,0,0,-4,-4,"[139,133,155,25,66,118,54,105,78,57]",17.1293335,1.387237549,1,0,0,0,26,26,44,1,Purple,Purple.jpg,Purple,Purple.jpg,,
,,,,,,,,,,,,,,,,,,-4,,,,,,,,,,,,,,,,,,,,,,,,,,,,001,2021-12-16_18h05.36.603,jm_natural_scene_simialrity_2-12-2021_version2,2021.2.3,MacIntel,60.0024001,60c1a188c2924eeed13edeb2,61bbc5c79a1c66460f44041e,61bbc62c0eb0c2f3fbec9240,,,,,,-42.52001953,73.38562012,1,0,0,response7disk,0.9547,-6.837097168,-5.899658203,1,0,0,rectangle,-6.837097168,-5.899658203,1,0,0,-4,3,"[139,133,155,25,66,118,54,105,78,57]",-6.837097168,-5.899658203,1,0,0,0,27,27,37,1,LightBlue,LightBlue.jpg,Pink,Pink.jpg,,
,,,,,,,,,,,,,,,,,,-4,,,,,,,,,,,,,,,,,,,,,,,,,,,,001,2021-12-16_18h05.36.603,jm_natural_scene_simialrity_2-12-2021_version2,2021.2.3,MacIntel,60.0024001,60c1a188c2924eeed13edeb2,61bbc5c79a1c66460f44041e,61bbc62c0eb0c2f3fbec9240,,,,,,-45.07049561,103.4366455,1,0,0,response7disk,0.9232,-14.94543457,-1.317626953,1,0,0,rectangle,-14.94543457,-1.317626953,1,0,0,-4,-1,"[139,133,155,25,66,118,54,105,78,57]",-14.94543457,-1.317626953,1,0,0,0,28,28,31,1,Turquiose,Turquiose.jpg,LightBlue,LightBlue.jpg,,
,,,,,,,,,,,,,,,,,,2,,,,,,,,,,,,,,,,,,,,,,,,,,,,001,2021-12-16_18h05.36.603,jm_natural_scene_simialrity_2-12-2021_version2,2021.2.3,MacIntel,60.0024001,60c1a188c2924eeed13edeb2,61bbc5c79a1c66460f44041e,61bbc62c0eb0c2f3fbec9240,,,,,,87.4954834,-38.75561523,1,0,0,response3disk,1.9376,8.010742188,12.83459473,1,0,0,rectangle,8.010742188,12.83459473,1,0,0,-4,-1,"[139,133,155,25,66,118,54,105,78,57]",8.010742188,12.83459473,1,0,0,0,29,29,75,1,DarkBlue,DarkBlue.jpg,LightBlue,LightBlue.jpg,,
,,,,,,,,,,,,,,,,,,2,,,,,,,,,,,,,,,,,,,,,,,,,,,,001,2021-12-16_18h05.36.603,jm_natural_scene_simialrity_2-12-2021_version2,2021.2.3,MacIntel,60.0024001,60c1a188c2924eeed13edeb2,61bbc5c79a1c66460f44041e,61bbc62c0eb0c2f3fbec9240,,,,,,85.37701416,-26.30026245,1,0,0,response3disk,1.065,8.045349121,-13.04733276,1,0,0,rectangle,8.045349121,-13.04733276,1,0,0,-4,-1,"[139,133,155,25,66,118,54,105,78,57]",8.045349121,-13.04733276,1,0,0,0,30,30,58,1,Pink,Pink.jpg,Yellow,Yellow.jpg,,
,,,,,,,,,,,,,,,,,,-4,,,,,,,,,,,,,,,,,,,,,,,,,,,,001,2021-12-16_18h05.36.603,jm_natural_scene_simialrity_2-12-2021_version2,2021.2.3,MacIntel,60.0024001,60c1a188c2924eeed13edeb2,61bbc5c79a1c66460f44041e,61bbc62c0eb0c2f3fbec9240,,,,,,-31.15405273,59.70147705,1,0,0,response7disk,0.8553,-11.60015869,2.338500977,1,0,0,rectangle,-11.60015869,2.338500977,1,0,0,-4,-1,"[139,133,155,25,66,118,54,105,78,57]",-11.60015869,2.338500977,1,0,0,0,31,31,57,1,DarkBlue,DarkBlue.jpg,Yellow,Yellow.jpg,,
,,,,,,,,,,,,,,,,,,-4,,,,,,,,,,,,,,,,,,,,,,,,,,,,001,2021-12-16_18h05.36.603,jm_natural_scene_simialrity_2-12-2021_version2,2021.2.3,MacIntel,60.0024001,60c1a188c2924eeed13edeb2,61bbc5c79a1c66460f44041e,61bbc62c0eb0c2f3fbec9240,,,,,,-32.625,59.03894043,1,0,0,response7disk,0.8489,-15.14385986,3.863342285,1,0,0,rectangle,-15.14385986,3.863342285,1,0,0,-4,-1,"[139,133,155,25,66,118,54,105,78,57]",-15.14385986,3.863342285,1,0,0,0,32,32,34,1,Turquiose,Turquiose.jpg,Purple,Purple.jpg,,
,,,,,,,,,,,,,,,,,,-4,,,,,,,,,,,,,,,,,,,,,,,,,,,,001,2021-12-16_18h05.36.603,jm_natural_scene_simialrity_2-12-2021_version2,2021.2.3,MacIntel,60.0024001,60c1a188c2924eeed13edeb2,61bbc5c79a1c66460f44041e,61bbc62c0eb0c2f3fbec9240,,,,,,-31.21881104,42.44421387,1,0,0,response7disk,1.069,-6.027832031,-4.675140381,1,0,0,rectangle,-6.027832031,-4.675140381,1,0,0,-4,-3,"[139,133,155,25,66,118,54,105,78,57]",-6.027832031,-4.675140381,1,0,0,0,33,33,63,1,DarkBlue,DarkBlue.jpg,LightGreen,LightGreen.jpg,,
,,,,,,,,,,,,,,,,,,-4,,,,,,,,,,,,,,,,,,,,,,,,,,,,001,2021-12-16_18h05.36.603,jm_natural_scene_simialrity_2-12-2021_version2,2021.2.3,MacIntel,60.0024001,60c1a188c2924eeed13edeb2,61bbc5c79a1c66460f44041e,61bbc62c0eb0c2f3fbec9240,,,,,,-53.00964355,68.01507568,1,0,0,response7disk,0.9043,-17.68359375,13.09994507,1,0,0,rectangle,-17.68359375,13.09994507,1,0,0,-4,-1,"[139,133,155,25,66,118,54,105,78,57]",-17.68359375,13.09994507,1,0,0,0,34,34,73,1,Pink,Pink.jpg,Turquiose,Turquiose.jpg,,
,,,,,,,,,,,,,,,,,,-4,,,,,,,,,,,,,,,,,,,,,,,,,,,,001,2021-12-16_18h05.36.603,jm_natural_scene_simialrity_2-12-2021_version2,2021.2.3,MacIntel,60.0024001,60c1a188c2924eeed13edeb2,61bbc5c79a1c66460f44041e,61bbc62c0eb0c2f3fbec9240,,,,,,-46.29089355,74.61999512,1,0,0,response7disk,10.5499,-5.366027832,12.60992432,1,0,0,rectangle,-5.366027832,12.60992432,1,0,0,-4,-1,"[139,133,155,25,66,118,54,105,78,57]",-5.366027832,12.60992432,1,0,0,0,35,35,70,1,Purple,Purple.jpg,DarkGreen,DarkGreen.jpg,,
,,,,,,,,,,,,,,,,,,-4,,,,,,,,,,,,,,,,,,,,,,,,,,,,001,2021-12-16_18h05.36.603,jm_natural_scene_simialrity_2-12-2021_version2,2021.2.3,MacIntel,60.0024001,60c1a188c2924eeed13edeb2,61bbc5c79a1c66460f44041e,61bbc62c0eb0c2f3fbec9240,,,,,,-25.52453613,68.29220581,1,0,0,response7disk,0.8713,13.07122803,-6.833221436,1,0,0,rectangle,13.07122803,-6.833221436,1,0,0,-4,-2,"[139,133,155,25,66,118,54,105,78,57]",13.07122803,-6.833221436,1,0,0,0,36,36,21,1,LightGreen,LightGreen.jpg,DarkBlue,DarkBlue.jpg,,
,,,,,,,,,,,,,,,,,,2,,,,,,,,,,,,,,,,,,,,,,,,,,,,001,2021-12-16_18h05.36.603,jm_natural_scene_simialrity_2-12-2021_version2,2021.2.3,MacIntel,60.0024001,60c1a188c2924eeed13edeb2,61bbc5c79a1c66460f44041e,61bbc62c0eb0c2f3fbec9240,,,,,,62.43536377,-47.18569946,1,0,0,response3disk,1.4403,-13.03619385,1.260314941,1,0,0,rectangle,-13.03619385,1.260314941,1,0,0,-4,1,"[139,133,155,25,66,118,54,105,78,57]",-13.03619385,1.260314941,1,0,0,0,37,37,51,1,Pink,Pink.jpg,Red,Red.jpg,,
,,,,,,,,,,,,,,,,,,-4,,,,,,,,,,,,,,,,,,,,,,,,,,,,001,2021-12-16_18h05.36.603,jm_natural_scene_simialrity_2-12-2021_version2,2021.2.3,MacIntel,60.0024001,60c1a188c2924eeed13edeb2,61bbc5c79a1c66460f44041e,61bbc62c0eb0c2f3fbec9240,,,,,,-28.39105225,82.91659546,1,0,0,response7disk,1.3349,11.87567139,9.859863281,1,0,0,rectangle,11.87567139,9.859863281,1,0,0,-4,-4,"[139,133,155,25,66,118,54,105,78,57]",11.87567139,9.859863281,1,0,0,0,38,38,2,1,Red,Red.jpg,LightGreen,LightGreen.jpg,,
,,,,,,,,,,,,,,,,,,4,,,,,,,,,,,,,,,,,,,,,,,,,,,,001,2021-12-16_18h05.36.603,jm_natural_scene_simialrity_2-12-2021_version2,2021.2.3,MacIntel,60.0024001,60c1a188c2924eeed13edeb2,61bbc5c79a1c66460f44041e,61bbc62c0eb0c2f3fbec9240,,,,,,49.40722656,97.98754883,1,0,0,response1disk,1.0876,5.321716309,7.877288818,1,0,0,rectangle,5.321716309,7.877288818,1,0,0,-4,-1,"[139,133,155,25,66,118,54,105,78,57]",5.321716309,7.877288818,1,0,0,0,39,39,35,1,LightBlue,LightBlue.jpg,LightBlue,LightBlue.jpg,,
,,,,,,,,,,,,,,,,,,-4,,,,,,,,,,,,,,,,,,,,,,,,,,,,001,2021-12-16_18h05.36.603,jm_natural_scene_simialrity_2-12-2021_version2,2021.2.3,MacIntel,60.0024001,60c1a188c2924eeed13edeb2,61bbc5c79a1c66460f44041e,61bbc62c0eb0c2f3fbec9240,,,,,,-35.70568848,54.74530029,1,0,0,response7disk,0.7602,-5.046264648,1.321716309,1,0,0,rectangle,-5.046264648,1.321716309,1,0,0,-4,-3,"[139,133,155,25,66,118,54,105,78,57]",-5.046264648,1.321716309,1,0,0,0,40,40,10,1,Yellow,Yellow.jpg,LightGreen,LightGreen.jpg,,
,,,,,,,,,,,,,,,,,,-4,,,,,,,,,,,,,,,,,,,,,,,,,,,,001,2021-12-16_18h05.36.603,jm_natural_scene_simialrity_2-12-2021_version2,2021.2.3,MacIntel,60.0024001,60c1a188c2924eeed13edeb2,61bbc5c79a1c66460f44041e,61bbc62c0eb0c2f3fbec9240,,,,,,-46.07397461,54.37744141,1,0,0,response7disk,0.7669,-8.362121582,-6.347900391,1,0,0,rectangle,-8.362121582,-6.347900391,1,0,0,-4,2,"[139,133,155,25,66,118,54,105,78,57]",-8.362121582,-6.347900391,1,0,0,0,41,41,40,1,DarkBlue,DarkBlue.jpg,Pink,Pink.jpg,,
,,,,,,,,,,,,,,,,,,-4,,,,,,,,,,,,,,,,,,,,,,,,,,,,001,2021-12-16_18h05.36.603,jm_natural_scene_simialrity_2-12-2021_version2,2021.2.3,MacIntel,60.0024001,60c1a188c2924eeed13edeb2,61bbc5c79a1c66460f44041e,61bbc62c0eb0c2f3fbec9240,,,,,,-40.26574707,52.18771362,1,0,0,response7disk,0.5833,-16.8515625,7.181121826,1,0,0,rectangle,-16.8515625,7.181121826,1,0,0,-4,2,"[139,133,155,25,66,118,54,105,78,57]",-16.8515625,7.181121826,1,0,0,0,42,42,4,1,Red,Red.jpg,Turquiose,Turquiose.jpg,,
,,,,,,,,,,,,,,,,,,-2,,,,,,,,,,,,,,,,,,,,,,,,,,,,001,2021-12-16_18h05.36.603,jm_natural_scene_simialrity_2-12-2021_version2,2021.2.3,MacIntel,60.0024001,60c1a188c2924eeed13edeb2,61bbc5c79a1c66460f44041e,61bbc62c0eb0c2f3fbec9240,,,,,,-65.66522217,-27.15301514,1,0,0,response5disk,1.4341,-10.27832031,17.45932007,1,0,0,rectangle,-10.27832031,17.45932007,1,0,0,-4,2,"[139,133,155,25,66,118,54,105,78,57]",-10.27832031,17.45932007,1,0,0,0,43,43,11,1,Yellow,Yellow.jpg,DarkGreen,DarkGreen.jpg,,
,,,,,,,,,,,,,,,,,,-2,,,,,,,,,,,,,,,,,,,,,,,,,,,,001,2021-12-16_18h05.36.603,jm_natural_scene_simialrity_2-12-2021_version2,2021.2.3,MacIntel,60.0024001,60c1a188c2924eeed13edeb2,61bbc5c79a1c66460f44041e,61bbc62c0eb0c2f3fbec9240,,,,,,-82.28186035,-26.03997803,1,0,0,response5disk,1.6844,1.316833496,13.60223389,1,0,0,rectangle,1.316833496,13.60223389,1,0,0,-4,-4,"[139,133,155,25,66,118,54,105,78,57]",1.316833496,13.60223389,1,0,0,0,44,44,1,1,Red,Red.jpg,Yellow,Yellow.jpg,,
,,,,,,,,,,,,,,,,,,-2,,,,,,,,,,,,,,,,,,,,,,,,,,,,001,2021-12-16_18h05.36.603,jm_natural_scene_simialrity_2-12-2021_version2,2021.2.3,MacIntel,60.0024001,60c1a188c2924eeed13edeb2,61bbc5c79a1c66460f44041e,61bbc62c0eb0c2f3fbec9240,,,,,,-35.37512207,-27.60794067,1,0,0,response5disk,2.1508,-17.08319092,6.202606201,1,0,0,rectangle,-17.08319092,6.202606201,1,0,0,-4,-2,"[139,133,155,25,66,118,54,105,78,57]",-17.08319092,6.202606201,1,0,0,0,45,45,19,1,LightGreen,LightGreen.jpg,Turquiose,Turquiose.jpg,,
,,,,,,,,,,,,,,,,,,-4,,,,,,,,,,,,,,,,,,,,,,,,,,,,001,2021-12-16_18h05.36.603,jm_natural_scene_simialrity_2-12-2021_version2,2021.2.3,MacIntel,60.0024001,60c1a188c2924eeed13edeb2,61bbc5c79a1c66460f44041e,61bbc62c0eb0c2f3fbec9240,,,,,,-31.74212646,72.60122681,1,0,0,response7disk,0.8961,-7.434326172,22.42016602,1,0,0,rectangle,-7.434326172,22.42016602,1,0,0,-4,1,"[139,133,155,25,66,118,54,105,78,57]",-7.434326172,22.42016602,1,0,0,0,46,46,56,1,LightBlue,LightBlue.jpg,Yellow,Yellow.jpg,,
,,,,,,,,,,,,,,,,,,-2,,,,,,,,,,,,,,,,,,,,,,,,,,,,001,2021-12-16_18h05.36.603,jm_natural_scene_simialrity_2-12-2021_version2,2021.2.3,MacIntel,60.0024001,60c1a188c2924eeed13edeb2,61bbc5c79a1c66460f44041e,61bbc62c0eb0c2f3fbec9240,,,,,,-55.05780029,-36.29989624,1,0,0,response5disk,1.0863,4.810546875,-7.230194092,1,0,0,rectangle,4.810546875,-7.230194092,1,0,0,-4,-3,"[139,133,155,25,66,118,54,105,78,57]",4.810546875,-7.230194092,1,0,0,0,47,47,80,1,Purple,Purple.jpg,Pink,Pink.jpg,,
,,,,,,,,,,,,,,,,,,4,,,,,,,,,,,,,,,,,,,,,,,,,,,,001,2021-12-16_18h05.36.603,jm_natural_scene_simialrity_2-12-2021_version2,2021.2.3,MacIntel,60.0024001,60c1a188c2924eeed13edeb2,61bbc5c79a1c66460f44041e,61bbc62c0eb0c2f3fbec9240,,,,,,40.12542725,90.42602539,1,0,0,response1disk,1.1498,0.820922852,-10.36251831,1,0,0,rectangle,0.820922852,-10.36251831,1,0,0,-4,-2,"[139,133,155,25,66,118,54,105,78,57]",0.820922852,-10.36251831,1,0,0,0,48,48,42,1,Pink,Pink.jpg,Pink,Pink.jpg,,
,,,,,,,,,,,,,,,,,,-4,,,,,,,,,,,,,,,,,,,,,,,,,,,,001,2021-12-16_18h05.36.603,jm_natural_scene_simialrity_2-12-2021_version2,2021.2.3,MacIntel,60.0024001,60c1a188c2924eeed13edeb2,61bbc5c79a1c66460f44041e,61bbc62c0eb0c2f3fbec9240,,,,,,-30.95843506,69.54953003,1,0,0,response7disk,0.9504,12.97344971,-7.673950195,1,0,0,rectangle,12.97344971,-7.673950195,1,0,0,-4,-3,"[139,133,155,25,66,118,54,105,78,57]",12.97344971,-7.673950195,1,0,0,0,49,49,12,1,Yellow,Yellow.jpg,Turquiose,Turquiose.jpg,,
,,,,,,,,,,,,,,,,,,-4,,,,,,,,,,,,,,,,,,,,,,,,,,,,001,2021-12-16_18h05.36.603,jm_natural_scene_simialrity_2-12-2021_version2,2021.2.3,MacIntel,60.0024001,60c1a188c2924eeed13edeb2,61bbc5c79a1c66460f44041e,61bbc62c0eb0c2f3fbec9240,,,,,,-28.46179199,65.97915649,1,0,0,response7disk,1.2612,-2.130981445,7.879119873,1,0,0,rectangle,-2.130981445,7.879119873,1,0,0,-4,-1,"[139,133,155,25,66,118,54,105,78,57]",-2.130981445,7.879119873,1,0,0,0,50,50,66,1,Turquiose,Turquiose.jpg,DarkGreen,DarkGreen.jpg,,
,,,,,,,,,,,,,,,,,,-4,,,,,,,,,,,,,,,,,,,,,,,,,,,,001,2021-12-16_18h05.36.603,jm_natural_scene_simialrity_2-12-2021_version2,2021.2.3,MacIntel,60.0024001,60c1a188c2924eeed13edeb2,61bbc5c79a1c66460f44041e,61bbc62c0eb0c2f3fbec9240,,,,,,-38.00170898,70.7673645,1,0,0,response7disk,0.6497,-7.445617676,9.484619141,1,0,0,rectangle,-7.445617676,9.484619141,1,0,0,-4,-3,"[139,133,155,25,66,118,54,105,78,57]",-7.445617676,9.484619141,1,0,0,0,51,51,23,1,LightGreen,LightGreen.jpg,Purple,Purple.jpg,,
,,,,,,,,,,,,,,,,,,-4,,,,,,,,,,,,,,,,,,,,,,,,,,,,001,2021-12-16_18h05.36.603,jm_natural_scene_simialrity_2-12-2021_version2,2021.2.3,MacIntel,60.0024001,60c1a188c2924eeed13edeb2,61bbc5c79a1c66460f44041e,61bbc62c0eb0c2f3fbec9240,,,,,,-62.38470459,63.34194946,1,0,0,response7disk,0.6219,-17.01513672,0.725646973,1,0,0,rectangle,-17.01513672,0.725646973,1,0,0,-4,-1,"[139,133,155,25,66,118,54,105,78,57]",-17.01513672,0.725646973,1,0,0,0,52,52,27,1,DarkGreen,DarkGreen.jpg,DarkBlue,DarkBlue.jpg,,
,,,,,,,,,,,,,,,,,,-4,,,,,,,,,,,,,,,,,,,,,,,,,,,,001,2021-12-16_18h05.36.603,jm_natural_scene_simialrity_2-12-2021_version2,2021.2.3,MacIntel,60.0024001,60c1a188c2924eeed13edeb2,61bbc5c79a1c66460f44041e,61bbc62c0eb0c2f3fbec9240,,,,,,-37.58496094,71.54013062,1,0,0,response7disk,0.7343,8.112060547,-17.8465271,1,0,0,rectangle,-67.27404785,-39.48980713,1,0,0,-4,-2,"[139,133,155,25,66,118,54,105,78,57]",-6.413696289,5.150695801,1,0,0,0,53,53,22,1,LightGreen,LightGreen.jpg,Pink,Pink.jpg,response5disk_3,rectangle
,,,,,,,,,,,,,,,,,,2,,,,,,,,,,,,,,,,,,,,,,,,,,,,001,2021-12-16_18h05.36.603,jm_natural_scene_simialrity_2-12-2021_version2,2021.2.3,MacIntel,60.0024001,60c1a188c2924eeed13edeb2,61bbc5c79a1c66460f44041e,61bbc62c0eb0c2f3fbec9240,,,,,,60.05383301,-33.10751343,1,0,0,response3disk,1.1392,-6.386901855,-2.00100708,1,0,0,rectangle,-6.386901855,-2.00100708,1,0,0,-4,-3,"[139,133,155,25,66,118,54,105,78,57]",-6.386901855,-2.00100708,1,0,0,0,54,54,18,1,LightGreen,LightGreen.jpg,DarkGreen,DarkGreen.jpg,,
,,,,,,,,,,,,,,,,,,-4,,,,,,,,,,,,,,,,,,,,,,,,,,,,001,2021-12-16_18h05.36.603,jm_natural_scene_simialrity_2-12-2021_version2,2021.2.3,MacIntel,60.0024001,60c1a188c2924eeed13edeb2,61bbc5c79a1c66460f44041e,61bbc62c0eb0c2f3fbec9240,,,,,,-43.80078125,59.36502075,1,0,0,response7disk,0.8128,-18.52404785,3.167877197,1,0,0,rectangle,-18.52404785,3.167877197,1,0,0,-4,1,"[139,133,155,25,66,118,54,105,78,57]",-18.52404785,3.167877197,1,0,0,0,55,55,3,1,Red,Red.jpg,DarkGreen,DarkGreen.jpg,,
,,,,,,,,,,,,,,,,,,-4,,,,,,,,,,,,,,,,,,,,,,,,,,,,001,2021-12-16_18h05.36.603,jm_natural_scene_simialrity_2-12-2021_version2,2021.2.3,MacIntel,60.0024001,60c1a188c2924eeed13edeb2,61bbc5c79a1c66460f44041e,61bbc62c0eb0c2f3fbec9240,,,,,,-44.92767334,76.66873169,1,0,0,response7disk,0.7194,-15.06018066,4.892547607,1,0,0,rectangle,79.0501709,47.48712158,1,0,0,3,3,"[139,133,155,25,66,118,54,105,78,57]",2.142211914,-2.294433594,1,0,0,0,56,56,25,1,DarkGreen,DarkGreen.jpg,Turquiose,Turquiose.jpg,response1disk_3,rectangle
,,,,,,,,,,,,,,,,,,4,,,,,,,,,,,,,,,,,,,,,,,,,,,,001,2021-12-16_18h05.36.603,jm_natural_scene_simialrity_2-12-2021_version2,2021.2.3,MacIntel,60.0024001,60c1a188c2924eeed13edeb2,61bbc5c79a1c66460f44041e,61bbc62c0eb0c2f3fbec9240,,,,,,32.6953125,82.11050415,1,0,0,response1disk,0.7962,20.90063477,12.50222778,1,0,0,rectangle,20.90063477,12.50222778,1,0,0,3,-3,"[139,133,155,25,66,118,54,105,78,57]",20.90063477,12.50222778,1,0,0,0,57,57,39,1,DarkBlue,DarkBlue.jpg,DarkBlue,DarkBlue.jpg,,
,,,,,,,,,,,,,,,,,,3,,,,,,,,,,,,,,,,,,,,,,,,,,,,001,2021-12-16_18h05.36.603,jm_natural_scene_simialrity_2-12-2021_version2,2021.2.3,MacIntel,60.0024001,60c1a188c2924eeed13edeb2,61bbc5c79a1c66460f44041e,61bbc62c0eb0c2f3fbec9240,,,,,,95.77581787,44.37359619,1,0,0,response1disk,0.7943,12.84667969,-2.423309326,1,0,0,rectangle,12.84667969,-2.423309326,1,0,0,3,1,"[139,133,155,25,66,118,54,105,78,57]",12.84667969,-2.423309326,1,0,0,0,58,58,7,1,Red,Red.jpg,Pink,Pink.jpg,,
,,,,,,,,,,,,,,,,,,-4,,,,,,,,,,,,,,,,,,,,,,,,,,,,001,2021-12-16_18h05.36.603,jm_natural_scene_simialrity_2-12-2021_version2,2021.2.3,MacIntel,60.0024001,60c1a188c2924eeed13edeb2,61bbc5c79a1c66460f44041e,61bbc62c0eb0c2f3fbec9240,,,,,,-42.64300537,86.6651001,1,0,0,response7disk,1.2161,-3.05291748,11.07702637,1,0,0,rectangle,-3.05291748,11.07702637,1,0,0,3,-3,"[139,133,155,25,66,118,54,105,78,57]",-3.05291748,11.07702637,1,0,0,0,59,59,49,1,LightBlue,LightBlue.jpg,Red,Red.jpg,,
,,,,,,,,,,,,,,,,,,-4,,,,,,,,,,,,,,,,,,,,,,,,,,,,001,2021-12-16_18h05.36.603,jm_natural_scene_simialrity_2-12-2021_version2,2021.2.3,MacIntel,60.0024001,60c1a188c2924eeed13edeb2,61bbc5c79a1c66460f44041e,61bbc62c0eb0c2f3fbec9240,,,,,,-30.76428223,74.46990967,1,0,0,response7disk,0.6338,-2.782043457,24.86978149,1,0,0,rectangle,-2.782043457,24.86978149,1,0,0,3,1,"[139,133,155,25,66,118,54,105,78,57]",-2.782043457,24.86978149,1,0,0,0,60,60,6,1,Red,Red.jpg,DarkBlue,DarkBlue.jpg,,
,,,,,,,,,,,,,,,,,,-4,,,,,,,,,,,,,,,,,,,,,,,,,,,,001,2021-12-16_18h05.36.603,jm_natural_scene_simialrity_2-12-2021_version2,2021.2.3,MacIntel,60.0024001,60c1a188c2924eeed13edeb2,61bbc5c79a1c66460f44041e,61bbc62c0eb0c2f3fbec9240,,,,,,-38.45703125,82.24957275,1,0,0,response7disk,0.8688,0.596801758,10.78649902,1,0,0,rectangle,0.596801758,10.78649902,1,0,0,3,-4,"[139,133,155,25,66,118,54,105,78,57]",0.596801758,10.78649902,1,0,0,0,61,61,53,1,LightGreen,LightGreen.jpg,Yellow,Yellow.jpg,,
,,,,,,,,,,,,,,,,,,-4,,,,,,,,,,,,,,,,,,,,,,,,,,,,001,2021-12-16_18h05.36.603,jm_natural_scene_simialrity_2-12-2021_version2,2021.2.3,MacIntel,60.0024001,60c1a188c2924eeed13edeb2,61bbc5c79a1c66460f44041e,61bbc62c0eb0c2f3fbec9240,,,,,,-34.33380127,95.08218384,1,0,0,response7disk,1.0121,13.40008545,2.181549072,1,0,0,rectangle,13.40008545,2.181549072,1,0,0,3,1,"[139,133,155,25,66,118,54,105,78,57]",13.40008545,2.181549072,1,0,0,0,62,62,62,1,LightBlue,LightBlue.jpg,LightGreen,LightGreen.jpg,,
,,,,,,,,,,,,,,,,,,-4,,,,,,,,,,,,,,,,,,,,,,,,,,,,001,2021-12-16_18h05.36.603,jm_natural_scene_simialrity_2-12-2021_version2,2021.2.3,MacIntel,60.0024001,60c1a188c2924eeed13edeb2,61bbc5c79a1c66460f44041e,61bbc62c0eb0c2f3fbec9240,,,,,,-67.71813965,90.14440918,1,0,0,response7disk,0.6669,-17.47198486,-9.688201904,1,0,0,rectangle,-17.47198486,-9.688201904,1,0,0,3,-3,"[139,133,155,25,66,118,54,105,78,57]",-17.47198486,-9.688201904,1,0,0,0,63,63,72,1,DarkBlue,DarkBlue.jpg,Turquiose,Turquiose.jpg,,
,,,,,,,,,,,,,,,,,,-4,,,,,,,,,,,,,,,,,,,,,,,,,,,,001,2021-12-16_18h05.36.603,jm_natural_scene_simialrity_2-12-2021_version2,2021.2.3,MacIntel,60.0024001,60c1a188c2924eeed13edeb2,61bbc5c79a1c66460f44041e,61bbc62c0eb0c2f3fbec9240,,,,,,-51.02423096,87.3052063,1,0,0,response7disk,0.7985,-16.8637085,-8.809814453,1,0,0,rectangle,-16.8637085,-8.809814453,1,0,0,3,2,"[139,133,155,25,66,118,54,105,78,57]",-16.8637085,-8.809814453,1,0,0,0,64,64,67,1,LightBlue,LightBlue.jpg,DarkGreen,DarkGreen.jpg,,
,,,,,,,,,,,,,,,,,,4,,,,,,,,,,,,,,,,,,,,,,,,,,,,001,2021-12-16_18h05.36.603,jm_natural_scene_simialrity_2-12-2021_version2,2021.2.3,MacIntel,60.0024001,60c1a188c2924eeed13edeb2,61bbc5c79a1c66460f44041e,61bbc62c0eb0c2f3fbec9240,,,,,,54.23986816,101.4890747,1,0,0,response1disk,0.9032,-5.983398438,16.25952148,1,0,0,rectangle,88.87054443,38.74081421,1,0,0,3,3,"[139,133,155,25,66,118,54,105,78,57]",4.932312012,2.43951416,1,0,0,0,65,65,9,1,Yellow,Yellow.jpg,Yellow,Yellow.jpg,response1disk_3,rectangle
,,,,,,,,,,,,,,,,,,4,,,,,,,,,,,,,,,,,,,,,,,,,,,,001,2021-12-16_18h05.36.603,jm_natural_scene_simialrity_2-12-2021_version2,2021.2.3,MacIntel,60.0024001,60c1a188c2924eeed13edeb2,61bbc5c79a1c66460f44041e,61bbc62c0eb0c2f3fbec9240,,,,,,36.41796875,77.55020142,1,0,0,response1disk,1.5681,-15.34991455,14.7144165,1,0,0,rectangle,-15.34991455,14.7144165,1,0,0,3,-4,"[139,133,155,25,66,118,54,105,78,57]",-15.34991455,14.7144165,1,0,0,0,66,66,68,1,DarkBlue,DarkBlue.jpg,DarkGreen,DarkGreen.jpg,,
,,,,,,,,,,,,,,,,,,-4,,,,,,,,,,,,,,,,,,,,,,,,,,,,001,2021-12-16_18h05.36.603,jm_natural_scene_simialrity_2-12-2021_version2,2021.2.3,MacIntel,60.0024001,60c1a188c2924eeed13edeb2,61bbc5c79a1c66460f44041e,61bbc62c0eb0c2f3fbec9240,,,,,,-78.86755371,90.85748291,1,0,0,response7disk,1.1295,-6.927124023,-7.455841064,1,0,0,rectangle,-6.927124023,-7.455841064,1,0,0,3,3,"[139,133,155,25,66,118,54,105,78,57]",-6.927124023,-7.455841064,1,0,0,0,67,67,65,1,Purple,Purple.jpg,LightGreen,LightGreen.jpg,,
,,,,,,,,,,,,,,,,,,-4,,,,,,,,,,,,,,,,,,,,,,,,,,,,001,2021-12-16_18h05.36.603,jm_natural_scene_simialrity_2-12-2021_version2,2021.2.3,MacIntel,60.0024001,60c1a188c2924eeed13edeb2,61bbc5c79a1c66460f44041e,61bbc62c0eb0c2f3fbec9240,,,,,,-28.98571777,66.36737061,1,0,0,response7disk,0.6839,6.557739258,-9.410247803,1,0,0,rectangle,6.557739258,-9.410247803,1,0,0,3,-2,"[139,133,155,25,66,118,54,105,78,57]",6.557739258,-9.410247803,1,0,0,0,68,68,79,1,Purple,Purple.jpg,DarkBlue,DarkBlue.jpg,,
,,,,,,,,,,,,,,,,,,-4,,,,,,,,,,,,,,,,,,,,,,,,,,,,001,2021-12-16_18h05.36.603,jm_natural_scene_simialrity_2-12-2021_version2,2021.2.3,MacIntel,60.0024001,60c1a188c2924eeed13edeb2,61bbc5c79a1c66460f44041e,61bbc62c0eb0c2f3fbec9240,,,,,,-44.32293701,71.02230835,1,0,0,response7disk,0.7153,-7.956848145,-4.159484863,1,0,0,rectangle,-7.956848145,-4.159484863,1,0,0,3,3,"[139,133,155,25,66,118,54,105,78,57]",-7.956848145,-4.159484863,1,0,0,0,69,69,46,1,LightGreen,LightGreen.jpg,Red,Red.jpg,,
,,,,,,,,,,,,,,,,,,4,,,,,,,,,,,,,,,,,,,,,,,,,,,,001,2021-12-16_18h05.36.603,jm_natural_scene_simialrity_2-12-2021_version2,2021.2.3,MacIntel,60.0024001,60c1a188c2924eeed13edeb2,61bbc5c79a1c66460f44041e,61bbc62c0eb0c2f3fbec9240,,,,,,36.59088135,104.0373535,1,0,0,response1disk,1.183,12.79144287,15.09460449,1,0,0,rectangle,12.79144287,15.09460449,1,0,0,3,1,"[139,133,155,25,66,118,54,105,78,57]",12.79144287,15.09460449,1,0,0,0,70,70,30,1,Turquiose,Turquiose.jpg,Turquiose,Turquiose.jpg,,
,,,,,,,,,,,,,,,,,,-4,,,,,,,,,,,,,,,,,,,,,,,,,,,,001,2021-12-16_18h05.36.603,jm_natural_scene_simialrity_2-12-2021_version2,2021.2.3,MacIntel,60.0024001,60c1a188c2924eeed13edeb2,61bbc5c79a1c66460f44041e,61bbc62c0eb0c2f3fbec9240,,,,,,-43.73699951,88.64846802,1,0,0,response7disk,0.9331,-11.06616211,2.974975586,1,0,0,rectangle,-11.06616211,2.974975586,1,0,0,3,3,"[139,133,155,25,66,118,54,105,78,57]",-11.06616211,2.974975586,1,0,0,0,71,71,20,1,LightGreen,LightGreen.jpg,LightBlue,LightBlue.jpg,,
,,,,,,,,,,,,,,,,,,-4,,,,,,,,,,,,,,,,,,,,,,,,,,,,001,2021-12-16_18h05.36.603,jm_natural_scene_simialrity_2-12-2021_version2,2021.2.3,MacIntel,60.0024001,60c1a188c2924eeed13edeb2,61bbc5c79a1c66460f44041e,61bbc62c0eb0c2f3fbec9240,,,,,,-42.42565918,93.27560425,1,0,0,response7disk,1.3872,-3.008728027,12.78927612,1,0,0,rectangle,-3.008728027,12.78927612,1,0,0,3,3,"[139,133,155,25,66,118,54,105,78,57]",-3.008728027,12.78927612,1,0,0,0,72,72,50,1,DarkBlue,DarkBlue.jpg,Red,Red.jpg,,
,,,,,,,,,,,,,,,,,,3,,,,,,,,,,,,,,,,,,,,,,,,,,,,001,2021-12-16_18h05.36.603,jm_natural_scene_simialrity_2-12-2021_version2,2021.2.3,MacIntel,60.0024001,60c1a188c2924eeed13edeb2,61bbc5c79a1c66460f44041e,61bbc62c0eb0c2f3fbec9240,,,,,,113.9907227,39.62283325,1,0,0,response1disk,1.1178,-18.70251465,-2.459136963,1,0,0,rectangle,-18.70251465,-2.459136963,1,0,0,3,-3,"[139,133,155,25,66,118,54,105,78,57]",-18.70251465,-2.459136963,1,0,0,0,73,73,45,1,Yellow,Yellow.jpg,Red,Red.jpg,,
,,,,,,,,,,,,,,,,,,-4,,,,,,,,,,,,,,,,,,,,,,,,,,,,001,2021-12-16_18h05.36.603,jm_natural_scene_simialrity_2-12-2021_version2,2021.2.3,MacIntel,60.0024001,60c1a188c2924eeed13edeb2,61bbc5c79a1c66460f44041e,61bbc62c0eb0c2f3fbec9240,,,,,,-21.45452881,63.80325317,1,0,0,response7disk,0.867,14.50201416,-16.20391846,1,0,0,rectangle,14.50201416,-16.20391846,1,0,0,3,-2,"[139,133,155,25,66,118,54,105,78,57]",14.50201416,-16.20391846,1,0,0,0,74,74,48,1,Turquiose,Turquiose.jpg,Red,Red.jpg,,
,,,,,,,,,,,,,,,,,,-4,,,,,,,,,,,,,,,,,,,,,,,,,,,,001,2021-12-16_18h05.36.603,jm_natural_scene_simialrity_2-12-2021_version2,2021.2.3,MacIntel,60.0024001,60c1a188c2924eeed13edeb2,61bbc5c79a1c66460f44041e,61bbc62c0eb0c2f3fbec9240,,,,,,-19.83905029,65.88464355,1,0,0,response7disk,1.0175,8.961181641,-3.168243408,1,0,0,rectangle,8.961181641,-3.168243408,1,0,0,3,-4,"[139,133,155,25,66,118,54,105,78,57]",8.961181641,-3.168243408,1,0,0,0,75,75,78,1,Pink,Pink.jpg,DarkBlue,DarkBlue.jpg,,
,,,,,,,,,,,,,,,,,,-4,,,,,,,,,,,,,,,,,,,,,,,,,,,,001,2021-12-16_18h05.36.603,jm_natural_scene_simialrity_2-12-2021_version2,2021.2.3,MacIntel,60.0024001,60c1a188c2924eeed13edeb2,61bbc5c79a1c66460f44041e,61bbc62c0eb0c2f3fbec9240,,,,,,-39.269104,107.0879822,1,0,0,response7disk,0.805,7.584716797,4.687103271,1,0,0,rectangle,7.584716797,4.687103271,1,0,0,3,3,"[139,133,155,25,66,118,54,105,78,57]",7.584716797,4.687103271,1,0,0,0,76,76,13,1,Yellow,Yellow.jpg,LightBlue,LightBlue.jpg,,
,,,,,,,,,,,,,,,,,,-4,,,,,,,,,,,,,,,,,,,,,,,,,,,,001,2021-12-16_18h05.36.603,jm_natural_scene_simialrity_2-12-2021_version2,2021.2.3,MacIntel,60.0024001,60c1a188c2924eeed13edeb2,61bbc5c79a1c66460f44041e,61bbc62c0eb0c2f3fbec9240,,,,,,-74.22802734,118.451416,1,0,0,response7disk,0.6377,-9.517089844,-7.976379395,1,0,0,rectangle,-70.76074219,104.3955078,1,0,0,-4,-4,"[139,133,155,25,66,118,54,105,78,57]",-11.18280029,-9.661254883,1,0,0,0,77,77,47,1,DarkGreen,DarkGreen.jpg,Red,Red.jpg,response7disk_3,rectangle
,,,,,,,,,,,,,,,,,,-4,,,,,,,,,,,,,,,,,,,,,,,,,,,,001,2021-12-16_18h05.36.603,jm_natural_scene_simialrity_2-12-2021_version2,2021.2.3,MacIntel,60.0024001,60c1a188c2924eeed13edeb2,61bbc5c79a1c66460f44041e,61bbc62c0eb0c2f3fbec9240,,,,,,-50.87304688,106.8491821,1,0,0,response7disk,0.8126,-10.44500732,2.356994629,1,0,0,rectangle,-10.44500732,2.356994629,1,0,0,-4,-2,"[139,133,155,25,66,118,54,105,78,57]",-10.44500732,2.356994629,1,0,0,0,78,78,41,1,DarkBlue,DarkBlue.jpg,Purple,Purple.jpg,,
,,,,,,,,,,,,,,,,,,4,,,,,,,,,,,,,,,,,,,,,,,,,,,,001,2021-12-16_18h05.36.603,jm_natural_scene_simialrity_2-12-2021_version2,2021.2.3,MacIntel,60.0024001,60c1a188c2924eeed13edeb2,61bbc5c79a1c66460f44041e,61bbc62c0eb0c2f3fbec9240,,,,,,57.90710449,100.8109131,1,0,0,response1disk,1.1707,6.281860352,16.72244263,1,0,0,rectangle,6.281860352,16.72244263,1,0,0,-4,-4,"[139,133,155,25,66,118,54,105,78,57]",6.281860352,16.72244263,1,0,0,0,79,79,17,1,LightGreen,LightGreen.jpg,LightGreen,LightGreen.jpg,,
,,,,,,,,,,,,,,,,,,-4,,,,,,,,,,,,,,,,,,,,,,,,,,,,001,2021-12-16_18h05.36.603,jm_natural_scene_simialrity_2-12-2021_version2,2021.2.3,MacIntel,60.0024001,60c1a188c2924eeed13edeb2,61bbc5c79a1c66460f44041e,61bbc62c0eb0c2f3fbec9240,,,,,,-30.80352783,96.00595093,1,0,0,response7disk,0.6713,1.477539063,11.73526001,1,0,0,rectangle,1.477539063,11.73526001,1,0,0,-4,2,"[139,133,155,25,66,118,54,105,78,57]",1.477539063,11.73526001,1,0,0,0,80,80,14,1,Yellow,Yellow.jpg,DarkBlue,DarkBlue.jpg,,
,,,,,,,,,,,,,,,,,,4,,,,,,,,,,,,,,,,,,,,,,,,,,,,001,2021-12-16_18h05.36.603,jm_natural_scene_simialrity_2-12-2021_version2,2021.2.3,MacIntel,60.0024001,60c1a188c2924eeed13edeb2,61bbc5c79a1c66460f44041e,61bbc62c0eb0c2f3fbec9240,,,,,,35.56109619,92.7583313,1,0,0,response1disk,0.7316,12.93383789,15.57394409,1,0,0,rectangle,12.93383789,15.57394409,1,0,0,-4,-3,"[139,133,155,25,66,118,54,105,78,57]",12.93383789,15.57394409,1,0,0,1,0,81,44,1,Purple,Purple.jpg,Purple,Purple.jpg,,
,,,,,,,,,,,,,,,,,,-4,,,,,,,,,,,,,,,,,,,,,,,,,,,,001,2021-12-16_18h05.36.603,jm_natural_scene_simialrity_2-12-2021_version2,2021.2.3,MacIntel,60.0024001,60c1a188c2924eeed13edeb2,61bbc5c79a1c66460f44041e,61bbc62c0eb0c2f3fbec9240,,,,,,-41.84124756,88.76544189,1,0,0,response7disk,0.7498,-10.09014893,-19.21307373,1,0,0,rectangle,-10.09014893,-19.21307373,1,0,0,-4,3,"[139,133,155,25,66,118,54,105,78,57]",-10.09014893,-19.21307373,1,0,0,1,1,82,55,1,Turquiose,Turquiose.jpg,Yellow,Yellow.jpg,,
,,,,,,,,,,,,,,,,,,-4,,,,,,,,,,,,,,,,,,,,,,,,,,,,001,2021-12-16_18h05.36.603,jm_natural_scene_simialrity_2-12-2021_version2,2021.2.3,MacIntel,60.0024001,60c1a188c2924eeed13edeb2,61bbc5c79a1c66460f44041e,61bbc62c0eb0c2f3fbec9240,,,,,,-30.86309814,57.93112183,1,0,0,response7disk,4.2446,-6.348388672,-1.433929443,1,0,0,rectangle,-6.348388672,-1.433929443,1,0,0,-4,-3,"[139,133,155,25,66,118,54,105,78,57]",-6.348388672,-1.433929443,1,0,0,1,2,83,12,1,Yellow,Yellow.jpg,Turquiose,Turquiose.jpg,,
,,,,,,,,,,,,,,,,,,-4,,,,,,,,,,,,,,,,,,,,,,,,,,,,001,2021-12-16_18h05.36.603,jm_natural_scene_simialrity_2-12-2021_version2,2021.2.3,MacIntel,60.0024001,60c1a188c2924eeed13edeb2,61bbc5c79a1c66460f44041e,61bbc62c0eb0c2f3fbec9240,,,,,,-30.79412842,72.24694824,1,0,0,response7disk,0.7829,-3.849182129,-0.283569336,1,0,0,rectangle,-3.849182129,-0.283569336,1,0,0,-4,-2,"[139,133,155,25,66,118,54,105,78,57]",-3.849182129,-0.283569336,1,0,0,1,3,84,20,1,LightGreen,LightGreen.jpg,LightBlue,LightBlue.jpg,,
,,,,,,,,,,,,,,,,,,-4,,,,,,,,,,,,,,,,,,,,,,,,,,,,001,2021-12-16_18h05.36.603,jm_natural_scene_simialrity_2-12-2021_version2,2021.2.3,MacIntel,60.0024001,60c1a188c2924eeed13edeb2,61bbc5c79a1c66460f44041e,61bbc62c0eb0c2f3fbec9240,,,,,,-24.11572266,77.25158691,1,0,0,response7disk,0.7813,20.45684814,-6.722229004,1,0,0,rectangle,20.45684814,-6.722229004,1,0,0,-4,1,"[139,133,155,25,66,118,54,105,78,57]",20.45684814,-6.722229004,1,0,0,1,4,85,21,1,LightGreen,LightGreen.jpg,DarkBlue,DarkBlue.jpg,,
,,,,,,,,,,,,,,,,,,-4,,,,,,,,,,,,,,,,,,,,,,,,,,,,001,2021-12-16_18h05.36.603,jm_natural_scene_simialrity_2-12-2021_version2,2021.2.3,MacIntel,60.0024001,60c1a188c2924eeed13edeb2,61bbc5c79a1c66460f44041e,61bbc62c0eb0c2f3fbec9240,,,,,,-40.4251709,65.80810547,1,0,0,response7disk,0.5836,-12.40020752,0.22076416,1,0,0,rectangle,-12.40020752,0.22076416,1,0,0,-4,1,"[139,133,155,25,66,118,54,105,78,57]",-12.40020752,0.22076416,1,0,0,1,5,86,5,1,Red,Red.jpg,LightBlue,LightBlue.jpg,,
,,,,,,,,,,,,,,,,,,-4,,,,,,,,,,,,,,,,,,,,,,,,,,,,001,2021-12-16_18h05.36.603,jm_natural_scene_simialrity_2-12-2021_version2,2021.2.3,MacIntel,60.0024001,60c1a188c2924eeed13edeb2,61bbc5c79a1c66460f44041e,61bbc62c0eb0c2f3fbec9240,,,,,,-51.82440186,59.46957397,1,0,0,response7disk,1.2834,-18.83569336,-12.45965576,1,0,0,rectangle,-18.83569336,-12.45965576,1,0,0,-4,-2,"[139,133,155,25,66,118,54,105,78,57]",-18.83569336,-12.45965576,1,0,0,1,6,87,19,1,LightGreen,LightGreen.jpg,Turquiose,Turquiose.jpg,,
,,,,,,,,,,,,,,,,,,-2,,,,,,,,,,,,,,,,,,,,,,,,,,,,001,2021-12-16_18h05.36.603,jm_natural_scene_simialrity_2-12-2021_version2,2021.2.3,MacIntel,60.0024001,60c1a188c2924eeed13edeb2,61bbc5c79a1c66460f44041e,61bbc62c0eb0c2f3fbec9240,,,,,,-90.48974609,-41.58398438,1,0,0,response5disk,1.8776,-17.22399902,1.563323975,1,0,0,rectangle,-17.22399902,1.563323975,1,0,0,-4,-1,"[139,133,155,25,66,118,54,105,78,57]",-17.22399902,1.563323975,1,0,0,1,7,88,43,1,Pink,Pink.jpg,Purple,Purple.jpg,,
,,,,,,,,,,,,,,,,,,-2,,,,,,,,,,,,,,,,,,,,,,,,,,,,001,2021-12-16_18h05.36.603,jm_natural_scene_simialrity_2-12-2021_version2,2021.2.3,MacIntel,60.0024001,60c1a188c2924eeed13edeb2,61bbc5c79a1c66460f44041e,61bbc62c0eb0c2f3fbec9240,,,,,,-72.56542969,-29.51635742,1,0,0,response5disk,0.7636,-7.705444336,13.49395752,1,0,0,rectangle,-7.705444336,13.49395752,1,0,0,-4,2,"[139,133,155,25,66,118,54,105,78,57]",-7.705444336,13.49395752,1,0,0,1,8,89,47,1,DarkGreen,DarkGreen.jpg,Red,Red.jpg,,
,,,,,,,,,,,,,,,,,,-4,,,,,,,,,,,,,,,,,,,,,,,,,,,,001,2021-12-16_18h05.36.603,jm_natural_scene_simialrity_2-12-2021_version2,2021.2.3,MacIntel,60.0024001,60c1a188c2924eeed13edeb2,61bbc5c79a1c66460f44041e,61bbc62c0eb0c2f3fbec9240,,,,,,-43.81817627,83.37332153,1,0,0,response7disk,0.8877,-2.241088867,2.749938965,1,0,0,rectangle,-2.241088867,2.749938965,1,0,0,-4,3,"[139,133,155,25,66,118,54,105,78,57]",-2.241088867,2.749938965,1,0,0,1,9,90,26,1,DarkGreen,DarkGreen.jpg,LightBlue,LightBlue.jpg,,
,,,,,,,,,,,,,,,,,,-4,,,,,,,,,,,,,,,,,,,,,,,,,,,,001,2021-12-16_18h05.36.603,jm_natural_scene_simialrity_2-12-2021_version2,2021.2.3,MacIntel,60.0024001,60c1a188c2924eeed13edeb2,61bbc5c79a1c66460f44041e,61bbc62c0eb0c2f3fbec9240,,,,,,-32.40026855,69.84396362,1,0,0,response7disk,0.5625,4.628295898,-7.044921875,1,0,0,rectangle,4.628295898,-7.044921875,1,0,0,-4,-4,"[139,133,155,25,66,118,54,105,78,57]",4.628295898,-7.044921875,1,0,0,1,10,91,38,1,LightBlue,LightBlue.jpg,Purple,Purple.jpg,,
,,,,,,,,,,,,,,,,,,-4,,,,,,,,,,,,,,,,,,,,,,,,,,,,001,2021-12-16_18h05.36.603,jm_natural_scene_simialrity_2-12-2021_version2,2021.2.3,MacIntel,60.0024001,60c1a188c2924eeed13edeb2,61bbc5c79a1c66460f44041e,61bbc62c0eb0c2f3fbec9240,,,,,,-43.77404785,83.5272522,1,0,0,response7disk,0.5675,3.14465332,-4.598266602,1,0,0,rectangle,3.14465332,-4.598266602,1,0,0,-4,-4,"[139,133,155,25,66,118,54,105,78,57]",3.14465332,-4.598266602,1,0,0,1,11,92,76,1,Pink,Pink.jpg,LightBlue,LightBlue.jpg,,
,,,,,,,,,,,,,,,,,,-4,,,,,,,,,,,,,,,,,,,,,,,,,,,,001,2021-12-16_18h05.36.603,jm_natural_scene_simialrity_2-12-2021_version2,2021.2.3,MacIntel,60.0024001,60c1a188c2924eeed13edeb2,61bbc5c79a1c66460f44041e,61bbc62c0eb0c2f3fbec9240,,,,,,-30.61816406,68.6151123,1,0,0,response7disk,0.5978,-8.507995605,9.609283447,1,0,0,rectangle,-8.507995605,9.609283447,1,0,0,-4,3,"[139,133,155,25,66,118,54,105,78,57]",-8.507995605,9.609283447,1,0,0,1,12,93,70,1,Purple,Purple.jpg,DarkGreen,DarkGreen.jpg,,
,,,,,,,,,,,,,,,,,,-4,,,,,,,,,,,,,,,,,,,,,,,,,,,,001,2021-12-16_18h05.36.603,jm_natural_scene_simialrity_2-12-2021_version2,2021.2.3,MacIntel,60.0024001,60c1a188c2924eeed13edeb2,61bbc5c79a1c66460f44041e,61bbc62c0eb0c2f3fbec9240,,,,,,-41.3550415,70.08758545,1,0,0,response7disk,0.6335,3.608154297,-13.24829102,1,0,0,rectangle,3.608154297,-13.24829102,1,0,0,-4,3,"[139,133,155,25,66,118,54,105,78,57]",3.608154297,-13.24829102,1,0,0,1,13,94,4,1,Red,Red.jpg,Turquiose,Turquiose.jpg,,
,,,,,,,,,,,,,,,,,,-2,,,,,,,,,,,,,,,,,,,,,,,,,,,,001,2021-12-16_18h05.36.603,jm_natural_scene_simialrity_2-12-2021_version2,2021.2.3,MacIntel,60.0024001,60c1a188c2924eeed13edeb2,61bbc5c79a1c66460f44041e,61bbc62c0eb0c2f3fbec9240,,,,,,-58.20373535,-39.24728394,1,0,0,response5disk,1.1697,3.98638916,2.584564209,1,0,0,rectangle,3.98638916,2.584564209,1,0,0,-4,-1,"[139,133,155,25,66,118,54,105,78,57]",3.98638916,2.584564209,1,0,0,1,14,95,1,1,Red,Red.jpg,Yellow,Yellow.jpg,,
,,,,,,,,,,,,,,,,,,-2,,,,,,,,,,,,,,,,,,,,,,,,,,,,001,2021-12-16_18h05.36.603,jm_natural_scene_simialrity_2-12-2021_version2,2021.2.3,MacIntel,60.0024001,60c1a188c2924eeed13edeb2,61bbc5c79a1c66460f44041e,61bbc62c0eb0c2f3fbec9240,,,,,,-38.58807373,-24.52352905,1,0,0,response5disk,0.8202,-8.342956543,6.018066406,1,0,0,rectangle,-8.342956543,6.018066406,1,0,0,-4,-1,"[139,133,155,25,66,118,54,105,78,57]",-8.342956543,6.018066406,1,0,0,1,15,96,41,1,DarkBlue,DarkBlue.jpg,Purple,Purple.jpg,,
,,,,,,,,,,,,,,,,,,4,,,,,,,,,,,,,,,,,,,,,,,,,,,,001,2021-12-16_18h05.36.603,jm_natural_scene_simialrity_2-12-2021_version2,2021.2.3,MacIntel,60.0024001,60c1a188c2924eeed13edeb2,61bbc5c79a1c66460f44041e,61bbc62c0eb0c2f3fbec9240,,,,,,28.05987549,81.74728394,1,0,0,response1disk,1.011,14.75219727,6.230377197,1,0,0,rectangle,14.75219727,6.230377197,1,0,0,-4,-1,"[139,133,155,25,66,118,54,105,78,57]",14.75219727,6.230377197,1,0,0,1,16,97,39,1,DarkBlue,DarkBlue.jpg,DarkBlue,DarkBlue.jpg,,
,,,,,,,,,,,,,,,,,,-4,,,,,,,,,,,,,,,,,,,,,,,,,,,,001,2021-12-16_18h05.36.603,jm_natural_scene_simialrity_2-12-2021_version2,2021.2.3,MacIntel,60.0024001,60c1a188c2924eeed13edeb2,61bbc5c79a1c66460f44041e,61bbc62c0eb0c2f3fbec9240,,,,,,-29.85467529,92.55575562,1,0,0,response7disk,2.5343,-1.520812988,-13.67834473,1,0,0,rectangle,-1.520812988,-13.67834473,1,0,0,-4,3,"[139,133,155,25,66,118,54,105,78,57]",-1.520812988,-13.67834473,1,0,0,1,17,98,53,1,LightGreen,LightGreen.jpg,Yellow,Yellow.jpg,,
,,,,,,,,,,,,,,,,,,-4,,,,,,,,,,,,,,,,,,,,,,,,,,,,001,2021-12-16_18h05.36.603,jm_natural_scene_simialrity_2-12-2021_version2,2021.2.3,MacIntel,60.0024001,60c1a188c2924eeed13edeb2,61bbc5c79a1c66460f44041e,61bbc62c0eb0c2f3fbec9240,,,,,,-31.09442139,61.51947021,1,0,0,response7disk,0.7971,4.750427246,-11.17211914,1,0,0,rectangle,4.750427246,-11.17211914,1,0,0,-4,-1,"[139,133,155,25,66,118,54,105,78,57]",4.750427246,-11.17211914,1,0,0,1,18,99,74,1,Purple,Purple.jpg,Turquiose,Turquiose.jpg,,
,,,,,,,,,,,,,,,,,,-4,,,,,,,,,,,,,,,,,,,,,,,,,,,,001,2021-12-16_18h05.36.603,jm_natural_scene_simialrity_2-12-2021_version2,2021.2.3,MacIntel,60.0024001,60c1a188c2924eeed13edeb2,61bbc5c79a1c66460f44041e,61bbc62c0eb0c2f3fbec9240,,,,,,-39.54455566,55.15991211,1,0,0,response7disk,0.654,3.952270508,-5.412414551,1,0,0,rectangle,3.952270508,-5.412414551,1,0,0,-4,-1,"[139,133,155,25,66,118,54,105,78,57]",3.952270508,-5.412414551,1,0,0,1,19,100,49,1,LightBlue,LightBlue.jpg,Red,Red.jpg,,
,,,,,,,,,,,,,,,,,,-2,,,,,,,,,,,,,,,,,,,,,,,,,,,,001,2021-12-16_18h05.36.603,jm_natural_scene_simialrity_2-12-2021_version2,2021.2.3,MacIntel,60.0024001,60c1a188c2924eeed13edeb2,61bbc5c79a1c66460f44041e,61bbc62c0eb0c2f3fbec9240,,,,,,-87.83563232,-44.81256104,1,0,0,response5disk,1.551,-16.11859131,3.314910889,1,0,0,rectangle,-16.11859131,3.314910889,1,0,0,-4,-4,"[139,133,155,25,66,118,54,105,78,57]",-16.11859131,3.314910889,1,0,0,1,20,101,45,1,Yellow,Yellow.jpg,Red,Red.jpg,,
,,,,,,,,,,,,,,,,,,-4,,,,,,,,,,,,,,,,,,,,,,,,,,,,001,2021-12-16_18h05.36.603,jm_natural_scene_simialrity_2-12-2021_version2,2021.2.3,MacIntel,60.0024001,60c1a188c2924eeed13edeb2,61bbc5c79a1c66460f44041e,61bbc62c0eb0c2f3fbec9240,,,,,,-37.5690918,127.2698975,1,0,0,response7disk,23.5716,1.754577637,6.849822998,1,0,0,rectangle,1.754577637,6.849822998,1,0,0,-4,1,"[139,133,155,25,66,118,54,105,78,57]",1.754577637,6.849822998,1,0,0,1,21,102,56,1,LightBlue,LightBlue.jpg,Yellow,Yellow.jpg,,
,,,,,,,,,,,,,,,,,,4,,,,,,,,,,,,,,,,,,,,,,,,,,,,001,2021-12-16_18h05.36.603,jm_natural_scene_simialrity_2-12-2021_version2,2021.2.3,MacIntel,60.0024001,60c1a188c2924eeed13edeb2,61bbc5c79a1c66460f44041e,61bbc62c0eb0c2f3fbec9240,,,,,,52.73095703,115.4944153,1,0,0,response1disk,0.739,13.45245361,6.553771973,1,0,0,rectangle,13.45245361,6.553771973,1,0,0,-4,2,"[139,133,155,25,66,118,54,105,78,57]",13.45245361,6.553771973,1,0,0,1,22,103,42,1,Pink,Pink.jpg,Pink,Pink.jpg,,
,,,,,,,,,,,,,,,,,,-4,,,,,,,,,,,,,,,,,,,,,,,,,,,,001,2021-12-16_18h05.36.603,jm_natural_scene_simialrity_2-12-2021_version2,2021.2.3,MacIntel,60.0024001,60c1a188c2924eeed13edeb2,61bbc5c79a1c66460f44041e,61bbc62c0eb0c2f3fbec9240,,,,,,-30.62158203,84.9704895,1,0,0,response7disk,0.7001,-19.23907471,5.026092529,1,0,0,rectangle,54.28491211,-94.78424072,1,0,0,1,1,"[139,133,155,25,66,118,54,105,78,57]",10.12768555,-2.816467285,1,0,0,1,23,104,13,1,Yellow,Yellow.jpg,LightBlue,LightBlue.jpg,response3disk_3,rectangle
,,,,,,,,,,,,,,,,,,4,,,,,,,,,,,,,,,,,,,,,,,,,,,,001,2021-12-16_18h05.36.603,jm_natural_scene_simialrity_2-12-2021_version2,2021.2.3,MacIntel,60.0024001,60c1a188c2924eeed13edeb2,61bbc5c79a1c66460f44041e,61bbc62c0eb0c2f3fbec9240,,,,,,44.16064453,96.6206665,1,0,0,response1disk,0.6808,12.6395874,2.318664551,1,0,0,rectangle,12.6395874,2.318664551,1,0,0,1,-1,"[139,133,155,25,66,118,54,105,78,57]",12.6395874,2.318664551,1,0,0,1,24,105,35,1,LightBlue,LightBlue.jpg,LightBlue,LightBlue.jpg,,
,,,,,,,,,,,,,,,,,,3,,,,,,,,,,,,,,,,,,,,,,,,,,,,001,2021-12-16_18h05.36.603,jm_natural_scene_simialrity_2-12-2021_version2,2021.2.3,MacIntel,60.0024001,60c1a188c2924eeed13edeb2,61bbc5c79a1c66460f44041e,61bbc62c0eb0c2f3fbec9240,,,,,,115.0704956,39.56219482,1,0,0,response1disk,1.8393,-0.849060059,-11.30288696,1,0,0,rectangle,-0.849060059,-11.30288696,1,0,0,1,2,"[139,133,155,25,66,118,54,105,78,57]",-0.849060059,-11.30288696,1,0,0,1,25,106,18,1,LightGreen,LightGreen.jpg,DarkGreen,DarkGreen.jpg,,
,,,,,,,,,,,,,,,,,,-4,,,,,,,,,,,,,,,,,,,,,,,,,,,,001,2021-12-16_18h05.36.603,jm_natural_scene_simialrity_2-12-2021_version2,2021.2.3,MacIntel,60.0024001,60c1a188c2924eeed13edeb2,61bbc5c79a1c66460f44041e,61bbc62c0eb0c2f3fbec9240,,,,,,-61.08905029,76.89645386,1,0,0,response7disk,1.2854,-19.74401855,8.878631592,1,0,0,rectangle,-19.74401855,8.878631592,1,0,0,1,-2,"[139,133,155,25,66,118,54,105,78,57]",-19.74401855,8.878631592,1,0,0,1,26,107,27,1,DarkGreen,DarkGreen.jpg,DarkBlue,DarkBlue.jpg,,
,,,,,,,,,,,,,,,,,,-4,,,,,,,,,,,,,,,,,,,,,,,,,,,,001,2021-12-16_18h05.36.603,jm_natural_scene_simialrity_2-12-2021_version2,2021.2.3,MacIntel,60.0024001,60c1a188c2924eeed13edeb2,61bbc5c79a1c66460f44041e,61bbc62c0eb0c2f3fbec9240,,,,,,-39.02526855,83.69763184,1,0,0,response7disk,0.7947,-15.34143066,16.64035034,1,0,0,rectangle,-15.34143066,16.64035034,1,0,0,1,2,"[139,133,155,25,66,118,54,105,78,57]",-15.34143066,16.64035034,1,0,0,1,27,108,57,1,DarkBlue,DarkBlue.jpg,Yellow,Yellow.jpg,,
,,,,,,,,,,,,,,,,,,-3,,,,,,,,,,,,,,,,,,,,,,,,,,,,001,2021-12-16_18h05.36.603,jm_natural_scene_simialrity_2-12-2021_version2,2021.2.3,MacIntel,60.0024001,60c1a188c2924eeed13edeb2,61bbc5c79a1c66460f44041e,61bbc62c0eb0c2f3fbec9240,,,,,,-56.13183594,38.50518799,1,0,0,response7disk,1.2626,-18.37597656,3.406646729,1,0,0,rectangle,-18.37597656,3.406646729,1,0,0,1,-2,"[139,133,155,25,66,118,54,105,78,57]",-18.37597656,3.406646729,1,0,0,1,28,109,28,1,DarkGreen,DarkGreen.jpg,Pink,Pink.jpg,,
,,,,,,,,,,,,,,,,,,-3,,,,,,,,,,,,,,,,,,,,,,,,,,,,001,2021-12-16_18h05.36.603,jm_natural_scene_simialrity_2-12-2021_version2,2021.2.3,MacIntel,60.0024001,60c1a188c2924eeed13edeb2,61bbc5c79a1c66460f44041e,61bbc62c0eb0c2f3fbec9240,,,,,,-101.6246338,38.17056274,1,0,0,response7disk,0.7999,-12.95098877,5.401367188,1,0,0,rectangle,-12.95098877,5.401367188,1,0,0,1,2,"[139,133,155,25,66,118,54,105,78,57]",-12.95098877,5.401367188,1,0,0,1,29,110,51,1,Pink,Pink.jpg,Red,Red.jpg,,
,,,,,,,,,,,,,,,,,,-3,,,,,,,,,,,,,,,,,,,,,,,,,,,,001,2021-12-16_18h05.36.603,jm_natural_scene_simialrity_2-12-2021_version2,2021.2.3,MacIntel,60.0024001,60c1a188c2924eeed13edeb2,61bbc5c79a1c66460f44041e,61bbc62c0eb0c2f3fbec9240,,,,,,-57.61169434,25.79803467,1,0,0,response7disk,0.9381,2.57019043,-20.67541504,1,0,0,rectangle,2.57019043,-20.67541504,1,0,0,1,-1,"[139,133,155,25,66,118,54,105,78,57]",2.57019043,-20.67541504,1,0,0,1,30,111,80,1,Purple,Purple.jpg,Pink,Pink.jpg,,
,,,,,,,,,,,,,,,,,,-3,,,,,,,,,,,,,,,,,,,,,,,,,,,,001,2021-12-16_18h05.36.603,jm_natural_scene_simialrity_2-12-2021_version2,2021.2.3,MacIntel,60.0024001,60c1a188c2924eeed13edeb2,61bbc5c79a1c66460f44041e,61bbc62c0eb0c2f3fbec9240,,,,,,-60.24047852,49.55645752,1,0,0,response7disk,0.9193,-4.830688477,-12.05661011,1,0,0,rectangle,-4.830688477,-12.05661011,1,0,0,1,-3,"[139,133,155,25,66,118,54,105,78,57]",-4.830688477,-12.05661011,1,0,0,1,31,112,34,1,Turquiose,Turquiose.jpg,Purple,Purple.jpg,,
,,,,,,,,,,,,,,,,,,-4,,,,,,,,,,,,,,,,,,,,,,,,,,,,001,2021-12-16_18h05.36.603,jm_natural_scene_simialrity_2-12-2021_version2,2021.2.3,MacIntel,60.0024001,60c1a188c2924eeed13edeb2,61bbc5c79a1c66460f44041e,61bbc62c0eb0c2f3fbec9240,,,,,,-32.50714111,55.57641602,1,0,0,response7disk,0.817,-0.7421875,-9.67098999,1,0,0,rectangle,-0.7421875,-9.67098999,1,0,0,1,-3,"[139,133,155,25,66,118,54,105,78,57]",-0.7421875,-9.67098999,1,0,0,1,32,113,36,1,LightBlue,LightBlue.jpg,DarkBlue,DarkBlue.jpg,,
,,,,,,,,,,,,,,,,,,-4,,,,,,,,,,,,,,,,,,,,,,,,,,,,001,2021-12-16_18h05.36.603,jm_natural_scene_simialrity_2-12-2021_version2,2021.2.3,MacIntel,60.0024001,60c1a188c2924eeed13edeb2,61bbc5c79a1c66460f44041e,61bbc62c0eb0c2f3fbec9240,,,,,,-26.93670654,68.83721924,1,0,0,response7disk,0.5664,-8.802368164,-13.66439819,1,0,0,rectangle,-8.802368164,-13.66439819,1,0,0,1,-1,"[139,133,155,25,66,118,54,105,78,57]",-8.802368164,-13.66439819,1,0,0,1,33,114,32,1,Turquiose,Turquiose.jpg,DarkBlue,DarkBlue.jpg,,
,,,,,,,,,,,,,,,,,,4,,,,,,,,,,,,,,,,,,,,,,,,,,,,001,2021-12-16_18h05.36.603,jm_natural_scene_simialrity_2-12-2021_version2,2021.2.3,MacIntel,60.0024001,60c1a188c2924eeed13edeb2,61bbc5c79a1c66460f44041e,61bbc62c0eb0c2f3fbec9240,,,,,,47.49035645,79.10498047,1,0,0,response1disk,0.7837,-2.304138184,-2.401855469,1,0,0,rectangle,-2.304138184,-2.401855469,1,0,0,1,-2,"[139,133,155,25,66,118,54,105,78,57]",-2.304138184,-2.401855469,1,0,0,1,34,115,9,1,Yellow,Yellow.jpg,Yellow,Yellow.jpg,,
,,,,,,,,,,,,,,,,,,-4,,,,,,,,,,,,,,,,,,,,,,,,,,,,001,2021-12-16_18h05.36.603,jm_natural_scene_simialrity_2-12-2021_version2,2021.2.3,MacIntel,60.0024001,60c1a188c2924eeed13edeb2,61bbc5c79a1c66460f44041e,61bbc62c0eb0c2f3fbec9240,,,,,,-28.06774902,81.62536621,1,0,0,response7disk,0.8675,6.15802002,7.913391113,1,0,0,rectangle,6.15802002,7.913391113,1,0,0,1,1,"[139,133,155,25,66,118,54,105,78,57]",6.15802002,7.913391113,1,0,0,1,35,116,2,1,Red,Red.jpg,LightGreen,LightGreen.jpg,,
,,,,,,,,,,,,,,,,,,-4,,,,,,,,,,,,,,,,,,,,,,,,,,,,001,2021-12-16_18h05.36.603,jm_natural_scene_simialrity_2-12-2021_version2,2021.2.3,MacIntel,60.0024001,60c1a188c2924eeed13edeb2,61bbc5c79a1c66460f44041e,61bbc62c0eb0c2f3fbec9240,,,,,,-37.34393311,83.46136475,1,0,0,response7disk,0.8342,-3.555114746,-0.466552734,1,0,0,rectangle,-81.03509521,-46.75006104,1,0,0,1,-2,"[139,133,155,25,66,118,54,105,78,57]",-7.651489258,-9.638824463,1,0,0,1,36,117,14,1,Yellow,Yellow.jpg,DarkBlue,DarkBlue.jpg,response5disk_3,rectangle
,,,,,,,,,,,,,,,,,,-4,,,,,,,,,,,,,,,,,,,,,,,,,,,,001,2021-12-16_18h05.36.603,jm_natural_scene_simialrity_2-12-2021_version2,2021.2.3,MacIntel,60.0024001,60c1a188c2924eeed13edeb2,61bbc5c79a1c66460f44041e,61bbc62c0eb0c2f3fbec9240,,,,,,-33.57098389,109.5183411,1,0,0,response7disk,0.8828,-1.864746094,-4.20300293,1,0,0,rectangle,-1.864746094,-4.20300293,1,0,0,1,-2,"[139,133,155,25,66,118,54,105,78,57]",-1.864746094,-4.20300293,1,0,0,1,37,118,78,1,Pink,Pink.jpg,DarkBlue,DarkBlue.jpg,,
,,,,,,,,,,,,,,,,,,-4,,,,,,,,,,,,,,,,,,,,,,,,,,,,001,2021-12-16_18h05.36.603,jm_natural_scene_simialrity_2-12-2021_version2,2021.2.3,MacIntel,60.0024001,60c1a188c2924eeed13edeb2,61bbc5c79a1c66460f44041e,61bbc62c0eb0c2f3fbec9240,,,,,,-49.09735107,117.5553894,1,0,0,response7disk,0.7994,-7.44934082,-1.066619873,1,0,0,rectangle,-7.44934082,-1.066619873,1,0,0,1,1,"[139,133,155,25,66,118,54,105,78,57]",-7.44934082,-1.066619873,1,0,0,1,38,119,68,1,DarkBlue,DarkBlue.jpg,DarkGreen,DarkGreen.jpg,,
,,,,,,,,,,,,,,,,,,-4,,,,,,,,,,,,,,,,,,,,,,,,,,,,001,2021-12-16_18h05.36.603,jm_natural_scene_simialrity_2-12-2021_version2,2021.2.3,MacIntel,60.0024001,60c1a188c2924eeed13edeb2,61bbc5c79a1c66460f44041e,61bbc62c0eb0c2f3fbec9240,,,,,,-51.66314697,118.1217346,1,0,0,response7disk,0.8005,1.088989258,22.91702271,1,0,0,rectangle,1.088989258,22.91702271,1,0,0,1,-1,"[139,133,155,25,66,118,54,105,78,57]",1.088989258,22.91702271,1,0,0,1,39,120,22,1,LightGreen,LightGreen.jpg,Pink,Pink.jpg,,
,,,,,,,,,,,,,,,,,,-2,,,,,,,,,,,,,,,,,,,,,,,,,,,,001,2021-12-16_18h05.36.603,jm_natural_scene_simialrity_2-12-2021_version2,2021.2.3,MacIntel,60.0024001,60c1a188c2924eeed13edeb2,61bbc5c79a1c66460f44041e,61bbc62c0eb0c2f3fbec9240,,,,,,-52.36517334,-41.87585449,1,0,0,response5disk,3.7506,-19.69171143,-2.565856934,1,0,0,rectangle,-19.69171143,-2.565856934,1,0,0,1,1,"[139,133,155,25,66,118,54,105,78,57]",-19.69171143,-2.565856934,1,0,0,1,40,121,58,1,Pink,Pink.jpg,Yellow,Yellow.jpg,,
,,,,,,,,,,,,,,,,,,-4,,,,,,,,,,,,,,,,,,,,,,,,,,,,001,2021-12-16_18h05.36.603,jm_natural_scene_simialrity_2-12-2021_version2,2021.2.3,MacIntel,60.0024001,60c1a188c2924eeed13edeb2,61bbc5c79a1c66460f44041e,61bbc62c0eb0c2f3fbec9240,,,,,,-31.24157715,91.84814453,1,0,0,response7disk,0.7827,-1.281066895,-8.229980469,1,0,0,rectangle,-1.281066895,-8.229980469,1,0,0,1,-2,"[139,133,155,25,66,118,54,105,78,57]",-1.281066895,-8.229980469,1,0,0,1,41,122,10,1,Yellow,Yellow.jpg,LightGreen,LightGreen.jpg,,
,,,,,,,,,,,,,,,,,,-4,,,,,,,,,,,,,,,,,,,,,,,,,,,,001,2021-12-16_18h05.36.603,jm_natural_scene_simialrity_2-12-2021_version2,2021.2.3,MacIntel,60.0024001,60c1a188c2924eeed13edeb2,61bbc5c79a1c66460f44041e,61bbc62c0eb0c2f3fbec9240,,,,,,-38.34973145,66.26525879,1,0,0,response7disk,0.7351,-7.411315918,0.357086182,1,0,0,rectangle,-7.411315918,0.357086182,1,0,0,1,-1,"[139,133,155,25,66,118,54,105,78,57]",-7.411315918,0.357086182,1,0,0,1,42,123,67,1,LightBlue,LightBlue.jpg,DarkGreen,DarkGreen.jpg,,
,,,,,,,,,,,,,,,,,,-3,,,,,,,,,,,,,,,,,,,,,,,,,,,,001,2021-12-16_18h05.36.603,jm_natural_scene_simialrity_2-12-2021_version2,2021.2.3,MacIntel,60.0024001,60c1a188c2924eeed13edeb2,61bbc5c79a1c66460f44041e,61bbc62c0eb0c2f3fbec9240,,,,,,-87.83648682,43.01321411,1,0,0,response7disk,1.4137,-8.097595215,-12.92709351,1,0,0,rectangle,-8.097595215,-12.92709351,1,0,0,1,-2,"[139,133,155,25,66,118,54,105,78,57]",-8.097595215,-12.92709351,1,0,0,1,43,124,15,1,Yellow,Yellow.jpg,Pink,Pink.jpg,,
,,,,,,,,,,,,,,,,,,-3,,,,,,,,,,,,,,,,,,,,,,,,,,,,001,2021-12-16_18h05.36.603,jm_natural_scene_simialrity_2-12-2021_version2,2021.2.3,MacIntel,60.0024001,60c1a188c2924eeed13edeb2,61bbc5c79a1c66460f44041e,61bbc62c0eb0c2f3fbec9240,,,,,,-59.53845215,41.09567261,1,0,0,response7disk,0.8857,17.43811035,4.198059082,1,0,0,rectangle,17.43811035,4.198059082,1,0,0,1,1,"[139,133,155,25,66,118,54,105,78,57]",17.43811035,4.198059082,1,0,0,1,44,125,25,1,DarkGreen,DarkGreen.jpg,Turquiose,Turquiose.jpg,,
,,,,,,,,,,,,,,,,,,-3,,,,,,,,,,,,,,,,,,,,,,,,,,,,001,2021-12-16_18h05.36.603,jm_natural_scene_simialrity_2-12-2021_version2,2021.2.3,MacIntel,60.0024001,60c1a188c2924eeed13edeb2,61bbc5c79a1c66460f44041e,61bbc62c0eb0c2f3fbec9240,,,,,,-58.4666748,30.72357178,1,0,0,response7disk,0.7375,3.527404785,8.70223999,1,0,0,rectangle,3.527404785,8.70223999,1,0,0,1,2,"[139,133,155,25,66,118,54,105,78,57]",3.527404785,8.70223999,1,0,0,1,45,126,66,1,Turquiose,Turquiose.jpg,DarkGreen,DarkGreen.jpg,,
,,,,,,,,,,,,,,,,,,-1,,,,,,,,,,,,,,,,,,,,,,,,,,,,001,2021-12-16_18h05.36.603,jm_natural_scene_simialrity_2-12-2021_version2,2021.2.3,MacIntel,60.0024001,60c1a188c2924eeed13edeb2,61bbc5c79a1c66460f44041e,61bbc62c0eb0c2f3fbec9240,,,,,,-51.41387939,-69.4463501,1,0,0,response5disk,1.7168,-8.824401855,-12.16064453,1,0,0,rectangle,-8.824401855,-12.16064453,1,0,0,1,-2,"[139,133,155,25,66,118,54,105,78,57]",-8.824401855,-12.16064453,1,0,0,1,46,127,31,1,Turquiose,Turquiose.jpg,LightBlue,LightBlue.jpg,,
,,,,,,,,,,,,,,,,,,-4,,,,,,,,,,,,,,,,,,,,,,,,,,,,001,2021-12-16_18h05.36.603,jm_natural_scene_simialrity_2-12-2021_version2,2021.2.3,MacIntel,60.0024001,60c1a188c2924eeed13edeb2,61bbc5c79a1c66460f44041e,61bbc62c0eb0c2f3fbec9240,,,,,,-28.48083496,78.29794312,1,0,0,response7disk,0.7996,2.181091309,8.606506348,1,0,0,rectangle,2.181091309,8.606506348,1,0,0,1,-4,"[139,133,155,25,66,118,54,105,78,57]",2.181091309,8.606506348,1,0,0,1,47,128,37,1,LightBlue,LightBlue.jpg,Pink,Pink.jpg,,
,,,,,,,,,,,,,,,,,,-4,,,,,,,,,,,,,,,,,,,,,,,,,,,,001,2021-12-16_18h05.36.603,jm_natural_scene_simialrity_2-12-2021_version2,2021.2.3,MacIntel,60.0024001,60c1a188c2924eeed13edeb2,61bbc5c79a1c66460f44041e,61bbc62c0eb0c2f3fbec9240,,,,,,-35.90307617,82.67520142,1,0,0,response7disk,1.6328,-11.04077148,4.455444336,1,0,0,rectangle,-11.04077148,4.455444336,1,0,0,1,-1,"[139,133,155,25,66,118,54,105,78,57]",-11.04077148,4.455444336,1,0,0,1,48,129,64,1,Pink,Pink.jpg,LightGreen,LightGreen.jpg,,
,,,,,,,,,,,,,,,,,,-4,,,,,,,,,,,,,,,,,,,,,,,,,,,,001,2021-12-16_18h05.36.603,jm_natural_scene_simialrity_2-12-2021_version2,2021.2.3,MacIntel,60.0024001,60c1a188c2924eeed13edeb2,61bbc5c79a1c66460f44041e,61bbc62c0eb0c2f3fbec9240,,,,,,-50.04907227,91.53594971,1,0,0,response7disk,0.65,10.4107666,-7.411499023,1,0,0,rectangle,10.4107666,-7.411499023,1,0,0,1,3,"[139,133,155,25,66,118,54,105,78,57]",10.4107666,-7.411499023,1,0,0,1,49,130,46,1,LightGreen,LightGreen.jpg,Red,Red.jpg,,
,,,,,,,,,,,,,,,,,,4,,,,,,,,,,,,,,,,,,,,,,,,,,,,001,2021-12-16_18h05.36.603,jm_natural_scene_simialrity_2-12-2021_version2,2021.2.3,MacIntel,60.0024001,60c1a188c2924eeed13edeb2,61bbc5c79a1c66460f44041e,61bbc62c0eb0c2f3fbec9240,,,,,,37.57458496,74.31317139,1,0,0,response1disk,0.7375,0.582885742,-4.501739502,1,0,0,rectangle,0.582885742,-4.501739502,1,0,0,1,-3,"[139,133,155,25,66,118,54,105,78,57]",0.582885742,-4.501739502,1,0,0,1,50,131,30,1,Turquiose,Turquiose.jpg,Turquiose,Turquiose.jpg,,
,,,,,,,,,,,,,,,,,,4,,,,,,,,,,,,,,,,,,,,,,,,,,,,001,2021-12-16_18h05.36.603,jm_natural_scene_simialrity_2-12-2021_version2,2021.2.3,MacIntel,60.0024001,60c1a188c2924eeed13edeb2,61bbc5c79a1c66460f44041e,61bbc62c0eb0c2f3fbec9240,,,,,,61.08813477,71.1953125,1,0,0,response1disk,0.615,14.47497559,10.56536865,1,0,0,rectangle,58.10723877,-97.51330566,1,0,0,1,1,"[139,133,155,25,66,118,54,105,78,57]",-1.632263184,-13.50106812,1,0,0,1,51,132,24,1,DarkGreen,DarkGreen.jpg,DarkGreen,DarkGreen.jpg,response3disk_3,rectangle
,,,,,,,,,,,,,,,,,,-4,,,,,,,,,,,,,,,,,,,,,,,,,,,,001,2021-12-16_18h05.36.603,jm_natural_scene_simialrity_2-12-2021_version2,2021.2.3,MacIntel,60.0024001,60c1a188c2924eeed13edeb2,61bbc5c79a1c66460f44041e,61bbc62c0eb0c2f3fbec9240,,,,,,-23.03234863,81.27966309,1,0,0,response7disk,0.9658,-4.700683594,2.679779053,1,0,0,rectangle,-4.700683594,2.679779053,1,0,0,1,-3,"[139,133,155,25,66,118,54,105,78,57]",-4.700683594,2.679779053,1,0,0,1,52,133,79,1,Purple,Purple.jpg,DarkBlue,DarkBlue.jpg,,
,,,,,,,,,,,,,,,,,,-3,,,,,,,,,,,,,,,,,,,,,,,,,,,,001,2021-12-16_18h05.36.603,jm_natural_scene_simialrity_2-12-2021_version2,2021.2.3,MacIntel,60.0024001,60c1a188c2924eeed13edeb2,61bbc5c79a1c66460f44041e,61bbc62c0eb0c2f3fbec9240,,,,,,-42.2890625,36.97338867,1,0,0,response7disk,0.7277,-16.70623779,0.566314697,1,0,0,rectangle,-16.70623779,0.566314697,1,0,0,1,-3,"[139,133,155,25,66,118,54,105,78,57]",-16.70623779,0.566314697,1,0,0,1,53,134,54,1,DarkGreen,DarkGreen.jpg,Yellow,Yellow.jpg,,
,,,,,,,,,,,,,,,,,,-4,,,,,,,,,,,,,,,,,,,,,,,,,,,,001,2021-12-16_18h05.36.603,jm_natural_scene_simialrity_2-12-2021_version2,2021.2.3,MacIntel,60.0024001,60c1a188c2924eeed13edeb2,61bbc5c79a1c66460f44041e,61bbc62c0eb0c2f3fbec9240,,,,,,-53.25854492,79.46868896,1,0,0,response7disk,0.5489,6.811218262,-20.3092041,1,0,0,rectangle,6.811218262,-20.3092041,1,0,0,1,-4,"[139,133,155,25,66,118,54,105,78,57]",6.811218262,-20.3092041,1,0,0,1,54,135,3,1,Red,Red.jpg,DarkGreen,DarkGreen.jpg,,
,,,,,,,,,,,,,,,,,,-4,,,,,,,,,,,,,,,,,,,,,,,,,,,,001,2021-12-16_18h05.36.603,jm_natural_scene_simialrity_2-12-2021_version2,2021.2.3,MacIntel,60.0024001,60c1a188c2924eeed13edeb2,61bbc5c79a1c66460f44041e,61bbc62c0eb0c2f3fbec9240,,,,,,-28.97546387,52.76101685,1,0,0,response7disk,0.5337,-0.067504883,-0.301361084,1,0,0,rectangle,-0.067504883,-0.301361084,1,0,0,1,-3,"[139,133,155,25,66,118,54,105,78,57]",-0.067504883,-0.301361084,1,0,0,1,55,136,73,1,Pink,Pink.jpg,Turquiose,Turquiose.jpg,,
,,,,,,,,,,,,,,,,,,-4,,,,,,,,,,,,,,,,,,,,,,,,,,,,001,2021-12-16_18h05.36.603,jm_natural_scene_simialrity_2-12-2021_version2,2021.2.3,MacIntel,60.0024001,60c1a188c2924eeed13edeb2,61bbc5c79a1c66460f44041e,61bbc62c0eb0c2f3fbec9240,,,,,,-34.2612915,71.68927002,1,0,0,response7disk,0.5355,16.21777344,-13.00067139,1,0,0,rectangle,16.21777344,-13.00067139,1,0,0,1,1,"[139,133,155,25,66,118,54,105,78,57]",16.21777344,-13.00067139,1,0,0,1,56,137,29,1,DarkGreen,DarkGreen.jpg,Purple,Purple.jpg,,
,,,,,,,,,,,,,,,,,,-4,,,,,,,,,,,,,,,,,,,,,,,,,,,,001,2021-12-16_18h05.36.603,jm_natural_scene_simialrity_2-12-2021_version2,2021.2.3,MacIntel,60.0024001,60c1a188c2924eeed13edeb2,61bbc5c79a1c66460f44041e,61bbc62c0eb0c2f3fbec9240,,,,,,-71.93920898,78.98989868,1,0,0,response7disk,0.5375,-2.721801758,2.137939453,1,0,0,rectangle,-75.97375488,-43.56240845,1,0,0,1,-2,"[139,133,155,25,66,118,54,105,78,57]",-12.37884521,18.50280762,1,0,0,1,57,138,69,1,Pink,Pink.jpg,DarkGreen,DarkGreen.jpg,response5disk_3,rectangle
,,,,,,,,,,,,,,,,,,4,,,,,,,,,,,,,,,,,,,,,,,,,,,,001,2021-12-16_18h05.36.603,jm_natural_scene_simialrity_2-12-2021_version2,2021.2.3,MacIntel,60.0024001,60c1a188c2924eeed13edeb2,61bbc5c79a1c66460f44041e,61bbc62c0eb0c2f3fbec9240,,,,,,30.75738525,96.40643311,1,0,0,response1disk,0.8708,15.40802002,5.178466797,1,0,0,rectangle,15.40802002,5.178466797,1,0,0,1,-4,"[139,133,155,25,66,118,54,105,78,57]",15.40802002,5.178466797,1,0,0,1,58,139,17,1,LightGreen,LightGreen.jpg,LightGreen,LightGreen.jpg,,
,,,,,,,,,,,,,,,,,,-4,,,,,,,,,,,,,,,,,,,,,,,,,,,,001,2021-12-16_18h05.36.603,jm_natural_scene_simialrity_2-12-2021_version2,2021.2.3,MacIntel,60.0024001,60c1a188c2924eeed13edeb2,61bbc5c79a1c66460f44041e,61bbc62c0eb0c2f3fbec9240,,,,,,-22.48699951,65.993927,1,0,0,response7disk,0.9655,0.338989258,2.17767334,1,0,0,rectangle,0.338989258,2.17767334,1,0,0,1,-1,"[139,133,155,25,66,118,54,105,78,57]",0.338989258,2.17767334,1,0,0,1,59,140,59,1,Purple,Purple.jpg,Yellow,Yellow.jpg,,
,,,,,,,,,,,,,,,,,,-4,,,,,,,,,,,,,,,,,,,,,,,,,,,,001,2021-12-16_18h05.36.603,jm_natural_scene_simialrity_2-12-2021_version2,2021.2.3,MacIntel,60.0024001,60c1a188c2924eeed13edeb2,61bbc5c79a1c66460f44041e,61bbc62c0eb0c2f3fbec9240,,,,,,-33.85919189,78.7649231,1,0,0,response7disk,1.2867,-0.175231934,2.03237915,1,0,0,rectangle,-0.175231934,2.03237915,1,0,0,1,1,"[139,133,155,25,66,118,54,105,78,57]",-0.175231934,2.03237915,1,0,0,1,60,141,65,1,Purple,Purple.jpg,LightGreen,LightGreen.jpg,,
,,,,,,,,,,,,,,,,,,-4,,,,,,,,,,,,,,,,,,,,,,,,,,,,001,2021-12-16_18h05.36.603,jm_natural_scene_simialrity_2-12-2021_version2,2021.2.3,MacIntel,60.0024001,60c1a188c2924eeed13edeb2,61bbc5c79a1c66460f44041e,61bbc62c0eb0c2f3fbec9240,,,,,,-40.5512085,61.27468872,1,0,0,response7disk,0.5188,-12.04248047,-5.046722412,1,0,0,rectangle,-12.04248047,-5.046722412,1,0,0,1,-4,"[139,133,155,25,66,118,54,105,78,57]",-12.04248047,-5.046722412,1,0,0,1,61,142,48,1,Turquiose,Turquiose.jpg,Red,Red.jpg,,
,,,,,,,,,,,,,,,,,,-4,,,,,,,,,,,,,,,,,,,,,,,,,,,,001,2021-12-16_18h05.36.603,jm_natural_scene_simialrity_2-12-2021_version2,2021.2.3,MacIntel,60.0024001,60c1a188c2924eeed13edeb2,61bbc5c79a1c66460f44041e,61bbc62c0eb0c2f3fbec9240,,,,,,-38.73901367,87.41903687,1,0,0,response7disk,0.4349,-1.245788574,15.90652466,1,0,0,rectangle,-1.245788574,15.90652466,1,0,0,1,1,"[139,133,155,25,66,118,54,105,78,57]",-1.245788574,15.90652466,1,0,0,1,62,143,71,1,LightBlue,LightBlue.jpg,Turquiose,Turquiose.jpg,,
,,,,,,,,,,,,,,,,,,-4,,,,,,,,,,,,,,,,,,,,,,,,,,,,001,2021-12-16_18h05.36.603,jm_natural_scene_simialrity_2-12-2021_version2,2021.2.3,MacIntel,60.0024001,60c1a188c2924eeed13edeb2,61bbc5c79a1c66460f44041e,61bbc62c0eb0c2f3fbec9240,,,,,,-27.4630127,78.72302246,1,0,0,response7disk,0.7349,-5.61114502,2.762054443,1,0,0,rectangle,-5.61114502,2.762054443,1,0,0,1,-1,"[139,133,155,25,66,118,54,105,78,57]",-5.61114502,2.762054443,1,0,0,1,63,144,72,1,DarkBlue,DarkBlue.jpg,Turquiose,Turquiose.jpg,,
,,,,,,,,,,,,,,,,,,-4,,,,,,,,,,,,,,,,,,,,,,,,,,,,001,2021-12-16_18h05.36.603,jm_natural_scene_simialrity_2-12-2021_version2,2021.2.3,MacIntel,60.0024001,60c1a188c2924eeed13edeb2,61bbc5c79a1c66460f44041e,61bbc62c0eb0c2f3fbec9240,,,,,,-56.84350586,73.84677124,1,0,0,response7disk,1.9318,-9.664489746,5.17590332,1,0,0,rectangle,-9.664489746,5.17590332,1,0,0,1,2,"[139,133,155,25,66,118,54,105,78,57]",-9.664489746,5.17590332,1,0,0,1,64,145,11,1,Yellow,Yellow.jpg,DarkGreen,DarkGreen.jpg,,
,,,,,,,,,,,,,,,,,,-4,,,,,,,,,,,,,,,,,,,,,,,,,,,,001,2021-12-16_18h05.36.603,jm_natural_scene_simialrity_2-12-2021_version2,2021.2.3,MacIntel,60.0024001,60c1a188c2924eeed13edeb2,61bbc5c79a1c66460f44041e,61bbc62c0eb0c2f3fbec9240,,,,,,-52.73760986,58.80136108,1,0,0,response7disk,0.548,-9.712341309,2.281463623,1,0,0,rectangle,-9.712341309,2.281463623,1,0,0,1,3,"[139,133,155,25,66,118,54,105,78,57]",-9.712341309,2.281463623,1,0,0,1,65,146,6,1,Red,Red.jpg,DarkBlue,DarkBlue.jpg,,
,,,,,,,,,,,,,,,,,,-4,,,,,,,,,,,,,,,,,,,,,,,,,,,,001,2021-12-16_18h05.36.603,jm_natural_scene_simialrity_2-12-2021_version2,2021.2.3,MacIntel,60.0024001,60c1a188c2924eeed13edeb2,61bbc5c79a1c66460f44041e,61bbc62c0eb0c2f3fbec9240,,,,,,-31.20227051,65.59747314,1,0,0,response7disk,0.5574,-4.960205078,15.38339233,1,0,0,rectangle,-4.960205078,15.38339233,1,0,0,1,-1,"[139,133,155,25,66,118,54,105,78,57]",-4.960205078,15.38339233,1,0,0,1,66,147,33,1,Turquiose,Turquiose.jpg,Pink,Pink.jpg,,
,,,,,,,,,,,,,,,,,,-4,,,,,,,,,,,,,,,,,,,,,,,,,,,,001,2021-12-16_18h05.36.603,jm_natural_scene_simialrity_2-12-2021_version2,2021.2.3,MacIntel,60.0024001,60c1a188c2924eeed13edeb2,61bbc5c79a1c66460f44041e,61bbc62c0eb0c2f3fbec9240,,,,,,-43.21276855,82.45794678,1,0,0,response7disk,0.5482,-5.152832031,9.885131836,1,0,0,rectangle,-5.152832031,9.885131836,1,0,0,1,-2,"[139,133,155,25,66,118,54,105,78,57]",-5.152832031,9.885131836,1,0,0,1,67,148,77,1,Purple,Purple.jpg,LightBlue,LightBlue.jpg,,
,,,,,,,,,,,,,,,,,,4,,,,,,,,,,,,,,,,,,,,,,,,,,,,001,2021-12-16_18h05.36.603,jm_natural_scene_simialrity_2-12-2021_version2,2021.2.3,MacIntel,60.0024001,60c1a188c2924eeed13edeb2,61bbc5c79a1c66460f44041e,61bbc62c0eb0c2f3fbec9240,,,,,,25.41723633,85.02648926,1,0,0,response1disk,1.0633,10.94104004,8.144195557,1,0,0,rectangle,10.94104004,8.144195557,1,0,0,1,1,"[139,133,155,25,66,118,54,105,78,57]",10.94104004,8.144195557,1,0,0,1,68,149,0,1,Red,Red.jpg,Red,Red.jpg,,
,,,,,,,,,,,,,,,,,,-4,,,,,,,,,,,,,,,,,,,,,,,,,,,,001,2021-12-16_18h05.36.603,jm_natural_scene_simialrity_2-12-2021_version2,2021.2.3,MacIntel,60.0024001,60c1a188c2924eeed13edeb2,61bbc5c79a1c66460f44041e,61bbc62c0eb0c2f3fbec9240,,,,,,-51.36090088,82.0524292,1,0,0,response7disk,2.3145,4.740600586,-5.057281494,1,0,0,rectangle,4.740600586,-5.057281494,1,0,0,1,3,"[139,133,155,25,66,118,54,105,78,57]",4.740600586,-5.057281494,1,0,0,1,69,150,50,1,DarkBlue,DarkBlue.jpg,Red,Red.jpg,,
,,,,,,,,,,,,,,,,,,-4,,,,,,,,,,,,,,,,,,,,,,,,,,,,001,2021-12-16_18h05.36.603,jm_natural_scene_simialrity_2-12-2021_version2,2021.2.3,MacIntel,60.0024001,60c1a188c2924eeed13edeb2,61bbc5c79a1c66460f44041e,61bbc62c0eb0c2f3fbec9240,,,,,,-48.83050537,68.75149536,1,0,0,response7disk,0.7495,-11.34777832,6.506072998,1,0,0,rectangle,-11.34777832,6.506072998,1,0,0,1,-4,"[139,133,155,25,66,118,54,105,78,57]",-11.34777832,6.506072998,1,0,0,1,70,151,52,1,Purple,Purple.jpg,Red,Red.jpg,,
,,,,,,,,,,,,,,,,,,-4,,,,,,,,,,,,,,,,,,,,,,,,,,,,001,2021-12-16_18h05.36.603,jm_natural_scene_simialrity_2-12-2021_version2,2021.2.3,MacIntel,60.0024001,60c1a188c2924eeed13edeb2,61bbc5c79a1c66460f44041e,61bbc62c0eb0c2f3fbec9240,,,,,,-49.09191895,65.48422241,1,0,0,response7disk,0.5522,-18.54644775,14.46047974,1,0,0,rectangle,-18.54644775,14.46047974,1,0,0,1,-1,"[139,133,155,25,66,118,54,105,78,57]",-18.54644775,14.46047974,1,0,0,1,71,152,40,1,DarkBlue,DarkBlue.jpg,Pink,Pink.jpg,,
,,,,,,,,,,,,,,,,,,-4,,,,,,,,,,,,,,,,,,,,,,,,,,,,001,2021-12-16_18h05.36.603,jm_natural_scene_simialrity_2-12-2021_version2,2021.2.3,MacIntel,60.0024001,60c1a188c2924eeed13edeb2,61bbc5c79a1c66460f44041e,61bbc62c0eb0c2f3fbec9240,,,,,,-38.10101318,72.26260376,1,0,0,response7disk,0.5699,-5.586730957,14.47354126,1,0,0,rectangle,-5.586730957,14.47354126,1,0,0,1,-1,"[139,133,155,25,66,118,54,105,78,57]",-5.586730957,14.47354126,1,0,0,1,72,153,61,1,Turquiose,Turquiose.jpg,LightGreen,LightGreen.jpg,,
,,,,,,,,,,,,,,,,,,-4,,,,,,,,,,,,,,,,,,,,,,,,,,,,001,2021-12-16_18h05.36.603,jm_natural_scene_simialrity_2-12-2021_version2,2021.2.3,MacIntel,60.0024001,60c1a188c2924eeed13edeb2,61bbc5c79a1c66460f44041e,61bbc62c0eb0c2f3fbec9240,,,,,,-47.55072021,80.75079346,1,0,0,response7disk,0.586,-14.42480469,15.74902344,1,0,0,rectangle,-28.45965576,71.28790283,1,0,0,-4,-1,"[139,133,155,25,66,118,54,105,78,57]",-1.612182617,17.01507568,1,0,0,1,73,154,62,1,LightBlue,LightBlue.jpg,LightGreen,LightGreen.jpg,response7disk_3,rectangle
,,,,,,,,,,,,,,,,,,-4,,,,,,,,,,,,,,,,,,,,,,,,,,,,001,2021-12-16_18h05.36.603,jm_natural_scene_simialrity_2-12-2021_version2,2021.2.3,MacIntel,60.0024001,60c1a188c2924eeed13edeb2,61bbc5c79a1c66460f44041e,61bbc62c0eb0c2f3fbec9240,,,,,,-29.10925293,74.66479492,1,0,0,response7disk,0.5616,-3.00567627,8.9659729,1,0,0,rectangle,-3.00567627,8.9659729,1,0,0,-4,2,"[139,133,155,25,66,118,54,105,78,57]",-3.00567627,8.9659729,1,0,0,1,74,155,63,1,DarkBlue,DarkBlue.jpg,LightGreen,LightGreen.jpg,,
,,,,,,,,,,,,,,,,,,-4,,,,,,,,,,,,,,,,,,,,,,,,,,,,001,2021-12-16_18h05.36.603,jm_natural_scene_simialrity_2-12-2021_version2,2021.2.3,MacIntel,60.0024001,60c1a188c2924eeed13edeb2,61bbc5c79a1c66460f44041e,61bbc62c0eb0c2f3fbec9240,,,,,,-40.32965088,67.84262085,1,0,0,response7disk,0.5504,-9.031311035,2.78894043,1,0,0,rectangle,-9.031311035,2.78894043,1,0,0,-4,1,"[139,133,155,25,66,118,54,105,78,57]",-9.031311035,2.78894043,1,0,0,1,75,156,8,1,Red,Red.jpg,Purple,Purple.jpg,,
,,,,,,,,,,,,,,,,,,-4,,,,,,,,,,,,,,,,,,,,,,,,,,,,001,2021-12-16_18h05.36.603,jm_natural_scene_simialrity_2-12-2021_version2,2021.2.3,MacIntel,60.0024001,60c1a188c2924eeed13edeb2,61bbc5c79a1c66460f44041e,61bbc62c0eb0c2f3fbec9240,,,,,,-31.58203125,91.33825684,1,0,0,response7disk,0.9796,2.275146484,11.4312439,1,0,0,rectangle,2.275146484,11.4312439,1,0,0,-4,-1,"[139,133,155,25,66,118,54,105,78,57]",2.275146484,11.4312439,1,0,0,1,76,157,23,1,LightGreen,LightGreen.jpg,Purple,Purple.jpg,,
,,,,,,,,,,,,,,,,,,-4,,,,,,,,,,,,,,,,,,,,,,,,,,,,001,2021-12-16_18h05.36.603,jm_natural_scene_simialrity_2-12-2021_version2,2021.2.3,MacIntel,60.0024001,60c1a188c2924eeed13edeb2,61bbc5c79a1c66460f44041e,61bbc62c0eb0c2f3fbec9240,,,,,,-28.90618896,64.76245117,1,0,0,response7disk,1.0517,4.149475098,-6.353302002,1,0,0,rectangle,4.149475098,-6.353302002,1,0,0,-4,-1,"[139,133,155,25,66,118,54,105,78,57]",4.149475098,-6.353302002,1,0,0,1,77,158,75,1,DarkBlue,DarkBlue.jpg,LightBlue,LightBlue.jpg,,
,,,,,,,,,,,,,,,,,,-3,,,,,,,,,,,,,,,,,,,,,,,,,,,,001,2021-12-16_18h05.36.603,jm_natural_scene_simialrity_2-12-2021_version2,2021.2.3,MacIntel,60.0024001,60c1a188c2924eeed13edeb2,61bbc5c79a1c66460f44041e,61bbc62c0eb0c2f3fbec9240,,,,,,-99.22546387,31.16470337,1,0,0,response7disk,1.3845,2.189208984,-2.277770996,1,0,0,rectangle,2.189208984,-2.277770996,1,0,0,-4,-3,"[139,133,155,25,66,118,54,105,78,57]",2.189208984,-2.277770996,1,0,0,1,78,159,60,1,DarkGreen,DarkGreen.jpg,LightGreen,LightGreen.jpg,,
,,,,,,,,,,,,,,,,,,-3,,,,,,,,,,,,,,,,,,,,,,,,,,,,001,2021-12-16_18h05.36.603,jm_natural_scene_simialrity_2-12-2021_version2,2021.2.3,MacIntel,60.0024001,60c1a188c2924eeed13edeb2,61bbc5c79a1c66460f44041e,61bbc62c0eb0c2f3fbec9240,,,,,,-76.80267334,38.68121338,1,0,0,response7disk,0.7965,2.856872559,-2.316955566,1,0,0,rectangle,2.856872559,-2.316955566,1,0,0,-4,-2,"[139,133,155,25,66,118,54,105,78,57]",2.856872559,-2.316955566,1,0,0,1,79,160,7,1,Red,Red.jpg,Pink,Pink.jpg,,
,,,,,,,,,,,,,,,,,,-4,,,,,,,,,,,,,,,,,,,,,,,,,,,,001,2021-12-16_18h05.36.603,jm_natural_scene_simialrity_2-12-2021_version2,2021.2.3,MacIntel,60.0024001,60c1a188c2924eeed13edeb2,61bbc5c79a1c66460f44041e,61bbc62c0eb0c2f3fbec9240,,,,,,-27.47650146,87.49551392,1,0,0,response7disk,0.7797,0.31048584,-2.777313232,1,0,0,rectangle,0.31048584,-2.777313232,1,0,0,-4,1,"[139,133,155,25,66,118,54,105,78,57]",0.31048584,-2.777313232,1,0,0,1,80,161,16,1,Yellow,Yellow.jpg,Purple,Purple.jpg,,
