key_resp.keys,key_resp.rt,key_resp_16.keys,key_resp_16.rt,key_resp_2.keys,key_resp_2.rt,key_resp_3.keys,key_resp_3.rt,key_resp_19.keys,key_resp_19.rt,key_resp_10.keys,key_resp_10.rt,mouse_prac.x,mouse_prac.y,mouse_prac.leftButton,mouse_prac.midButton,mouse_prac.rightButton,mouse_prac.clicked_name,similarity,mouse_10.x,mouse_10.y,mouse_10.leftButton,mouse_10.midButton,mouse_10.rightButton,mouse_10.clicked_name,mouse_catch_prac.x,mouse_catch_prac.y,mouse_catch_prac.leftButton,mouse_catch_prac.midButton,mouse_catch_prac.rightButton,catchnumberprac,mouse_6.x,mouse_6.y,mouse_6.leftButton,mouse_6.midButton,mouse_6.rightButton,during_prac.thisRepN,during_prac.thisTrialN,during_prac.thisN,during_prac.thisIndex,during_prac.ran,trailimage1,trial1adress,trailimage2,trial2adress,participant,session,date,expName,psychopyVersion,OS,frameRate,PROLIFIC_PID,STUDY_ID,SESSION_ID,key_resp_22.keys,key_resp_22.rt,mouse.x,mouse.y,mouse.leftButton,mouse.midButton,mouse.rightButton,mouse.clicked_name,response_time,mouse_2.x,mouse_2.y,mouse_2.leftButton,mouse_2.midButton,mouse_2.rightButton,mouse_2.clicked_name,mouse_3.x,mouse_3.y,mouse_3.leftButton,mouse_3.midButton,mouse_3.rightButton,catchresponse,catchnumber,catchtrialorder,mouse_11.x,mouse_11.y,mouse_11.leftButton,mouse_11.midButton,mouse_11.rightButton,trials_2.thisRepN,trials_2.thisTrialN,trials_2.thisN,trials_2.thisIndex,trials_2.ran,image1,image1adress,image2,image2adress,mouse_3.clicked_name,mouse_11.clicked_name
space,3.5245,space,19.7975,space,10.9799,space,20.2387,space,51.413,space,7.0655,-111,-48,1,0,0,response5disk_5,-2,3,-1,1,0,0,rectangle_8,3,-1,1,0,0,-4,3,-1,1,0,0,0,0,0,4,1,trail2,trail2.jpg,trail3,trail3.jpg,5cfdbf81f8ff8a00157310e0,001,2021-12-06_04h15.52.375,jm_natural_scene_simialrity_2-12-2021,2021.2.3,Win32,59.87665409,5cfdbf81f8ff8a00157310e0,61ad71e11ddd29ccf7a27d5b,61ad72130e928d771ea13c22,,,,,,,,,,,,,,,,,,,,,,,,,,,,,,,,,,,,,,,
,,,,,,,,,,,,61,103,1,0,0,response1disk_5,4,-3,-1,1,0,0,rectangle_8,-3,-1,1,0,0,-4,-3,-1,1,0,0,0,1,1,3,1,trail2,trail2.jpg,trail2,trail2.jpg,5cfdbf81f8ff8a00157310e0,001,2021-12-06_04h15.52.375,jm_natural_scene_simialrity_2-12-2021,2021.2.3,Win32,59.87665409,5cfdbf81f8ff8a00157310e0,61ad71e11ddd29ccf7a27d5b,61ad72130e928d771ea13c22,,,,,,,,,,,,,,,,,,,,,,,,,,,,,,,,,,,,,,,
,,,,,,,,,,,,61,99,1,0,0,response1disk_5,4,0,-2,1,0,0,rectangle_8,0,-2,1,0,0,-4,0,-2,1,0,0,0,2,2,5,1,trail3,trail3.jpg,trail3,trail3.jpg,5cfdbf81f8ff8a00157310e0,001,2021-12-06_04h15.52.375,jm_natural_scene_simialrity_2-12-2021,2021.2.3,Win32,59.87665409,5cfdbf81f8ff8a00157310e0,61ad71e11ddd29ccf7a27d5b,61ad72130e928d771ea13c22,,,,,,,,,,,,,,,,,,,,,,,,,,,,,,,,,,,,,,,
,,,,,,,,,,,,-35,-96,1,0,0,response5disk_5,-1,-1,4,1,0,0,rectangle_8,-1,4,1,0,0,-4,-1,4,1,0,0,0,3,3,2,1,trail1,trail1.jpg,trail3,trail3.jpg,5cfdbf81f8ff8a00157310e0,001,2021-12-06_04h15.52.375,jm_natural_scene_simialrity_2-12-2021,2021.2.3,Win32,59.87665409,5cfdbf81f8ff8a00157310e0,61ad71e11ddd29ccf7a27d5b,61ad72130e928d771ea13c22,,,,,,,,,,,,,,,,,,,,,,,,,,,,,,,,,,,,,,,
,,,,,,,,,,,,41,-112,1,0,0,response3disk_5,1,-4,1,1,0,0,rectangle_8,-4,1,1,0,0,-4,-4,1,1,0,0,0,4,4,1,1,trail1,trail1.jpg,trail2,trail2.jpg,5cfdbf81f8ff8a00157310e0,001,2021-12-06_04h15.52.375,jm_natural_scene_simialrity_2-12-2021,2021.2.3,Win32,59.87665409,5cfdbf81f8ff8a00157310e0,61ad71e11ddd29ccf7a27d5b,61ad72130e928d771ea13c22,,,,,,,,,,,,,,,,,,,,,,,,,,,,,,,,,,,,,,,
,,,,,,,,,,,,49,105,1,0,0,response1disk_5,4,-3,-1,1,0,0,rectangle_8,-3,-1,1,0,0,-4,-3,-1,1,0,0,0,5,5,0,1,trail1,trail1.jpg,trail1,trail1.jpg,5cfdbf81f8ff8a00157310e0,001,2021-12-06_04h15.52.375,jm_natural_scene_simialrity_2-12-2021,2021.2.3,Win32,59.87665409,5cfdbf81f8ff8a00157310e0,61ad71e11ddd29ccf7a27d5b,61ad72130e928d771ea13c22,,,,,,,,,,,,,,,,,,,,,,,,,,,,,,,,,,,,,,,
,,,,,,,,,,,,,,,,,,1,,,,,,,,,,,,,,,,,,,,,,,,,,,5cfdbf81f8ff8a00157310e0,001,2021-12-06_04h15.52.375,jm_natural_scene_simialrity_2-12-2021,2021.2.3,Win32,59.87665409,5cfdbf81f8ff8a00157310e0,61ad71e11ddd29ccf7a27d5b,61ad72130e928d771ea13c22,space,3.4958,42,-106,1,0,0,response3disk,3.9995,-5,7,1,0,0,rectangle,-5,7,1,0,0,,-3,"[104,45,151,89,48,128,62,129,35,39]",-5,7,1,0,0,0,0,0,15,1,Yellow,Yellow.jpg,Pink,Pink.jpg,,
,,,,,,,,,,,,,,,,,,4,,,,,,,,,,,,,,,,,,,,,,,,,,,5cfdbf81f8ff8a00157310e0,001,2021-12-06_04h15.52.375,jm_natural_scene_simialrity_2-12-2021,2021.2.3,Win32,59.87665409,5cfdbf81f8ff8a00157310e0,61ad71e11ddd29ccf7a27d5b,61ad72130e928d771ea13c22,,,38,110,1,0,0,response1disk,1.49,-1,1,1,0,0,rectangle,-1,1,1,0,0,,-4,"[104,45,151,89,48,128,62,129,35,39]",-1,1,1,0,0,0,1,1,24,1,DarkGreen,DarkGreen.jpg,DarkGreen,DarkGreen.jpg,,
,,,,,,,,,,,,,,,,,,4,,,,,,,,,,,,,,,,,,,,,,,,,,,5cfdbf81f8ff8a00157310e0,001,2021-12-06_04h15.52.375,jm_natural_scene_simialrity_2-12-2021,2021.2.3,Win32,59.87665409,5cfdbf81f8ff8a00157310e0,61ad71e11ddd29ccf7a27d5b,61ad72130e928d771ea13c22,,,47,100,1,0,0,response1disk,2.0793,-3,0,1,0,0,rectangle,-3,0,1,0,0,,2,"[104,45,151,89,48,128,62,129,35,39]",-3,0,1,0,0,0,2,2,42,1,Pink,Pink.jpg,Pink,Pink.jpg,,
,,,,,,,,,,,,,,,,,,-4,,,,,,,,,,,,,,,,,,,,,,,,,,,5cfdbf81f8ff8a00157310e0,001,2021-12-06_04h15.52.375,jm_natural_scene_simialrity_2-12-2021,2021.2.3,Win32,59.87665409,5cfdbf81f8ff8a00157310e0,61ad71e11ddd29ccf7a27d5b,61ad72130e928d771ea13c22,,,-48,99,1,0,0,response7disk,1.7843,-2,0,1,0,0,rectangle,-2,0,1,0,0,,-1,"[104,45,151,89,48,128,62,129,35,39]",-2,0,1,0,0,0,3,3,55,1,Turquiose,Turquiose.jpg,Yellow,Yellow.jpg,,
,,,,,,,,,,,,,,,,,,-4,,,,,,,,,,,,,,,,,,,,,,,,,,,5cfdbf81f8ff8a00157310e0,001,2021-12-06_04h15.52.375,jm_natural_scene_simialrity_2-12-2021,2021.2.3,Win32,59.87665409,5cfdbf81f8ff8a00157310e0,61ad71e11ddd29ccf7a27d5b,61ad72130e928d771ea13c22,,,-47,89,1,0,0,response7disk,1.8384,-4,6,1,0,0,rectangle,-4,6,1,0,0,,-3,"[104,45,151,89,48,128,62,129,35,39]",-4,6,1,0,0,0,4,4,16,1,Yellow,Yellow.jpg,Purple,Purple.jpg,,
,,,,,,,,,,,,,,,,,,-4,,,,,,,,,,,,,,,,,,,,,,,,,,,5cfdbf81f8ff8a00157310e0,001,2021-12-06_04h15.52.375,jm_natural_scene_simialrity_2-12-2021,2021.2.3,Win32,59.87665409,5cfdbf81f8ff8a00157310e0,61ad71e11ddd29ccf7a27d5b,61ad72130e928d771ea13c22,,,-54,101,1,0,0,response7disk,1.2988,-4,-1,1,0,0,rectangle,-4,-1,1,0,0,,-4,"[104,45,151,89,48,128,62,129,35,39]",-4,-1,1,0,0,0,5,5,62,1,LightBlue,LightBlue.jpg,LightGreen,LightGreen.jpg,,
,,,,,,,,,,,,,,,,,,-4,,,,,,,,,,,,,,,,,,,,,,,,,,,5cfdbf81f8ff8a00157310e0,001,2021-12-06_04h15.52.375,jm_natural_scene_simialrity_2-12-2021,2021.2.3,Win32,59.87665409,5cfdbf81f8ff8a00157310e0,61ad71e11ddd29ccf7a27d5b,61ad72130e928d771ea13c22,,,-52,106,1,0,0,response7disk,1.1766,-7,-3,1,0,0,rectangle,-7,-3,1,0,0,,1,"[104,45,151,89,48,128,62,129,35,39]",-7,-3,1,0,0,0,6,6,67,1,LightBlue,LightBlue.jpg,DarkGreen,DarkGreen.jpg,,
,,,,,,,,,,,,,,,,,,-4,,,,,,,,,,,,,,,,,,,,,,,,,,,5cfdbf81f8ff8a00157310e0,001,2021-12-06_04h15.52.375,jm_natural_scene_simialrity_2-12-2021,2021.2.3,Win32,59.87665409,5cfdbf81f8ff8a00157310e0,61ad71e11ddd29ccf7a27d5b,61ad72130e928d771ea13c22,,,-50,97,1,0,0,response7disk,1.1094,-3,2,1,0,0,rectangle,-3,2,1,0,0,,3,"[104,45,151,89,48,128,62,129,35,39]",-3,2,1,0,0,0,7,7,19,1,LightGreen,LightGreen.jpg,Turquiose,Turquiose.jpg,,
,,,,,,,,,,,,,,,,,,-4,,,,,,,,,,,,,,,,,,,,,,,,,,,5cfdbf81f8ff8a00157310e0,001,2021-12-06_04h15.52.375,jm_natural_scene_simialrity_2-12-2021,2021.2.3,Win32,59.87665409,5cfdbf81f8ff8a00157310e0,61ad71e11ddd29ccf7a27d5b,61ad72130e928d771ea13c22,,,-42,87,1,0,0,response7disk,1.5726,-1,7,1,0,0,rectangle,-1,7,1,0,0,,1,"[104,45,151,89,48,128,62,129,35,39]",-1,7,1,0,0,0,8,8,61,1,Turquiose,Turquiose.jpg,LightGreen,LightGreen.jpg,,
,,,,,,,,,,,,,,,,,,-4,,,,,,,,,,,,,,,,,,,,,,,,,,,5cfdbf81f8ff8a00157310e0,001,2021-12-06_04h15.52.375,jm_natural_scene_simialrity_2-12-2021,2021.2.3,Win32,59.87665409,5cfdbf81f8ff8a00157310e0,61ad71e11ddd29ccf7a27d5b,61ad72130e928d771ea13c22,,,-44,85,1,0,0,response7disk,1.0165,-3,7,1,0,0,rectangle,-3,7,1,0,0,,-4,"[104,45,151,89,48,128,62,129,35,39]",-3,7,1,0,0,0,9,9,76,1,Pink,Pink.jpg,LightBlue,LightBlue.jpg,,
,,,,,,,,,,,,,,,,,,-4,,,,,,,,,,,,,,,,,,,,,,,,,,,5cfdbf81f8ff8a00157310e0,001,2021-12-06_04h15.52.375,jm_natural_scene_simialrity_2-12-2021,2021.2.3,Win32,59.87665409,5cfdbf81f8ff8a00157310e0,61ad71e11ddd29ccf7a27d5b,61ad72130e928d771ea13c22,,,-45,93,1,0,0,response7disk,1.1429,0,3,1,0,0,rectangle,0,3,1,0,0,,3,"[104,45,151,89,48,128,62,129,35,39]",0,3,1,0,0,0,10,10,26,1,DarkGreen,DarkGreen.jpg,LightBlue,LightBlue.jpg,,
,,,,,,,,,,,,,,,,,,4,,,,,,,,,,,,,,,,,,,,,,,,,,,5cfdbf81f8ff8a00157310e0,001,2021-12-06_04h15.52.375,jm_natural_scene_simialrity_2-12-2021,2021.2.3,Win32,59.87665409,5cfdbf81f8ff8a00157310e0,61ad71e11ddd29ccf7a27d5b,61ad72130e928d771ea13c22,,,47,103,1,0,0,response1disk,1.2212,3,6,1,0,0,rectangle,3,6,1,0,0,,2,"[104,45,151,89,48,128,62,129,35,39]",3,6,1,0,0,0,11,11,9,1,Yellow,Yellow.jpg,Yellow,Yellow.jpg,,
,,,,,,,,,,,,,,,,,,-4,,,,,,,,,,,,,,,,,,,,,,,,,,,5cfdbf81f8ff8a00157310e0,001,2021-12-06_04h15.52.375,jm_natural_scene_simialrity_2-12-2021,2021.2.3,Win32,59.87665409,5cfdbf81f8ff8a00157310e0,61ad71e11ddd29ccf7a27d5b,61ad72130e928d771ea13c22,,,-40,92,1,0,0,response7disk,1.0874,-5,-2,1,0,0,rectangle,-5,-2,1,0,0,,-1,"[104,45,151,89,48,128,62,129,35,39]",-5,-2,1,0,0,0,12,12,4,1,Red,Red.jpg,Turquiose,Turquiose.jpg,,
,,,,,,,,,,,,,,,,,,-2,,,,,,,,,,,,,,,,,,,,,,,,,,,5cfdbf81f8ff8a00157310e0,001,2021-12-06_04h15.52.375,jm_natural_scene_simialrity_2-12-2021,2021.2.3,Win32,59.87665409,5cfdbf81f8ff8a00157310e0,61ad71e11ddd29ccf7a27d5b,61ad72130e928d771ea13c22,,,-87,-49,1,0,0,response5disk,3.5086,-4,2,1,0,0,rectangle,-4,2,1,0,0,,-3,"[104,45,151,89,48,128,62,129,35,39]",-4,2,1,0,0,0,13,13,49,1,LightBlue,LightBlue.jpg,Red,Red.jpg,,
,,,,,,,,,,,,,,,,,,-3,,,,,,,,,,,,,,,,,,,,,,,,,,,5cfdbf81f8ff8a00157310e0,001,2021-12-06_04h15.52.375,jm_natural_scene_simialrity_2-12-2021,2021.2.3,Win32,59.87665409,5cfdbf81f8ff8a00157310e0,61ad71e11ddd29ccf7a27d5b,61ad72130e928d771ea13c22,,,-94,43,1,0,0,response7disk,1.4222,-7,2,1,0,0,rectangle,-7,2,1,0,0,,-3,"[104,45,151,89,48,128,62,129,35,39]",-7,2,1,0,0,0,14,14,36,1,LightBlue,LightBlue.jpg,DarkBlue,DarkBlue.jpg,,
,,,,,,,,,,,,,,,,,,-2,,,,,,,,,,,,,,,,,,,,,,,,,,,5cfdbf81f8ff8a00157310e0,001,2021-12-06_04h15.52.375,jm_natural_scene_simialrity_2-12-2021,2021.2.3,Win32,59.87665409,5cfdbf81f8ff8a00157310e0,61ad71e11ddd29ccf7a27d5b,61ad72130e928d771ea13c22,,,-97,-32,1,0,0,response5disk,1.9049,-6,6,1,0,0,rectangle,-6,6,1,0,0,,-4,"[104,45,151,89,48,128,62,129,35,39]",-6,6,1,0,0,0,15,15,68,1,DarkBlue,DarkBlue.jpg,DarkGreen,DarkGreen.jpg,,
,,,,,,,,,,,,,,,,,,-2,,,,,,,,,,,,,,,,,,,,,,,,,,,5cfdbf81f8ff8a00157310e0,001,2021-12-06_04h15.52.375,jm_natural_scene_simialrity_2-12-2021,2021.2.3,Win32,59.87665409,5cfdbf81f8ff8a00157310e0,61ad71e11ddd29ccf7a27d5b,61ad72130e928d771ea13c22,,,-94,-38,1,0,0,response5disk,2.0368,-4,0,1,0,0,rectangle,-4,0,1,0,0,,3,"[104,45,151,89,48,128,62,129,35,39]",-4,0,1,0,0,0,16,16,32,1,Turquiose,Turquiose.jpg,DarkBlue,DarkBlue.jpg,,
,,,,,,,,,,,,,,,,,,-4,,,,,,,,,,,,,,,,,,,,,,,,,,,5cfdbf81f8ff8a00157310e0,001,2021-12-06_04h15.52.375,jm_natural_scene_simialrity_2-12-2021,2021.2.3,Win32,59.87665409,5cfdbf81f8ff8a00157310e0,61ad71e11ddd29ccf7a27d5b,61ad72130e928d771ea13c22,,,-75,108,1,0,0,response7disk,2.0015,3,6,1,0,0,rectangle,3,6,1,0,0,,-2,"[104,45,151,89,48,128,62,129,35,39]",3,6,1,0,0,0,17,17,29,1,DarkGreen,DarkGreen.jpg,Purple,Purple.jpg,,
,,,,,,,,,,,,,,,,,,-4,,,,,,,,,,,,,,,,,,,,,,,,,,,5cfdbf81f8ff8a00157310e0,001,2021-12-06_04h15.52.375,jm_natural_scene_simialrity_2-12-2021,2021.2.3,Win32,59.87665409,5cfdbf81f8ff8a00157310e0,61ad71e11ddd29ccf7a27d5b,61ad72130e928d771ea13c22,,,-68,119,1,0,0,response7disk,1.1373,-7,2,1,0,0,rectangle,-7,2,1,0,0,,-2,"[104,45,151,89,48,128,62,129,35,39]",-7,2,1,0,0,0,18,18,52,1,Purple,Purple.jpg,Red,Red.jpg,,
,,,,,,,,,,,,,,,,,,-4,,,,,,,,,,,,,,,,,,,,,,,,,,,5cfdbf81f8ff8a00157310e0,001,2021-12-06_04h15.52.375,jm_natural_scene_simialrity_2-12-2021,2021.2.3,Win32,59.87665409,5cfdbf81f8ff8a00157310e0,61ad71e11ddd29ccf7a27d5b,61ad72130e928d771ea13c22,,,-58,115,1,0,0,response7disk,1.0041,-7,1,1,0,0,rectangle,-7,1,1,0,0,,3,"[104,45,151,89,48,128,62,129,35,39]",-7,1,1,0,0,0,19,19,14,1,Yellow,Yellow.jpg,DarkBlue,DarkBlue.jpg,,
,,,,,,,,,,,,,,,,,,-4,,,,,,,,,,,,,,,,,,,,,,,,,,,5cfdbf81f8ff8a00157310e0,001,2021-12-06_04h15.52.375,jm_natural_scene_simialrity_2-12-2021,2021.2.3,Win32,59.87665409,5cfdbf81f8ff8a00157310e0,61ad71e11ddd29ccf7a27d5b,61ad72130e928d771ea13c22,,,-39,106,1,0,0,response7disk,0.9207,-1,19,1,0,0,rectangle,-1,19,1,0,0,,-1,"[104,45,151,89,48,128,62,129,35,39]",-1,19,1,0,0,0,20,20,28,1,DarkGreen,DarkGreen.jpg,Pink,Pink.jpg,,
,,,,,,,,,,,,,,,,,,4,,,,,,,,,,,,,,,,,,,,,,,,,,,5cfdbf81f8ff8a00157310e0,001,2021-12-06_04h15.52.375,jm_natural_scene_simialrity_2-12-2021,2021.2.3,Win32,59.87665409,5cfdbf81f8ff8a00157310e0,61ad71e11ddd29ccf7a27d5b,61ad72130e928d771ea13c22,,,70,114,1,0,0,response1disk,1.1206,0,1,1,0,0,rectangle,0,1,1,0,0,,-3,"[104,45,151,89,48,128,62,129,35,39]",0,1,1,0,0,0,21,21,44,1,Purple,Purple.jpg,Purple,Purple.jpg,,
,,,,,,,,,,,,,,,,,,-2,,,,,,,,,,,,,,,,,,,,,,,,,,,5cfdbf81f8ff8a00157310e0,001,2021-12-06_04h15.52.375,jm_natural_scene_simialrity_2-12-2021,2021.2.3,Win32,59.87665409,5cfdbf81f8ff8a00157310e0,61ad71e11ddd29ccf7a27d5b,61ad72130e928d771ea13c22,,,-98,-47,1,0,0,response5disk,3.6023,2,5,1,0,0,rectangle,2,5,1,0,0,,2,"[104,45,151,89,48,128,62,129,35,39]",2,5,1,0,0,0,22,22,31,1,Turquiose,Turquiose.jpg,LightBlue,LightBlue.jpg,,
,,,,,,,,,,,,,,,,,,-2,,,,,,,,,,,,,,,,,,,,,,,,,,,5cfdbf81f8ff8a00157310e0,001,2021-12-06_04h15.52.375,jm_natural_scene_simialrity_2-12-2021,2021.2.3,Win32,59.87665409,5cfdbf81f8ff8a00157310e0,61ad71e11ddd29ccf7a27d5b,61ad72130e928d771ea13c22,,,-93,-40,1,0,0,response5disk,2.8599,-6,9,1,0,0,rectangle,-6,9,1,0,0,,2,"[104,45,151,89,48,128,62,129,35,39]",-6,9,1,0,0,0,23,23,22,1,LightGreen,LightGreen.jpg,Pink,Pink.jpg,,
,,,,,,,,,,,,,,,,,,-4,,,,,,,,,,,,,,,,,,,,,,,,,,,5cfdbf81f8ff8a00157310e0,001,2021-12-06_04h15.52.375,jm_natural_scene_simialrity_2-12-2021,2021.2.3,Win32,59.87665409,5cfdbf81f8ff8a00157310e0,61ad71e11ddd29ccf7a27d5b,61ad72130e928d771ea13c22,,,-74,107,1,0,0,response7disk,2.3911,-9,1,1,0,0,rectangle,-9,1,1,0,0,,2,"[104,45,151,89,48,128,62,129,35,39]",-9,1,1,0,0,0,24,24,21,1,LightGreen,LightGreen.jpg,DarkBlue,DarkBlue.jpg,,
,,,,,,,,,,,,,,,,,,4,,,,,,,,,,,,,,,,,,,,,,,,,,,5cfdbf81f8ff8a00157310e0,001,2021-12-06_04h15.52.375,jm_natural_scene_simialrity_2-12-2021,2021.2.3,Win32,59.87665409,5cfdbf81f8ff8a00157310e0,61ad71e11ddd29ccf7a27d5b,61ad72130e928d771ea13c22,,,43,116,1,0,0,response1disk,1.066,-4,3,1,0,0,rectangle,-4,3,1,0,0,,-4,"[104,45,151,89,48,128,62,129,35,39]",-4,3,1,0,0,0,25,25,35,1,LightBlue,LightBlue.jpg,LightBlue,LightBlue.jpg,,
,,,,,,,,,,,,,,,,,,-2,,,,,,,,,,,,,,,,,,,,,,,,,,,5cfdbf81f8ff8a00157310e0,001,2021-12-06_04h15.52.375,jm_natural_scene_simialrity_2-12-2021,2021.2.3,Win32,59.87665409,5cfdbf81f8ff8a00157310e0,61ad71e11ddd29ccf7a27d5b,61ad72130e928d771ea13c22,,,-119,-32,1,0,0,response5disk,2.1796,-7,1,1,0,0,rectangle,-7,1,1,0,0,,2,"[104,45,151,89,48,128,62,129,35,39]",-7,1,1,0,0,0,26,26,73,1,Pink,Pink.jpg,Turquiose,Turquiose.jpg,,
,,,,,,,,,,,,,,,,,,2,,,,,,,,,,,,,,,,,,,,,,,,,,,5cfdbf81f8ff8a00157310e0,001,2021-12-06_04h15.52.375,jm_natural_scene_simialrity_2-12-2021,2021.2.3,Win32,59.87665409,5cfdbf81f8ff8a00157310e0,61ad71e11ddd29ccf7a27d5b,61ad72130e928d771ea13c22,,,92,-50,1,0,0,response3disk,4.0321,-8,2,1,0,0,rectangle,-8,2,1,0,0,,-3,"[104,45,151,89,48,128,62,129,35,39]",-8,2,1,0,0,0,27,27,18,1,LightGreen,LightGreen.jpg,DarkGreen,DarkGreen.jpg,,
,,,,,,,,,,,,,,,,,,1,,,,,,,,,,,,,,,,,,,,,,,,,,,5cfdbf81f8ff8a00157310e0,001,2021-12-06_04h15.52.375,jm_natural_scene_simialrity_2-12-2021,2021.2.3,Win32,59.87665409,5cfdbf81f8ff8a00157310e0,61ad71e11ddd29ccf7a27d5b,61ad72130e928d771ea13c22,,,78,-106,1,0,0,response3disk,2.3705,-4,4,1,0,0,rectangle,-4,4,1,0,0,,1,"[104,45,151,89,48,128,62,129,35,39]",-4,4,1,0,0,0,28,28,77,1,Purple,Purple.jpg,LightBlue,LightBlue.jpg,,
,,,,,,,,,,,,,,,,,,-2,,,,,,,,,,,,,,,,,,,,,,,,,,,5cfdbf81f8ff8a00157310e0,001,2021-12-06_04h15.52.375,jm_natural_scene_simialrity_2-12-2021,2021.2.3,Win32,59.87665409,5cfdbf81f8ff8a00157310e0,61ad71e11ddd29ccf7a27d5b,61ad72130e928d771ea13c22,,,-94,-37,1,0,0,response5disk,1.9408,-10,3,1,0,0,rectangle,-10,3,1,0,0,,3,"[104,45,151,89,48,128,62,129,35,39]",-10,3,1,0,0,0,29,29,6,1,Red,Red.jpg,DarkBlue,DarkBlue.jpg,,
,,,,,,,,,,,,,,,,,,-2,,,,,,,,,,,,,,,,,,,,,,,,,,,5cfdbf81f8ff8a00157310e0,001,2021-12-06_04h15.52.375,jm_natural_scene_simialrity_2-12-2021,2021.2.3,Win32,59.87665409,5cfdbf81f8ff8a00157310e0,61ad71e11ddd29ccf7a27d5b,61ad72130e928d771ea13c22,,,-94,-40,1,0,0,response5disk,2.5705,-5,9,1,0,0,rectangle,-5,9,1,0,0,,1,"[104,45,151,89,48,128,62,129,35,39]",-5,9,1,0,0,0,30,30,80,1,Purple,Purple.jpg,Pink,Pink.jpg,,
,,,,,,,,,,,,,,,,,,-4,,,,,,,,,,,,,,,,,,,,,,,,,,,5cfdbf81f8ff8a00157310e0,001,2021-12-06_04h15.52.375,jm_natural_scene_simialrity_2-12-2021,2021.2.3,Win32,59.87665409,5cfdbf81f8ff8a00157310e0,61ad71e11ddd29ccf7a27d5b,61ad72130e928d771ea13c22,,,-50,100,1,0,0,response7disk,1.7004,0,4,1,0,0,rectangle,0,4,1,0,0,,-4,"[104,45,151,89,48,128,62,129,35,39]",0,4,1,0,0,0,31,31,69,1,Pink,Pink.jpg,DarkGreen,DarkGreen.jpg,,
,,,,,,,,,,,,,,,,,,-2,,,,,,,,,,,,,,,,,,,,,,,,,,,5cfdbf81f8ff8a00157310e0,001,2021-12-06_04h15.52.375,jm_natural_scene_simialrity_2-12-2021,2021.2.3,Win32,59.87665409,5cfdbf81f8ff8a00157310e0,61ad71e11ddd29ccf7a27d5b,61ad72130e928d771ea13c22,,,-100,-34,1,0,0,response5disk,2.1018,-10,11,1,0,0,rectangle,-10,11,1,0,0,,-1,"[104,45,151,89,48,128,62,129,35,39]",-10,11,1,0,0,0,32,32,38,1,LightBlue,LightBlue.jpg,Purple,Purple.jpg,,
,,,,,,,,,,,,,,,,,,-2,,,,,,,,,,,,,,,,,,,,,,,,,,,5cfdbf81f8ff8a00157310e0,001,2021-12-06_04h15.52.375,jm_natural_scene_simialrity_2-12-2021,2021.2.3,Win32,59.87665409,5cfdbf81f8ff8a00157310e0,61ad71e11ddd29ccf7a27d5b,61ad72130e928d771ea13c22,,,-87,-38,1,0,0,response5disk,1.238,-8,-2,1,0,0,rectangle,-8,-2,1,0,0,,3,"[104,45,151,89,48,128,62,129,35,39]",-8,-2,1,0,0,0,33,33,23,1,LightGreen,LightGreen.jpg,Purple,Purple.jpg,,
,,,,,,,,,,,,,,,,,,-2,,,,,,,,,,,,,,,,,,,,,,,,,,,5cfdbf81f8ff8a00157310e0,001,2021-12-06_04h15.52.375,jm_natural_scene_simialrity_2-12-2021,2021.2.3,Win32,59.87665409,5cfdbf81f8ff8a00157310e0,61ad71e11ddd29ccf7a27d5b,61ad72130e928d771ea13c22,,,-105,-40,1,0,0,response5disk,1.2716,-12,-7,1,0,0,rectangle,-59,-102,1,0,0,-1,-1,"[104,45,151,89,48,128,62,129,35,39]",2,6,1,0,0,0,34,34,57,1,DarkBlue,DarkBlue.jpg,Yellow,Yellow.jpg,response5disk_3,rectangle
,,,,,,,,,,,,,,,,,,-2,,,,,,,,,,,,,,,,,,,,,,,,,,,5cfdbf81f8ff8a00157310e0,001,2021-12-06_04h15.52.375,jm_natural_scene_simialrity_2-12-2021,2021.2.3,Win32,59.87665409,5cfdbf81f8ff8a00157310e0,61ad71e11ddd29ccf7a27d5b,61ad72130e928d771ea13c22,,,-82,-43,1,0,0,response5disk,1.5566,-4,6,1,0,0,rectangle,-4,6,1,0,0,-1,-1,"[104,45,151,89,48,128,62,129,35,39]",-4,6,1,0,0,0,35,35,72,1,DarkBlue,DarkBlue.jpg,Turquiose,Turquiose.jpg,,
,,,,,,,,,,,,,,,,,,-2,,,,,,,,,,,,,,,,,,,,,,,,,,,5cfdbf81f8ff8a00157310e0,001,2021-12-06_04h15.52.375,jm_natural_scene_simialrity_2-12-2021,2021.2.3,Win32,59.87665409,5cfdbf81f8ff8a00157310e0,61ad71e11ddd29ccf7a27d5b,61ad72130e928d771ea13c22,,,-96,-42,1,0,0,response5disk,2.1473,-4,1,1,0,0,rectangle,-4,1,1,0,0,-1,-2,"[104,45,151,89,48,128,62,129,35,39]",-4,1,1,0,0,0,36,36,74,1,Purple,Purple.jpg,Turquiose,Turquiose.jpg,,
,,,,,,,,,,,,,,,,,,-4,,,,,,,,,,,,,,,,,,,,,,,,,,,5cfdbf81f8ff8a00157310e0,001,2021-12-06_04h15.52.375,jm_natural_scene_simialrity_2-12-2021,2021.2.3,Win32,59.87665409,5cfdbf81f8ff8a00157310e0,61ad71e11ddd29ccf7a27d5b,61ad72130e928d771ea13c22,,,-64,107,1,0,0,response7disk,2.0257,-10,3,1,0,0,rectangle,-10,3,1,0,0,-1,2,"[104,45,151,89,48,128,62,129,35,39]",-10,3,1,0,0,0,37,37,59,1,Purple,Purple.jpg,Yellow,Yellow.jpg,,
,,,,,,,,,,,,,,,,,,-3,,,,,,,,,,,,,,,,,,,,,,,,,,,5cfdbf81f8ff8a00157310e0,001,2021-12-06_04h15.52.375,jm_natural_scene_simialrity_2-12-2021,2021.2.3,Win32,59.87665409,5cfdbf81f8ff8a00157310e0,61ad71e11ddd29ccf7a27d5b,61ad72130e928d771ea13c22,,,-111,47,1,0,0,response7disk,2.3565,1,7,1,0,0,rectangle,118,54,1,0,0,3,3,"[104,45,151,89,48,128,62,129,35,39]",-3,7,1,0,0,0,38,38,25,1,DarkGreen,DarkGreen.jpg,Turquiose,Turquiose.jpg,response1disk_3,rectangle
,,,,,,,,,,,,,,,,,,-2,,,,,,,,,,,,,,,,,,,,,,,,,,,5cfdbf81f8ff8a00157310e0,001,2021-12-06_04h15.52.375,jm_natural_scene_simialrity_2-12-2021,2021.2.3,Win32,59.87665409,5cfdbf81f8ff8a00157310e0,61ad71e11ddd29ccf7a27d5b,61ad72130e928d771ea13c22,,,-100,-42,1,0,0,response5disk,1.5604,-7,3,1,0,0,rectangle,-7,3,1,0,0,3,-3,"[104,45,151,89,48,128,62,129,35,39]",-7,3,1,0,0,0,39,39,75,1,DarkBlue,DarkBlue.jpg,LightBlue,LightBlue.jpg,,
,,,,,,,,,,,,,,,,,,-4,,,,,,,,,,,,,,,,,,,,,,,,,,,5cfdbf81f8ff8a00157310e0,001,2021-12-06_04h15.52.375,jm_natural_scene_simialrity_2-12-2021,2021.2.3,Win32,59.87665409,5cfdbf81f8ff8a00157310e0,61ad71e11ddd29ccf7a27d5b,61ad72130e928d771ea13c22,,,-49,100,1,0,0,response7disk,1.3677,-4,-1,1,0,0,rectangle,-4,-1,1,0,0,3,3,"[104,45,151,89,48,128,62,129,35,39]",-4,-1,1,0,0,0,40,40,65,1,Purple,Purple.jpg,LightGreen,LightGreen.jpg,,
,,,,,,,,,,,,,,,,,,-4,,,,,,,,,,,,,,,,,,,,,,,,,,,5cfdbf81f8ff8a00157310e0,001,2021-12-06_04h15.52.375,jm_natural_scene_simialrity_2-12-2021,2021.2.3,Win32,59.87665409,5cfdbf81f8ff8a00157310e0,61ad71e11ddd29ccf7a27d5b,61ad72130e928d771ea13c22,,,-48,120,1,0,0,response7disk,1.1318,-11,12,1,0,0,rectangle,-11,12,1,0,0,3,-2,"[104,45,151,89,48,128,62,129,35,39]",-11,12,1,0,0,0,41,41,2,1,Red,Red.jpg,LightGreen,LightGreen.jpg,,
,,,,,,,,,,,,,,,,,,-4,,,,,,,,,,,,,,,,,,,,,,,,,,,5cfdbf81f8ff8a00157310e0,001,2021-12-06_04h15.52.375,jm_natural_scene_simialrity_2-12-2021,2021.2.3,Win32,59.87665409,5cfdbf81f8ff8a00157310e0,61ad71e11ddd29ccf7a27d5b,61ad72130e928d771ea13c22,,,-64,87,1,0,0,response7disk,1.9516,-9,4,1,0,0,rectangle,-9,4,1,0,0,3,-1,"[104,45,151,89,48,128,62,129,35,39]",-9,4,1,0,0,0,42,42,13,1,Yellow,Yellow.jpg,LightBlue,LightBlue.jpg,,
,,,,,,,,,,,,,,,,,,-4,,,,,,,,,,,,,,,,,,,,,,,,,,,5cfdbf81f8ff8a00157310e0,001,2021-12-06_04h15.52.375,jm_natural_scene_simialrity_2-12-2021,2021.2.3,Win32,59.87665409,5cfdbf81f8ff8a00157310e0,61ad71e11ddd29ccf7a27d5b,61ad72130e928d771ea13c22,,,-45,112,1,0,0,response7disk,0.959,-6,10,1,0,0,rectangle,-6,10,1,0,0,3,2,"[104,45,151,89,48,128,62,129,35,39]",-6,10,1,0,0,0,43,43,40,1,DarkBlue,DarkBlue.jpg,Pink,Pink.jpg,,
,,,,,,,,,,,,,,,,,,-4,,,,,,,,,,,,,,,,,,,,,,,,,,,5cfdbf81f8ff8a00157310e0,001,2021-12-06_04h15.52.375,jm_natural_scene_simialrity_2-12-2021,2021.2.3,Win32,59.87665409,5cfdbf81f8ff8a00157310e0,61ad71e11ddd29ccf7a27d5b,61ad72130e928d771ea13c22,,,-69,117,1,0,0,response7disk,1.1095,-2,-3,1,0,0,rectangle,-102,40,1,0,0,-3,-3,"[104,45,151,89,48,128,62,129,35,39]",-9,-5,1,0,0,0,44,44,56,1,LightBlue,LightBlue.jpg,Yellow,Yellow.jpg,response7disk_3,rectangle
,,,,,,,,,,,,,,,,,,-4,,,,,,,,,,,,,,,,,,,,,,,,,,,5cfdbf81f8ff8a00157310e0,001,2021-12-06_04h15.52.375,jm_natural_scene_simialrity_2-12-2021,2021.2.3,Win32,59.87665409,5cfdbf81f8ff8a00157310e0,61ad71e11ddd29ccf7a27d5b,61ad72130e928d771ea13c22,,,-69,109,1,0,0,response7disk,1.3887,4,1,1,0,0,rectangle,4,1,1,0,0,-3,3,"[104,45,151,89,48,128,62,129,35,39]",4,1,1,0,0,0,45,45,53,1,LightGreen,LightGreen.jpg,Yellow,Yellow.jpg,,
,,,,,,,,,,,,,,,,,,-3,,,,,,,,,,,,,,,,,,,,,,,,,,,5cfdbf81f8ff8a00157310e0,001,2021-12-06_04h15.52.375,jm_natural_scene_simialrity_2-12-2021,2021.2.3,Win32,59.87665409,5cfdbf81f8ff8a00157310e0,61ad71e11ddd29ccf7a27d5b,61ad72130e928d771ea13c22,,,-115,59,1,0,0,response7disk,1.41,-4,1,1,0,0,rectangle,-4,1,1,0,0,-3,-2,"[104,45,151,89,48,128,62,129,35,39]",-4,1,1,0,0,0,46,46,71,1,LightBlue,LightBlue.jpg,Turquiose,Turquiose.jpg,,
,,,,,,,,,,,,,,,,,,-4,,,,,,,,,,,,,,,,,,,,,,,,,,,5cfdbf81f8ff8a00157310e0,001,2021-12-06_04h15.52.375,jm_natural_scene_simialrity_2-12-2021,2021.2.3,Win32,59.87665409,5cfdbf81f8ff8a00157310e0,61ad71e11ddd29ccf7a27d5b,61ad72130e928d771ea13c22,,,-66,110,1,0,0,response7disk,1.155,-5,15,1,0,0,rectangle,46,-114,1,0,0,1,1,"[104,45,151,89,48,128,62,129,35,39]",-6,2,1,0,0,0,47,47,37,1,LightBlue,LightBlue.jpg,Pink,Pink.jpg,response3disk_3,rectangle
,,,,,,,,,,,,,,,,,,-2,,,,,,,,,,,,,,,,,,,,,,,,,,,5cfdbf81f8ff8a00157310e0,001,2021-12-06_04h15.52.375,jm_natural_scene_simialrity_2-12-2021,2021.2.3,Win32,59.87665409,5cfdbf81f8ff8a00157310e0,61ad71e11ddd29ccf7a27d5b,61ad72130e928d771ea13c22,,,-98,-29,1,0,0,response5disk,3.3957,-12,3,1,0,0,rectangle,-12,3,1,0,0,1,-4,"[104,45,151,89,48,128,62,129,35,39]",-12,3,1,0,0,0,48,48,79,1,Purple,Purple.jpg,DarkBlue,DarkBlue.jpg,,
,,,,,,,,,,,,,,,,,,-3,,,,,,,,,,,,,,,,,,,,,,,,,,,5cfdbf81f8ff8a00157310e0,001,2021-12-06_04h15.52.375,jm_natural_scene_simialrity_2-12-2021,2021.2.3,Win32,59.87665409,5cfdbf81f8ff8a00157310e0,61ad71e11ddd29ccf7a27d5b,61ad72130e928d771ea13c22,,,-110,42,1,0,0,response7disk,1.5384,-1,3,1,0,0,rectangle,-1,3,1,0,0,1,-2,"[104,45,151,89,48,128,62,129,35,39]",-1,3,1,0,0,0,49,49,63,1,DarkBlue,DarkBlue.jpg,LightGreen,LightGreen.jpg,,
,,,,,,,,,,,,,,,,,,-3,,,,,,,,,,,,,,,,,,,,,,,,,,,5cfdbf81f8ff8a00157310e0,001,2021-12-06_04h15.52.375,jm_natural_scene_simialrity_2-12-2021,2021.2.3,Win32,59.87665409,5cfdbf81f8ff8a00157310e0,61ad71e11ddd29ccf7a27d5b,61ad72130e928d771ea13c22,,,-100,40,1,0,0,response7disk,8.5139,1,7,1,0,0,rectangle,1,7,1,0,0,1,-2,"[104,45,151,89,48,128,62,129,35,39]",1,7,1,0,0,0,50,50,11,1,Yellow,Yellow.jpg,DarkGreen,DarkGreen.jpg,,
,,,,,,,,,,,,,,,,,,2,,,,,,,,,,,,,,,,,,,,,,,,,,,5cfdbf81f8ff8a00157310e0,001,2021-12-06_04h15.52.375,jm_natural_scene_simialrity_2-12-2021,2021.2.3,Win32,59.87665409,5cfdbf81f8ff8a00157310e0,61ad71e11ddd29ccf7a27d5b,61ad72130e928d771ea13c22,,,99,-30,1,0,0,response3disk,2.3028,3,11,1,0,0,rectangle,3,11,1,0,0,1,-2,"[104,45,151,89,48,128,62,129,35,39]",3,11,1,0,0,0,51,51,60,1,DarkGreen,DarkGreen.jpg,LightGreen,LightGreen.jpg,,
,,,,,,,,,,,,,,,,,,-4,,,,,,,,,,,,,,,,,,,,,,,,,,,5cfdbf81f8ff8a00157310e0,001,2021-12-06_04h15.52.375,jm_natural_scene_simialrity_2-12-2021,2021.2.3,Win32,59.87665409,5cfdbf81f8ff8a00157310e0,61ad71e11ddd29ccf7a27d5b,61ad72130e928d771ea13c22,,,-60,124,1,0,0,response7disk,1.4888,-9,3,1,0,0,rectangle,-9,3,1,0,0,1,3,"[104,45,151,89,48,128,62,129,35,39]",-9,3,1,0,0,0,52,52,54,1,DarkGreen,DarkGreen.jpg,Yellow,Yellow.jpg,,
,,,,,,,,,,,,,,,,,,-2,,,,,,,,,,,,,,,,,,,,,,,,,,,5cfdbf81f8ff8a00157310e0,001,2021-12-06_04h15.52.375,jm_natural_scene_simialrity_2-12-2021,2021.2.3,Win32,59.87665409,5cfdbf81f8ff8a00157310e0,61ad71e11ddd29ccf7a27d5b,61ad72130e928d771ea13c22,,,-96,-32,1,0,0,response5disk,2.5753,-8,0,1,0,0,rectangle,-8,0,1,0,0,1,1,"[104,45,151,89,48,128,62,129,35,39]",-8,0,1,0,0,0,53,53,27,1,DarkGreen,DarkGreen.jpg,DarkBlue,DarkBlue.jpg,,
,,,,,,,,,,,,,,,,,,1,,,,,,,,,,,,,,,,,,,,,,,,,,,5cfdbf81f8ff8a00157310e0,001,2021-12-06_04h15.52.375,jm_natural_scene_simialrity_2-12-2021,2021.2.3,Win32,59.87665409,5cfdbf81f8ff8a00157310e0,61ad71e11ddd29ccf7a27d5b,61ad72130e928d771ea13c22,,,56,-93,1,0,0,response3disk,2.798,-4,1,1,0,0,rectangle,-4,1,1,0,0,1,3,"[104,45,151,89,48,128,62,129,35,39]",-4,1,1,0,0,0,54,54,1,1,Red,Red.jpg,Yellow,Yellow.jpg,,
,,,,,,,,,,,,,,,,,,-2,,,,,,,,,,,,,,,,,,,,,,,,,,,5cfdbf81f8ff8a00157310e0,001,2021-12-06_04h15.52.375,jm_natural_scene_simialrity_2-12-2021,2021.2.3,Win32,59.87665409,5cfdbf81f8ff8a00157310e0,61ad71e11ddd29ccf7a27d5b,61ad72130e928d771ea13c22,,,-108,-42,1,0,0,response5disk,2.8488,-7,-5,1,0,0,rectangle,-7,-5,1,0,0,1,-4,"[104,45,151,89,48,128,62,129,35,39]",-7,-5,1,0,0,0,55,55,66,1,Turquiose,Turquiose.jpg,DarkGreen,DarkGreen.jpg,,
,,,,,,,,,,,,,,,,,,-4,,,,,,,,,,,,,,,,,,,,,,,,,,,5cfdbf81f8ff8a00157310e0,001,2021-12-06_04h15.52.375,jm_natural_scene_simialrity_2-12-2021,2021.2.3,Win32,59.87665409,5cfdbf81f8ff8a00157310e0,61ad71e11ddd29ccf7a27d5b,61ad72130e928d771ea13c22,,,-69,110,1,0,0,response7disk,1.7899,-4,4,1,0,0,rectangle,-4,4,1,0,0,1,3,"[104,45,151,89,48,128,62,129,35,39]",-4,4,1,0,0,0,56,56,64,1,Pink,Pink.jpg,LightGreen,LightGreen.jpg,,
,,,,,,,,,,,,,,,,,,-2,,,,,,,,,,,,,,,,,,,,,,,,,,,5cfdbf81f8ff8a00157310e0,001,2021-12-06_04h15.52.375,jm_natural_scene_simialrity_2-12-2021,2021.2.3,Win32,59.87665409,5cfdbf81f8ff8a00157310e0,61ad71e11ddd29ccf7a27d5b,61ad72130e928d771ea13c22,,,-96,-38,1,0,0,response5disk,2.5639,-7,2,1,0,0,rectangle,-7,2,1,0,0,1,1,"[104,45,151,89,48,128,62,129,35,39]",-7,2,1,0,0,0,57,57,20,1,LightGreen,LightGreen.jpg,LightBlue,LightBlue.jpg,,
,,,,,,,,,,,,,,,,,,-3,,,,,,,,,,,,,,,,,,,,,,,,,,,5cfdbf81f8ff8a00157310e0,001,2021-12-06_04h15.52.375,jm_natural_scene_simialrity_2-12-2021,2021.2.3,Win32,59.87665409,5cfdbf81f8ff8a00157310e0,61ad71e11ddd29ccf7a27d5b,61ad72130e928d771ea13c22,,,-107,53,1,0,0,response7disk,1.5058,0,8,1,0,0,rectangle,0,8,1,0,0,1,-3,"[104,45,151,89,48,128,62,129,35,39]",0,8,1,0,0,0,58,58,78,1,Pink,Pink.jpg,DarkBlue,DarkBlue.jpg,,
,,,,,,,,,,,,,,,,,,-3,,,,,,,,,,,,,,,,,,,,,,,,,,,5cfdbf81f8ff8a00157310e0,001,2021-12-06_04h15.52.375,jm_natural_scene_simialrity_2-12-2021,2021.2.3,Win32,59.87665409,5cfdbf81f8ff8a00157310e0,61ad71e11ddd29ccf7a27d5b,61ad72130e928d771ea13c22,,,-88,47,1,0,0,response7disk,2.2579,2,-2,1,0,0,rectangle,2,-2,1,0,0,1,-4,"[104,45,151,89,48,128,62,129,35,39]",2,-2,1,0,0,0,59,59,48,1,Turquiose,Turquiose.jpg,Red,Red.jpg,,
,,,,,,,,,,,,,,,,,,4,,,,,,,,,,,,,,,,,,,,,,,,,,,5cfdbf81f8ff8a00157310e0,001,2021-12-06_04h15.52.375,jm_natural_scene_simialrity_2-12-2021,2021.2.3,Win32,59.87665409,5cfdbf81f8ff8a00157310e0,61ad71e11ddd29ccf7a27d5b,61ad72130e928d771ea13c22,,,62,113,1,0,0,response1disk,1.2886,-2,8,1,0,0,rectangle,-2,8,1,0,0,1,1,"[104,45,151,89,48,128,62,129,35,39]",-2,8,1,0,0,0,60,60,0,1,Red,Red.jpg,Red,Red.jpg,,
,,,,,,,,,,,,,,,,,,-3,,,,,,,,,,,,,,,,,,,,,,,,,,,5cfdbf81f8ff8a00157310e0,001,2021-12-06_04h15.52.375,jm_natural_scene_simialrity_2-12-2021,2021.2.3,Win32,59.87665409,5cfdbf81f8ff8a00157310e0,61ad71e11ddd29ccf7a27d5b,61ad72130e928d771ea13c22,,,-112,49,1,0,0,response7disk,2.7433,-15,6,1,0,0,rectangle,-126,52,1,0,0,-3,-3,"[104,45,151,89,48,128,62,129,35,39]",-4,7,1,0,0,0,61,61,5,1,Red,Red.jpg,LightBlue,LightBlue.jpg,response7disk_3,rectangle
,,,,,,,,,,,,,,,,,,-3,,,,,,,,,,,,,,,,,,,,,,,,,,,5cfdbf81f8ff8a00157310e0,001,2021-12-06_04h15.52.375,jm_natural_scene_simialrity_2-12-2021,2021.2.3,Win32,59.87665409,5cfdbf81f8ff8a00157310e0,61ad71e11ddd29ccf7a27d5b,61ad72130e928d771ea13c22,,,-101,47,1,0,0,response7disk,1.2215,-5,3,1,0,0,rectangle,-5,3,1,0,0,-3,3,"[104,45,151,89,48,128,62,129,35,39]",-5,3,1,0,0,0,62,62,34,1,Turquiose,Turquiose.jpg,Purple,Purple.jpg,,
,,,,,,,,,,,,,,,,,,4,,,,,,,,,,,,,,,,,,,,,,,,,,,5cfdbf81f8ff8a00157310e0,001,2021-12-06_04h15.52.375,jm_natural_scene_simialrity_2-12-2021,2021.2.3,Win32,59.87665409,5cfdbf81f8ff8a00157310e0,61ad71e11ddd29ccf7a27d5b,61ad72130e928d771ea13c22,,,41,107,1,0,0,response1disk,0.9551,-1,3,1,0,0,rectangle,-1,3,1,0,0,-3,1,"[104,45,151,89,48,128,62,129,35,39]",-1,3,1,0,0,0,63,63,17,1,LightGreen,LightGreen.jpg,LightGreen,LightGreen.jpg,,
,,,,,,,,,,,,,,,,,,-2,,,,,,,,,,,,,,,,,,,,,,,,,,,5cfdbf81f8ff8a00157310e0,001,2021-12-06_04h15.52.375,jm_natural_scene_simialrity_2-12-2021,2021.2.3,Win32,59.87665409,5cfdbf81f8ff8a00157310e0,61ad71e11ddd29ccf7a27d5b,61ad72130e928d771ea13c22,,,-102,-38,1,0,0,response5disk,2.6106,8,4,1,0,0,rectangle,8,4,1,0,0,-3,2,"[104,45,151,89,48,128,62,129,35,39]",8,4,1,0,0,0,64,64,3,1,Red,Red.jpg,DarkGreen,DarkGreen.jpg,,
,,,,,,,,,,,,,,,,,,-3,,,,,,,,,,,,,,,,,,,,,,,,,,,5cfdbf81f8ff8a00157310e0,001,2021-12-06_04h15.52.375,jm_natural_scene_simialrity_2-12-2021,2021.2.3,Win32,59.87665409,5cfdbf81f8ff8a00157310e0,61ad71e11ddd29ccf7a27d5b,61ad72130e928d771ea13c22,,,-100,54,1,0,0,response7disk,1.5722,-6,-2,1,0,0,rectangle,-6,-2,1,0,0,-3,-2,"[104,45,151,89,48,128,62,129,35,39]",-6,-2,1,0,0,0,65,65,43,1,Pink,Pink.jpg,Purple,Purple.jpg,,
,,,,,,,,,,,,,,,,,,2,,,,,,,,,,,,,,,,,,,,,,,,,,,5cfdbf81f8ff8a00157310e0,001,2021-12-06_04h15.52.375,jm_natural_scene_simialrity_2-12-2021,2021.2.3,Win32,59.87665409,5cfdbf81f8ff8a00157310e0,61ad71e11ddd29ccf7a27d5b,61ad72130e928d771ea13c22,,,100,-62,1,0,0,response3disk,2.3579,-2,11,1,0,0,rectangle,-2,11,1,0,0,-3,-1,"[104,45,151,89,48,128,62,129,35,39]",-2,11,1,0,0,0,66,66,45,1,Yellow,Yellow.jpg,Red,Red.jpg,,
,,,,,,,,,,,,,,,,,,3,,,,,,,,,,,,,,,,,,,,,,,,,,,5cfdbf81f8ff8a00157310e0,001,2021-12-06_04h15.52.375,jm_natural_scene_simialrity_2-12-2021,2021.2.3,Win32,59.87665409,5cfdbf81f8ff8a00157310e0,61ad71e11ddd29ccf7a27d5b,61ad72130e928d771ea13c22,,,116,30,1,0,0,response1disk,1.9747,-5,-2,1,0,0,rectangle,-5,-2,1,0,0,-3,2,"[104,45,151,89,48,128,62,129,35,39]",-5,-2,1,0,0,0,67,67,7,1,Red,Red.jpg,Pink,Pink.jpg,,
,,,,,,,,,,,,,,,,,,-3,,,,,,,,,,,,,,,,,,,,,,,,,,,5cfdbf81f8ff8a00157310e0,001,2021-12-06_04h15.52.375,jm_natural_scene_simialrity_2-12-2021,2021.2.3,Win32,59.87665409,5cfdbf81f8ff8a00157310e0,61ad71e11ddd29ccf7a27d5b,61ad72130e928d771ea13c22,,,-84,65,1,0,0,response7disk,3.4306,2,1,1,0,0,rectangle,2,1,1,0,0,-3,3,"[104,45,151,89,48,128,62,129,35,39]",2,1,1,0,0,0,68,68,10,1,Yellow,Yellow.jpg,LightGreen,LightGreen.jpg,,
,,,,,,,,,,,,,,,,,,-3,,,,,,,,,,,,,,,,,,,,,,,,,,,5cfdbf81f8ff8a00157310e0,001,2021-12-06_04h15.52.375,jm_natural_scene_simialrity_2-12-2021,2021.2.3,Win32,59.87665409,5cfdbf81f8ff8a00157310e0,61ad71e11ddd29ccf7a27d5b,61ad72130e928d771ea13c22,,,-109,44,1,0,0,response7disk,2.2032,1,-2,1,0,0,rectangle,1,-2,1,0,0,-3,-4,"[104,45,151,89,48,128,62,129,35,39]",1,-2,1,0,0,0,69,69,50,1,DarkBlue,DarkBlue.jpg,Red,Red.jpg,,
,,,,,,,,,,,,,,,,,,-2,,,,,,,,,,,,,,,,,,,,,,,,,,,5cfdbf81f8ff8a00157310e0,001,2021-12-06_04h15.52.375,jm_natural_scene_simialrity_2-12-2021,2021.2.3,Win32,59.87665409,5cfdbf81f8ff8a00157310e0,61ad71e11ddd29ccf7a27d5b,61ad72130e928d771ea13c22,,,-101,-35,1,0,0,response5disk,3.4508,-9,5,1,0,0,rectangle,-9,5,1,0,0,-3,1,"[104,45,151,89,48,128,62,129,35,39]",-9,5,1,0,0,0,70,70,58,1,Pink,Pink.jpg,Yellow,Yellow.jpg,,
,,,,,,,,,,,,,,,,,,-2,,,,,,,,,,,,,,,,,,,,,,,,,,,5cfdbf81f8ff8a00157310e0,001,2021-12-06_04h15.52.375,jm_natural_scene_simialrity_2-12-2021,2021.2.3,Win32,59.87665409,5cfdbf81f8ff8a00157310e0,61ad71e11ddd29ccf7a27d5b,61ad72130e928d771ea13c22,,,-118,-41,1,0,0,response5disk,1.5219,-2,4,1,0,0,rectangle,-2,4,1,0,0,-3,-3,"[104,45,151,89,48,128,62,129,35,39]",-2,4,1,0,0,0,71,71,8,1,Red,Red.jpg,Purple,Purple.jpg,,
,,,,,,,,,,,,,,,,,,-2,,,,,,,,,,,,,,,,,,,,,,,,,,,5cfdbf81f8ff8a00157310e0,001,2021-12-06_04h15.52.375,jm_natural_scene_simialrity_2-12-2021,2021.2.3,Win32,59.87665409,5cfdbf81f8ff8a00157310e0,61ad71e11ddd29ccf7a27d5b,61ad72130e928d771ea13c22,,,-100,-35,1,0,0,response5disk,1.8176,-7,-2,1,0,0,rectangle,-7,-2,1,0,0,-3,-4,"[104,45,151,89,48,128,62,129,35,39]",-7,-2,1,0,0,0,72,72,46,1,LightGreen,LightGreen.jpg,Red,Red.jpg,,
,,,,,,,,,,,,,,,,,,4,,,,,,,,,,,,,,,,,,,,,,,,,,,5cfdbf81f8ff8a00157310e0,001,2021-12-06_04h15.52.375,jm_natural_scene_simialrity_2-12-2021,2021.2.3,Win32,59.87665409,5cfdbf81f8ff8a00157310e0,61ad71e11ddd29ccf7a27d5b,61ad72130e928d771ea13c22,,,51,110,1,0,0,response1disk,1.6341,3,2,1,0,0,rectangle,3,2,1,0,0,-3,-4,"[104,45,151,89,48,128,62,129,35,39]",3,2,1,0,0,0,73,73,39,1,DarkBlue,DarkBlue.jpg,DarkBlue,DarkBlue.jpg,,
,,,,,,,,,,,,,,,,,,2,,,,,,,,,,,,,,,,,,,,,,,,,,,5cfdbf81f8ff8a00157310e0,001,2021-12-06_04h15.52.375,jm_natural_scene_simialrity_2-12-2021,2021.2.3,Win32,59.87665409,5cfdbf81f8ff8a00157310e0,61ad71e11ddd29ccf7a27d5b,61ad72130e928d771ea13c22,,,84,-68,1,0,0,response3disk,2.2255,-2,2,1,0,0,rectangle,-2,2,1,0,0,-3,3,"[104,45,151,89,48,128,62,129,35,39]",-2,2,1,0,0,0,74,74,51,1,Pink,Pink.jpg,Red,Red.jpg,,
,,,,,,,,,,,,,,,,,,-2,,,,,,,,,,,,,,,,,,,,,,,,,,,5cfdbf81f8ff8a00157310e0,001,2021-12-06_04h15.52.375,jm_natural_scene_simialrity_2-12-2021,2021.2.3,Win32,59.87665409,5cfdbf81f8ff8a00157310e0,61ad71e11ddd29ccf7a27d5b,61ad72130e928d771ea13c22,,,-86,-39,1,0,0,response5disk,2.4252,-6,-1,1,0,0,rectangle,-6,-1,1,0,0,-3,-1,"[104,45,151,89,48,128,62,129,35,39]",-6,-1,1,0,0,0,75,75,41,1,DarkBlue,DarkBlue.jpg,Purple,Purple.jpg,,
,,,,,,,,,,,,,,,,,,4,,,,,,,,,,,,,,,,,,,,,,,,,,,5cfdbf81f8ff8a00157310e0,001,2021-12-06_04h15.52.375,jm_natural_scene_simialrity_2-12-2021,2021.2.3,Win32,59.87665409,5cfdbf81f8ff8a00157310e0,61ad71e11ddd29ccf7a27d5b,61ad72130e928d771ea13c22,,,60,113,1,0,0,response1disk,1.0831,3,3,1,0,0,rectangle,3,3,1,0,0,-3,-2,"[104,45,151,89,48,128,62,129,35,39]",3,3,1,0,0,0,76,76,30,1,Turquiose,Turquiose.jpg,Turquiose,Turquiose.jpg,,
,,,,,,,,,,,,,,,,,,-2,,,,,,,,,,,,,,,,,,,,,,,,,,,5cfdbf81f8ff8a00157310e0,001,2021-12-06_04h15.52.375,jm_natural_scene_simialrity_2-12-2021,2021.2.3,Win32,59.87665409,5cfdbf81f8ff8a00157310e0,61ad71e11ddd29ccf7a27d5b,61ad72130e928d771ea13c22,,,-103,-45,1,0,0,response5disk,3.5584,-4,3,1,0,0,rectangle,-4,3,1,0,0,-3,-2,"[104,45,151,89,48,128,62,129,35,39]",-4,3,1,0,0,0,77,77,33,1,Turquiose,Turquiose.jpg,Pink,Pink.jpg,,
,,,,,,,,,,,,,,,,,,-2,,,,,,,,,,,,,,,,,,,,,,,,,,,5cfdbf81f8ff8a00157310e0,001,2021-12-06_04h15.52.375,jm_natural_scene_simialrity_2-12-2021,2021.2.3,Win32,59.87665409,5cfdbf81f8ff8a00157310e0,61ad71e11ddd29ccf7a27d5b,61ad72130e928d771ea13c22,,,-95,-39,1,0,0,response5disk,1.355,4,-1,1,0,0,rectangle,4,-1,1,0,0,-3,1,"[104,45,151,89,48,128,62,129,35,39]",4,-1,1,0,0,0,78,78,70,1,Purple,Purple.jpg,DarkGreen,DarkGreen.jpg,,
,,,,,,,,,,,,,,,,,,-2,,,,,,,,,,,,,,,,,,,,,,,,,,,5cfdbf81f8ff8a00157310e0,001,2021-12-06_04h15.52.375,jm_natural_scene_simialrity_2-12-2021,2021.2.3,Win32,59.87665409,5cfdbf81f8ff8a00157310e0,61ad71e11ddd29ccf7a27d5b,61ad72130e928d771ea13c22,,,-106,-39,1,0,0,response5disk,1.0539,0,0,1,0,0,rectangle,0,0,1,0,0,-3,2,"[104,45,151,89,48,128,62,129,35,39]",0,0,1,0,0,0,79,79,12,1,Yellow,Yellow.jpg,Turquiose,Turquiose.jpg,,
,,,,,,,,,,,,,,,,,,-3,,,,,,,,,,,,,,,,,,,,,,,,,,,5cfdbf81f8ff8a00157310e0,001,2021-12-06_04h15.52.375,jm_natural_scene_simialrity_2-12-2021,2021.2.3,Win32,59.87665409,5cfdbf81f8ff8a00157310e0,61ad71e11ddd29ccf7a27d5b,61ad72130e928d771ea13c22,,,-92,47,1,0,0,response7disk,1.3723,0,4,1,0,0,rectangle,0,4,1,0,0,-3,3,"[104,45,151,89,48,128,62,129,35,39]",0,4,1,0,0,0,80,80,47,1,DarkGreen,DarkGreen.jpg,Red,Red.jpg,,
,,,,,,,,,,,,,,,,,,-4,,,,,,,,,,,,,,,,,,,,,,,,,,,5cfdbf81f8ff8a00157310e0,001,2021-12-06_04h15.52.375,jm_natural_scene_simialrity_2-12-2021,2021.2.3,Win32,59.87665409,5cfdbf81f8ff8a00157310e0,61ad71e11ddd29ccf7a27d5b,61ad72130e928d771ea13c22,,,-80,90,1,0,0,response7disk,1.1371,-4,12,1,0,0,rectangle,-4,12,1,0,0,-3,-3,"[104,45,151,89,48,128,62,129,35,39]",-4,12,1,0,0,1,0,81,10,1,Yellow,Yellow.jpg,LightGreen,LightGreen.jpg,,
,,,,,,,,,,,,,,,,,,-2,,,,,,,,,,,,,,,,,,,,,,,,,,,5cfdbf81f8ff8a00157310e0,001,2021-12-06_04h15.52.375,jm_natural_scene_simialrity_2-12-2021,2021.2.3,Win32,59.87665409,5cfdbf81f8ff8a00157310e0,61ad71e11ddd29ccf7a27d5b,61ad72130e928d771ea13c22,,,-98,-35,1,0,0,response5disk,1.9229,-9,1,1,0,0,rectangle,-9,1,1,0,0,-3,1,"[104,45,151,89,48,128,62,129,35,39]",-9,1,1,0,0,1,1,82,74,1,Purple,Purple.jpg,Turquiose,Turquiose.jpg,,
,,,,,,,,,,,,,,,,,,-2,,,,,,,,,,,,,,,,,,,,,,,,,,,5cfdbf81f8ff8a00157310e0,001,2021-12-06_04h15.52.375,jm_natural_scene_simialrity_2-12-2021,2021.2.3,Win32,59.87665409,5cfdbf81f8ff8a00157310e0,61ad71e11ddd29ccf7a27d5b,61ad72130e928d771ea13c22,,,-109,-24,1,0,0,response5disk,1.8224,-10,7,1,0,0,rectangle,-10,7,1,0,0,-3,3,"[104,45,151,89,48,128,62,129,35,39]",-10,7,1,0,0,1,2,83,67,1,LightBlue,LightBlue.jpg,DarkGreen,DarkGreen.jpg,,
,,,,,,,,,,,,,,,,,,-2,,,,,,,,,,,,,,,,,,,,,,,,,,,5cfdbf81f8ff8a00157310e0,001,2021-12-06_04h15.52.375,jm_natural_scene_simialrity_2-12-2021,2021.2.3,Win32,59.87665409,5cfdbf81f8ff8a00157310e0,61ad71e11ddd29ccf7a27d5b,61ad72130e928d771ea13c22,,,-99,-37,1,0,0,response5disk,1.2372,-13,7,1,0,0,rectangle,-13,7,1,0,0,-3,1,"[104,45,151,89,48,128,62,129,35,39]",-13,7,1,0,0,1,3,84,65,1,Purple,Purple.jpg,LightGreen,LightGreen.jpg,,
,,,,,,,,,,,,,,,,,,2,,,,,,,,,,,,,,,,,,,,,,,,,,,5cfdbf81f8ff8a00157310e0,001,2021-12-06_04h15.52.375,jm_natural_scene_simialrity_2-12-2021,2021.2.3,Win32,59.87665409,5cfdbf81f8ff8a00157310e0,61ad71e11ddd29ccf7a27d5b,61ad72130e928d771ea13c22,,,102,-45,1,0,0,response3disk,1.8896,-6,4,1,0,0,rectangle,-6,4,1,0,0,-3,1,"[104,45,151,89,48,128,62,129,35,39]",-6,4,1,0,0,1,4,85,58,1,Pink,Pink.jpg,Yellow,Yellow.jpg,,
,,,,,,,,,,,,,,,,,,-2,,,,,,,,,,,,,,,,,,,,,,,,,,,5cfdbf81f8ff8a00157310e0,001,2021-12-06_04h15.52.375,jm_natural_scene_simialrity_2-12-2021,2021.2.3,Win32,59.87665409,5cfdbf81f8ff8a00157310e0,61ad71e11ddd29ccf7a27d5b,61ad72130e928d771ea13c22,,,-102,-41,1,0,0,response5disk,1.8228,9,0,1,0,0,rectangle,9,0,1,0,0,-3,3,"[104,45,151,89,48,128,62,129,35,39]",9,0,1,0,0,1,5,86,14,1,Yellow,Yellow.jpg,DarkBlue,DarkBlue.jpg,,
,,,,,,,,,,,,,,,,,,1,,,,,,,,,,,,,,,,,,,,,,,,,,,5cfdbf81f8ff8a00157310e0,001,2021-12-06_04h15.52.375,jm_natural_scene_simialrity_2-12-2021,2021.2.3,Win32,59.87665409,5cfdbf81f8ff8a00157310e0,61ad71e11ddd29ccf7a27d5b,61ad72130e928d771ea13c22,,,63,-80,1,0,0,response3disk,2.7099,-7,3,1,0,0,rectangle,-7,3,1,0,0,-3,1,"[104,45,151,89,48,128,62,129,35,39]",-7,3,1,0,0,1,6,87,27,1,DarkGreen,DarkGreen.jpg,DarkBlue,DarkBlue.jpg,,
,,,,,,,,,,,,,,,,,,-3,,,,,,,,,,,,,,,,,,,,,,,,,,,5cfdbf81f8ff8a00157310e0,001,2021-12-06_04h15.52.375,jm_natural_scene_simialrity_2-12-2021,2021.2.3,Win32,59.87665409,5cfdbf81f8ff8a00157310e0,61ad71e11ddd29ccf7a27d5b,61ad72130e928d771ea13c22,,,-100,68,1,0,0,response7disk,1.7562,8,5,1,0,0,rectangle,47,-99,1,0,0,1,1,"[104,45,151,89,48,128,62,129,35,39]",-6,1,1,0,0,1,7,88,33,1,Turquiose,Turquiose.jpg,Pink,Pink.jpg,response3disk_3,rectangle
,,,,,,,,,,,,,,,,,,-3,,,,,,,,,,,,,,,,,,,,,,,,,,,5cfdbf81f8ff8a00157310e0,001,2021-12-06_04h15.52.375,jm_natural_scene_simialrity_2-12-2021,2021.2.3,Win32,59.87665409,5cfdbf81f8ff8a00157310e0,61ad71e11ddd29ccf7a27d5b,61ad72130e928d771ea13c22,,,-88,44,1,0,0,response7disk,1.8244,1,-7,1,0,0,rectangle,1,-7,1,0,0,1,3,"[104,45,151,89,48,128,62,129,35,39]",1,-7,1,0,0,1,8,89,53,1,LightGreen,LightGreen.jpg,Yellow,Yellow.jpg,,
,,,,,,,,,,,,,,,,,,-4,,,,,,,,,,,,,,,,,,,,,,,,,,,5cfdbf81f8ff8a00157310e0,001,2021-12-06_04h15.52.375,jm_natural_scene_simialrity_2-12-2021,2021.2.3,Win32,59.87665409,5cfdbf81f8ff8a00157310e0,61ad71e11ddd29ccf7a27d5b,61ad72130e928d771ea13c22,,,-59,95,1,0,0,response7disk,2.9938,-9,10,1,0,0,rectangle,-9,10,1,0,0,1,3,"[104,45,151,89,48,128,62,129,35,39]",-9,10,1,0,0,1,9,90,5,1,Red,Red.jpg,LightBlue,LightBlue.jpg,,
,,,,,,,,,,,,,,,,,,-4,,,,,,,,,,,,,,,,,,,,,,,,,,,5cfdbf81f8ff8a00157310e0,001,2021-12-06_04h15.52.375,jm_natural_scene_simialrity_2-12-2021,2021.2.3,Win32,59.87665409,5cfdbf81f8ff8a00157310e0,61ad71e11ddd29ccf7a27d5b,61ad72130e928d771ea13c22,,,-62,106,1,0,0,response7disk,1.0374,-8,1,1,0,0,rectangle,-8,1,1,0,0,1,-3,"[104,45,151,89,48,128,62,129,35,39]",-8,1,1,0,0,1,10,91,28,1,DarkGreen,DarkGreen.jpg,Pink,Pink.jpg,,
,,,,,,,,,,,,,,,,,,1,,,,,,,,,,,,,,,,,,,,,,,,,,,5cfdbf81f8ff8a00157310e0,001,2021-12-06_04h15.52.375,jm_natural_scene_simialrity_2-12-2021,2021.2.3,Win32,59.87665409,5cfdbf81f8ff8a00157310e0,61ad71e11ddd29ccf7a27d5b,61ad72130e928d771ea13c22,,,42,-96,1,0,0,response3disk,1.7896,-3,5,1,0,0,rectangle,-3,5,1,0,0,1,2,"[104,45,151,89,48,128,62,129,35,39]",-3,5,1,0,0,1,11,92,26,1,DarkGreen,DarkGreen.jpg,LightBlue,LightBlue.jpg,,
,,,,,,,,,,,,,,,,,,-2,,,,,,,,,,,,,,,,,,,,,,,,,,,5cfdbf81f8ff8a00157310e0,001,2021-12-06_04h15.52.375,jm_natural_scene_simialrity_2-12-2021,2021.2.3,Win32,59.87665409,5cfdbf81f8ff8a00157310e0,61ad71e11ddd29ccf7a27d5b,61ad72130e928d771ea13c22,,,-100,-40,1,0,0,response5disk,1.9407,-13,-5,1,0,0,rectangle,-13,-5,1,0,0,1,-2,"[104,45,151,89,48,128,62,129,35,39]",-13,-5,1,0,0,1,12,93,59,1,Purple,Purple.jpg,Yellow,Yellow.jpg,,
,,,,,,,,,,,,,,,,,,2,,,,,,,,,,,,,,,,,,,,,,,,,,,5cfdbf81f8ff8a00157310e0,001,2021-12-06_04h15.52.375,jm_natural_scene_simialrity_2-12-2021,2021.2.3,Win32,59.87665409,5cfdbf81f8ff8a00157310e0,61ad71e11ddd29ccf7a27d5b,61ad72130e928d771ea13c22,,,98,-59,1,0,0,response3disk,2.0235,0,0,1,0,0,rectangle,0,0,1,0,0,1,-3,"[104,45,151,89,48,128,62,129,35,39]",0,0,1,0,0,1,13,94,31,1,Turquiose,Turquiose.jpg,LightBlue,LightBlue.jpg,,
,,,,,,,,,,,,,,,,,,1,,,,,,,,,,,,,,,,,,,,,,,,,,,5cfdbf81f8ff8a00157310e0,001,2021-12-06_04h15.52.375,jm_natural_scene_simialrity_2-12-2021,2021.2.3,Win32,59.87665409,5cfdbf81f8ff8a00157310e0,61ad71e11ddd29ccf7a27d5b,61ad72130e928d771ea13c22,,,46,-95,1,0,0,response3disk,1.5882,-7,-7,1,0,0,rectangle,-7,-7,1,0,0,1,2,"[104,45,151,89,48,128,62,129,35,39]",-7,-7,1,0,0,1,14,95,19,1,LightGreen,LightGreen.jpg,Turquiose,Turquiose.jpg,,
,,,,,,,,,,,,,,,,,,-1,,,,,,,,,,,,,,,,,,,,,,,,,,,5cfdbf81f8ff8a00157310e0,001,2021-12-06_04h15.52.375,jm_natural_scene_simialrity_2-12-2021,2021.2.3,Win32,59.87665409,5cfdbf81f8ff8a00157310e0,61ad71e11ddd29ccf7a27d5b,61ad72130e928d771ea13c22,,,-62,-88,1,0,0,response5disk,2.5254,1,-10,1,0,0,rectangle,1,-10,1,0,0,1,-1,"[104,45,151,89,48,128,62,129,35,39]",1,-10,1,0,0,1,15,96,6,1,Red,Red.jpg,DarkBlue,DarkBlue.jpg,,
,,,,,,,,,,,,,,,,,,-2,,,,,,,,,,,,,,,,,,,,,,,,,,,5cfdbf81f8ff8a00157310e0,001,2021-12-06_04h15.52.375,jm_natural_scene_simialrity_2-12-2021,2021.2.3,Win32,59.87665409,5cfdbf81f8ff8a00157310e0,61ad71e11ddd29ccf7a27d5b,61ad72130e928d771ea13c22,,,-85,-40,1,0,0,response5disk,3.697,0,-1,1,0,0,rectangle,0,-1,1,0,0,1,3,"[104,45,151,89,48,128,62,129,35,39]",0,-1,1,0,0,1,16,97,73,1,Pink,Pink.jpg,Turquiose,Turquiose.jpg,,
,,,,,,,,,,,,,,,,,,-3,,,,,,,,,,,,,,,,,,,,,,,,,,,5cfdbf81f8ff8a00157310e0,001,2021-12-06_04h15.52.375,jm_natural_scene_simialrity_2-12-2021,2021.2.3,Win32,59.87665409,5cfdbf81f8ff8a00157310e0,61ad71e11ddd29ccf7a27d5b,61ad72130e928d771ea13c22,,,-95,38,1,0,0,response7disk,1.1374,-5,-4,1,0,0,rectangle,-5,-4,1,0,0,1,-2,"[104,45,151,89,48,128,62,129,35,39]",-5,-4,1,0,0,1,17,98,54,1,DarkGreen,DarkGreen.jpg,Yellow,Yellow.jpg,,
,,,,,,,,,,,,,,,,,,-3,,,,,,,,,,,,,,,,,,,,,,,,,,,5cfdbf81f8ff8a00157310e0,001,2021-12-06_04h15.52.375,jm_natural_scene_simialrity_2-12-2021,2021.2.3,Win32,59.87665409,5cfdbf81f8ff8a00157310e0,61ad71e11ddd29ccf7a27d5b,61ad72130e928d771ea13c22,,,-89,46,1,0,0,response7disk,5.0006,7,-4,1,0,0,rectangle,7,-4,1,0,0,1,-3,"[104,45,151,89,48,128,62,129,35,39]",7,-4,1,0,0,1,18,99,13,1,Yellow,Yellow.jpg,LightBlue,LightBlue.jpg,,
,,,,,,,,,,,,,,,,,,-3,,,,,,,,,,,,,,,,,,,,,,,,,,,5cfdbf81f8ff8a00157310e0,001,2021-12-06_04h15.52.375,jm_natural_scene_simialrity_2-12-2021,2021.2.3,Win32,59.87665409,5cfdbf81f8ff8a00157310e0,61ad71e11ddd29ccf7a27d5b,61ad72130e928d771ea13c22,,,-95,51,1,0,0,response7disk,1.2535,2,12,1,0,0,rectangle,2,12,1,0,0,1,1,"[104,45,151,89,48,128,62,129,35,39]",2,12,1,0,0,1,19,100,55,1,Turquiose,Turquiose.jpg,Yellow,Yellow.jpg,,
,,,,,,,,,,,,,,,,,,3,,,,,,,,,,,,,,,,,,,,,,,,,,,5cfdbf81f8ff8a00157310e0,001,2021-12-06_04h15.52.375,jm_natural_scene_simialrity_2-12-2021,2021.2.3,Win32,59.87665409,5cfdbf81f8ff8a00157310e0,61ad71e11ddd29ccf7a27d5b,61ad72130e928d771ea13c22,,,110,51,1,0,0,response1disk,1.9578,-2,-1,1,0,0,rectangle,-2,-1,1,0,0,1,-2,"[104,45,151,89,48,128,62,129,35,39]",-2,-1,1,0,0,1,20,101,7,1,Red,Red.jpg,Pink,Pink.jpg,,
,,,,,,,,,,,,,,,,,,-2,,,,,,,,,,,,,,,,,,,,,,,,,,,5cfdbf81f8ff8a00157310e0,001,2021-12-06_04h15.52.375,jm_natural_scene_simialrity_2-12-2021,2021.2.3,Win32,59.87665409,5cfdbf81f8ff8a00157310e0,61ad71e11ddd29ccf7a27d5b,61ad72130e928d771ea13c22,,,-106,-32,1,0,0,response5disk,1.1715,2,4,1,0,0,rectangle,2,4,1,0,0,1,3,"[104,45,151,89,48,128,62,129,35,39]",2,4,1,0,0,1,21,102,37,1,LightBlue,LightBlue.jpg,Pink,Pink.jpg,,
,,,,,,,,,,,,,,,,,,1,,,,,,,,,,,,,,,,,,,,,,,,,,,5cfdbf81f8ff8a00157310e0,001,2021-12-06_04h15.52.375,jm_natural_scene_simialrity_2-12-2021,2021.2.3,Win32,59.87665409,5cfdbf81f8ff8a00157310e0,61ad71e11ddd29ccf7a27d5b,61ad72130e928d771ea13c22,,,73,-86,1,0,0,response3disk,2.5415,-16,-6,1,0,0,rectangle,126,55,1,0,0,3,3,"[104,45,151,89,48,128,62,129,35,39]",2,-2,1,0,0,1,22,103,32,1,Turquiose,Turquiose.jpg,DarkBlue,DarkBlue.jpg,response1disk_3,rectangle
,,,,,,,,,,,,,,,,,,-3,,,,,,,,,,,,,,,,,,,,,,,,,,,5cfdbf81f8ff8a00157310e0,001,2021-12-06_04h15.52.375,jm_natural_scene_simialrity_2-12-2021,2021.2.3,Win32,59.87665409,5cfdbf81f8ff8a00157310e0,61ad71e11ddd29ccf7a27d5b,61ad72130e928d771ea13c22,,,-102,50,1,0,0,response7disk,1.4695,-2,-4,1,0,0,rectangle,-2,-4,1,0,0,3,-4,"[104,45,151,89,48,128,62,129,35,39]",-2,-4,1,0,0,1,23,104,49,1,LightBlue,LightBlue.jpg,Red,Red.jpg,,
,,,,,,,,,,,,,,,,,,3,,,,,,,,,,,,,,,,,,,,,,,,,,,5cfdbf81f8ff8a00157310e0,001,2021-12-06_04h15.52.375,jm_natural_scene_simialrity_2-12-2021,2021.2.3,Win32,59.87665409,5cfdbf81f8ff8a00157310e0,61ad71e11ddd29ccf7a27d5b,61ad72130e928d771ea13c22,,,124,53,1,0,0,response1disk,1.3548,10,1,1,0,0,rectangle,10,1,1,0,0,3,-2,"[104,45,151,89,48,128,62,129,35,39]",10,1,1,0,0,1,24,105,77,1,Purple,Purple.jpg,LightBlue,LightBlue.jpg,,
,,,,,,,,,,,,,,,,,,-4,,,,,,,,,,,,,,,,,,,,,,,,,,,5cfdbf81f8ff8a00157310e0,001,2021-12-06_04h15.52.375,jm_natural_scene_simialrity_2-12-2021,2021.2.3,Win32,59.87665409,5cfdbf81f8ff8a00157310e0,61ad71e11ddd29ccf7a27d5b,61ad72130e928d771ea13c22,,,-65,121,1,0,0,response7disk,2.9099,-4,9,1,0,0,rectangle,-4,9,1,0,0,3,-4,"[104,45,151,89,48,128,62,129,35,39]",-4,9,1,0,0,1,25,106,47,1,DarkGreen,DarkGreen.jpg,Red,Red.jpg,,
,,,,,,,,,,,,,,,,,,3,,,,,,,,,,,,,,,,,,,,,,,,,,,5cfdbf81f8ff8a00157310e0,001,2021-12-06_04h15.52.375,jm_natural_scene_simialrity_2-12-2021,2021.2.3,Win32,59.87665409,5cfdbf81f8ff8a00157310e0,61ad71e11ddd29ccf7a27d5b,61ad72130e928d771ea13c22,,,109,63,1,0,0,response1disk,1.3035,6,9,1,0,0,rectangle,6,9,1,0,0,3,-1,"[104,45,151,89,48,128,62,129,35,39]",6,9,1,0,0,1,26,107,51,1,Pink,Pink.jpg,Red,Red.jpg,,
,,,,,,,,,,,,,,,,,,-2,,,,,,,,,,,,,,,,,,,,,,,,,,,5cfdbf81f8ff8a00157310e0,001,2021-12-06_04h15.52.375,jm_natural_scene_simialrity_2-12-2021,2021.2.3,Win32,59.87665409,5cfdbf81f8ff8a00157310e0,61ad71e11ddd29ccf7a27d5b,61ad72130e928d771ea13c22,,,-101,-34,1,0,0,response5disk,1.7561,-2,0,1,0,0,rectangle,-2,0,1,0,0,3,2,"[104,45,151,89,48,128,62,129,35,39]",-2,0,1,0,0,1,27,108,36,1,LightBlue,LightBlue.jpg,DarkBlue,DarkBlue.jpg,,
,,,,,,,,,,,,,,,,,,2,,,,,,,,,,,,,,,,,,,,,,,,,,,5cfdbf81f8ff8a00157310e0,001,2021-12-06_04h15.52.375,jm_natural_scene_simialrity_2-12-2021,2021.2.3,Win32,59.87665409,5cfdbf81f8ff8a00157310e0,61ad71e11ddd29ccf7a27d5b,61ad72130e928d771ea13c22,,,101,-51,1,0,0,response3disk,1.489,-1,-6,1,0,0,rectangle,-1,-6,1,0,0,3,-4,"[104,45,151,89,48,128,62,129,35,39]",-1,-6,1,0,0,1,28,109,63,1,DarkBlue,DarkBlue.jpg,LightGreen,LightGreen.jpg,,
,,,,,,,,,,,,,,,,,,-1,,,,,,,,,,,,,,,,,,,,,,,,,,,5cfdbf81f8ff8a00157310e0,001,2021-12-06_04h15.52.375,jm_natural_scene_simialrity_2-12-2021,2021.2.3,Win32,59.87665409,5cfdbf81f8ff8a00157310e0,61ad71e11ddd29ccf7a27d5b,61ad72130e928d771ea13c22,,,-43,-91,1,0,0,response5disk,3.2285,0,-1,1,0,0,rectangle,0,-1,1,0,0,3,-4,"[104,45,151,89,48,128,62,129,35,39]",0,-1,1,0,0,1,29,110,72,1,DarkBlue,DarkBlue.jpg,Turquiose,Turquiose.jpg,,
,,,,,,,,,,,,,,,,,,3,,,,,,,,,,,,,,,,,,,,,,,,,,,5cfdbf81f8ff8a00157310e0,001,2021-12-06_04h15.52.375,jm_natural_scene_simialrity_2-12-2021,2021.2.3,Win32,59.87665409,5cfdbf81f8ff8a00157310e0,61ad71e11ddd29ccf7a27d5b,61ad72130e928d771ea13c22,,,108,53,1,0,0,response1disk,1.2538,4,-1,1,0,0,rectangle,4,-1,1,0,0,3,3,"[104,45,151,89,48,128,62,129,35,39]",4,-1,1,0,0,1,30,111,18,1,LightGreen,LightGreen.jpg,DarkGreen,DarkGreen.jpg,,
,,,,,,,,,,,,,,,,,,2,,,,,,,,,,,,,,,,,,,,,,,,,,,5cfdbf81f8ff8a00157310e0,001,2021-12-06_04h15.52.375,jm_natural_scene_simialrity_2-12-2021,2021.2.3,Win32,59.87665409,5cfdbf81f8ff8a00157310e0,61ad71e11ddd29ccf7a27d5b,61ad72130e928d771ea13c22,,,100,-49,1,0,0,response3disk,2.5081,0,7,1,0,0,rectangle,0,7,1,0,0,3,3,"[104,45,151,89,48,128,62,129,35,39]",0,7,1,0,0,1,31,112,45,1,Yellow,Yellow.jpg,Red,Red.jpg,,
,,,,,,,,,,,,,,,,,,-2,,,,,,,,,,,,,,,,,,,,,,,,,,,5cfdbf81f8ff8a00157310e0,001,2021-12-06_04h15.52.375,jm_natural_scene_simialrity_2-12-2021,2021.2.3,Win32,59.87665409,5cfdbf81f8ff8a00157310e0,61ad71e11ddd29ccf7a27d5b,61ad72130e928d771ea13c22,,,-106,-41,1,0,0,response5disk,1.3716,-1,-3,1,0,0,rectangle,-1,-3,1,0,0,3,1,"[104,45,151,89,48,128,62,129,35,39]",-1,-3,1,0,0,1,32,113,64,1,Pink,Pink.jpg,LightGreen,LightGreen.jpg,,
,,,,,,,,,,,,,,,,,,-3,,,,,,,,,,,,,,,,,,,,,,,,,,,5cfdbf81f8ff8a00157310e0,001,2021-12-06_04h15.52.375,jm_natural_scene_simialrity_2-12-2021,2021.2.3,Win32,59.87665409,5cfdbf81f8ff8a00157310e0,61ad71e11ddd29ccf7a27d5b,61ad72130e928d771ea13c22,,,-89,49,1,0,0,response7disk,1.0548,-8,12,1,0,0,rectangle,-8,12,1,0,0,3,-4,"[104,45,151,89,48,128,62,129,35,39]",-8,12,1,0,0,1,33,114,4,1,Red,Red.jpg,Turquiose,Turquiose.jpg,,
,,,,,,,,,,,,,,,,,,-3,,,,,,,,,,,,,,,,,,,,,,,,,,,5cfdbf81f8ff8a00157310e0,001,2021-12-06_04h15.52.375,jm_natural_scene_simialrity_2-12-2021,2021.2.3,Win32,59.87665409,5cfdbf81f8ff8a00157310e0,61ad71e11ddd29ccf7a27d5b,61ad72130e928d771ea13c22,,,-95,39,1,0,0,response7disk,1.373,-5,-3,1,0,0,rectangle,-5,-3,1,0,0,3,-2,"[104,45,151,89,48,128,62,129,35,39]",-5,-3,1,0,0,1,34,115,69,1,Pink,Pink.jpg,DarkGreen,DarkGreen.jpg,,
,,,,,,,,,,,,,,,,,,4,,,,,,,,,,,,,,,,,,,,,,,,,,,5cfdbf81f8ff8a00157310e0,001,2021-12-06_04h15.52.375,jm_natural_scene_simialrity_2-12-2021,2021.2.3,Win32,59.87665409,5cfdbf81f8ff8a00157310e0,61ad71e11ddd29ccf7a27d5b,61ad72130e928d771ea13c22,,,49,112,1,0,0,response1disk,1.1723,-6,1,1,0,0,rectangle,-6,1,1,0,0,3,-1,"[104,45,151,89,48,128,62,129,35,39]",-6,1,1,0,0,1,35,116,0,1,Red,Red.jpg,Red,Red.jpg,,
,,,,,,,,,,,,,,,,,,-1,,,,,,,,,,,,,,,,,,,,,,,,,,,5cfdbf81f8ff8a00157310e0,001,2021-12-06_04h15.52.375,jm_natural_scene_simialrity_2-12-2021,2021.2.3,Win32,59.87665409,5cfdbf81f8ff8a00157310e0,61ad71e11ddd29ccf7a27d5b,61ad72130e928d771ea13c22,,,-47,-78,1,0,0,response5disk,2.4252,8,1,1,0,0,rectangle,8,1,1,0,0,3,-3,"[104,45,151,89,48,128,62,129,35,39]",8,1,1,0,0,1,36,117,25,1,DarkGreen,DarkGreen.jpg,Turquiose,Turquiose.jpg,,
,,,,,,,,,,,,,,,,,,1,,,,,,,,,,,,,,,,,,,,,,,,,,,5cfdbf81f8ff8a00157310e0,001,2021-12-06_04h15.52.375,jm_natural_scene_simialrity_2-12-2021,2021.2.3,Win32,59.87665409,5cfdbf81f8ff8a00157310e0,61ad71e11ddd29ccf7a27d5b,61ad72130e928d771ea13c22,,,40,-92,1,0,0,response3disk,1.406,-2,0,1,0,0,rectangle,-2,0,1,0,0,3,3,"[104,45,151,89,48,128,62,129,35,39]",-2,0,1,0,0,1,37,118,62,1,LightBlue,LightBlue.jpg,LightGreen,LightGreen.jpg,,
,,,,,,,,,,,,,,,,,,-4,,,,,,,,,,,,,,,,,,,,,,,,,,,5cfdbf81f8ff8a00157310e0,001,2021-12-06_04h15.52.375,jm_natural_scene_simialrity_2-12-2021,2021.2.3,Win32,59.87665409,5cfdbf81f8ff8a00157310e0,61ad71e11ddd29ccf7a27d5b,61ad72130e928d771ea13c22,,,-69,107,1,0,0,response7disk,1.523,-21,11,1,0,0,rectangle,-21,11,1,0,0,3,1,"[104,45,151,89,48,128,62,129,35,39]",-21,11,1,0,0,1,38,119,3,1,Red,Red.jpg,DarkGreen,DarkGreen.jpg,,
,,,,,,,,,,,,,,,,,,1,,,,,,,,,,,,,,,,,,,,,,,,,,,5cfdbf81f8ff8a00157310e0,001,2021-12-06_04h15.52.375,jm_natural_scene_simialrity_2-12-2021,2021.2.3,Win32,59.87665409,5cfdbf81f8ff8a00157310e0,61ad71e11ddd29ccf7a27d5b,61ad72130e928d771ea13c22,,,63,-93,1,0,0,response3disk,1.1371,9,7,1,0,0,rectangle,9,7,1,0,0,3,-3,"[104,45,151,89,48,128,62,129,35,39]",9,7,1,0,0,1,39,120,75,1,DarkBlue,DarkBlue.jpg,LightBlue,LightBlue.jpg,,
,,,,,,,,,,,,,,,,,,-2,,,,,,,,,,,,,,,,,,,,,,,,,,,5cfdbf81f8ff8a00157310e0,001,2021-12-06_04h15.52.375,jm_natural_scene_simialrity_2-12-2021,2021.2.3,Win32,59.87665409,5cfdbf81f8ff8a00157310e0,61ad71e11ddd29ccf7a27d5b,61ad72130e928d771ea13c22,,,-78,-41,1,0,0,response5disk,3.8628,12,-2,1,0,0,rectangle,12,-2,1,0,0,3,-3,"[104,45,151,89,48,128,62,129,35,39]",12,-2,1,0,0,1,40,121,29,1,DarkGreen,DarkGreen.jpg,Purple,Purple.jpg,,
,,,,,,,,,,,,,,,,,,-2,,,,,,,,,,,,,,,,,,,,,,,,,,,5cfdbf81f8ff8a00157310e0,001,2021-12-06_04h15.52.375,jm_natural_scene_simialrity_2-12-2021,2021.2.3,Win32,59.87665409,5cfdbf81f8ff8a00157310e0,61ad71e11ddd29ccf7a27d5b,61ad72130e928d771ea13c22,,,-110,-44,1,0,0,response5disk,1.8241,-8,1,1,0,0,rectangle,-8,1,1,0,0,3,-3,"[104,45,151,89,48,128,62,129,35,39]",-8,1,1,0,0,1,41,122,57,1,DarkBlue,DarkBlue.jpg,Yellow,Yellow.jpg,,
,,,,,,,,,,,,,,,,,,-2,,,,,,,,,,,,,,,,,,,,,,,,,,,5cfdbf81f8ff8a00157310e0,001,2021-12-06_04h15.52.375,jm_natural_scene_simialrity_2-12-2021,2021.2.3,Win32,59.87665409,5cfdbf81f8ff8a00157310e0,61ad71e11ddd29ccf7a27d5b,61ad72130e928d771ea13c22,,,-96,-37,1,0,0,response5disk,1.1883,-16,-3,1,0,0,rectangle,-16,-3,1,0,0,3,-2,"[104,45,151,89,48,128,62,129,35,39]",-16,-3,1,0,0,1,42,123,76,1,Pink,Pink.jpg,LightBlue,LightBlue.jpg,,
,,,,,,,,,,,,,,,,,,-2,,,,,,,,,,,,,,,,,,,,,,,,,,,5cfdbf81f8ff8a00157310e0,001,2021-12-06_04h15.52.375,jm_natural_scene_simialrity_2-12-2021,2021.2.3,Win32,59.87665409,5cfdbf81f8ff8a00157310e0,61ad71e11ddd29ccf7a27d5b,61ad72130e928d771ea13c22,,,-89,-43,1,0,0,response5disk,0.8192,3,-7,1,0,0,rectangle,3,-7,1,0,0,3,-2,"[104,45,151,89,48,128,62,129,35,39]",3,-7,1,0,0,1,43,124,12,1,Yellow,Yellow.jpg,Turquiose,Turquiose.jpg,,
,,,,,,,,,,,,,,,,,,-2,,,,,,,,,,,,,,,,,,,,,,,,,,,5cfdbf81f8ff8a00157310e0,001,2021-12-06_04h15.52.375,jm_natural_scene_simialrity_2-12-2021,2021.2.3,Win32,59.87665409,5cfdbf81f8ff8a00157310e0,61ad71e11ddd29ccf7a27d5b,61ad72130e928d771ea13c22,,,-92,-41,1,0,0,response5disk,3.3787,-15,-4,1,0,0,rectangle,-15,-4,1,0,0,3,2,"[104,45,151,89,48,128,62,129,35,39]",-15,-4,1,0,0,1,44,125,40,1,DarkBlue,DarkBlue.jpg,Pink,Pink.jpg,,
,,,,,,,,,,,,,,,,,,-2,,,,,,,,,,,,,,,,,,,,,,,,,,,5cfdbf81f8ff8a00157310e0,001,2021-12-06_04h15.52.375,jm_natural_scene_simialrity_2-12-2021,2021.2.3,Win32,59.87665409,5cfdbf81f8ff8a00157310e0,61ad71e11ddd29ccf7a27d5b,61ad72130e928d771ea13c22,,,-97,-36,1,0,0,response5disk,1.0029,-12,0,1,0,0,rectangle,-12,0,1,0,0,3,-1,"[104,45,151,89,48,128,62,129,35,39]",-12,0,1,0,0,1,45,126,70,1,Purple,Purple.jpg,DarkGreen,DarkGreen.jpg,,
,,,,,,,,,,,,,,,,,,-2,,,,,,,,,,,,,,,,,,,,,,,,,,,5cfdbf81f8ff8a00157310e0,001,2021-12-06_04h15.52.375,jm_natural_scene_simialrity_2-12-2021,2021.2.3,Win32,59.87665409,5cfdbf81f8ff8a00157310e0,61ad71e11ddd29ccf7a27d5b,61ad72130e928d771ea13c22,,,-100,-36,1,0,0,response5disk,0.8864,-3,-1,1,0,0,rectangle,124,-34,1,0,0,2,2,"[104,45,151,89,48,128,62,129,35,39]",-7,1,1,0,0,1,46,127,15,1,Yellow,Yellow.jpg,Pink,Pink.jpg,response3disk_3,rectangle
,,,,,,,,,,,,,,,,,,-2,,,,,,,,,,,,,,,,,,,,,,,,,,,5cfdbf81f8ff8a00157310e0,001,2021-12-06_04h15.52.375,jm_natural_scene_simialrity_2-12-2021,2021.2.3,Win32,59.87665409,5cfdbf81f8ff8a00157310e0,61ad71e11ddd29ccf7a27d5b,61ad72130e928d771ea13c22,,,-90,-39,1,0,0,response5disk,1.1537,-9,0,1,0,0,rectangle,-57,-101,1,0,0,-1,-1,"[104,45,151,89,48,128,62,129,35,39]",-3,-3,1,0,0,1,47,128,23,1,LightGreen,LightGreen.jpg,Purple,Purple.jpg,response5disk_3,rectangle
,,,,,,,,,,,,,,,,,,1,,,,,,,,,,,,,,,,,,,,,,,,,,,5cfdbf81f8ff8a00157310e0,001,2021-12-06_04h15.52.375,jm_natural_scene_simialrity_2-12-2021,2021.2.3,Win32,59.87665409,5cfdbf81f8ff8a00157310e0,61ad71e11ddd29ccf7a27d5b,61ad72130e928d771ea13c22,,,35,-111,1,0,0,response3disk,1.5384,-2,-2,1,0,0,rectangle,-2,-2,1,0,0,-1,-4,"[104,45,151,89,48,128,62,129,35,39]",-2,-2,1,0,0,1,48,129,66,1,Turquiose,Turquiose.jpg,DarkGreen,DarkGreen.jpg,,
,,,,,,,,,,,,,,,,,,-1,,,,,,,,,,,,,,,,,,,,,,,,,,,5cfdbf81f8ff8a00157310e0,001,2021-12-06_04h15.52.375,jm_natural_scene_simialrity_2-12-2021,2021.2.3,Win32,59.87665409,5cfdbf81f8ff8a00157310e0,61ad71e11ddd29ccf7a27d5b,61ad72130e928d771ea13c22,,,-47,-91,1,0,0,response5disk,4.0599,1,1,1,0,0,rectangle,1,1,1,0,0,-1,-4,"[104,45,151,89,48,128,62,129,35,39]",1,1,1,0,0,1,49,130,61,1,Turquiose,Turquiose.jpg,LightGreen,LightGreen.jpg,,
,,,,,,,,,,,,,,,,,,-3,,,,,,,,,,,,,,,,,,,,,,,,,,,5cfdbf81f8ff8a00157310e0,001,2021-12-06_04h15.52.375,jm_natural_scene_simialrity_2-12-2021,2021.2.3,Win32,59.87665409,5cfdbf81f8ff8a00157310e0,61ad71e11ddd29ccf7a27d5b,61ad72130e928d771ea13c22,,,-88,48,1,0,0,response7disk,3.3666,6,6,1,0,0,rectangle,6,6,1,0,0,-1,1,"[104,45,151,89,48,128,62,129,35,39]",6,6,1,0,0,1,50,131,48,1,Turquiose,Turquiose.jpg,Red,Red.jpg,,
,,,,,,,,,,,,,,,,,,1,,,,,,,,,,,,,,,,,,,,,,,,,,,5cfdbf81f8ff8a00157310e0,001,2021-12-06_04h15.52.375,jm_natural_scene_simialrity_2-12-2021,2021.2.3,Win32,59.87665409,5cfdbf81f8ff8a00157310e0,61ad71e11ddd29ccf7a27d5b,61ad72130e928d771ea13c22,,,53,-93,1,0,0,response3disk,1.8954,0,-2,1,0,0,rectangle,0,-2,1,0,0,-1,-4,"[104,45,151,89,48,128,62,129,35,39]",0,-2,1,0,0,1,51,132,80,1,Purple,Purple.jpg,Pink,Pink.jpg,,
,,,,,,,,,,,,,,,,,,-3,,,,,,,,,,,,,,,,,,,,,,,,,,,5cfdbf81f8ff8a00157310e0,001,2021-12-06_04h15.52.375,jm_natural_scene_simialrity_2-12-2021,2021.2.3,Win32,59.87665409,5cfdbf81f8ff8a00157310e0,61ad71e11ddd29ccf7a27d5b,61ad72130e928d771ea13c22,,,-95,50,1,0,0,response7disk,1.9691,-1,-2,1,0,0,rectangle,-1,-2,1,0,0,-1,-3,"[104,45,151,89,48,128,62,129,35,39]",-1,-2,1,0,0,1,52,133,56,1,LightBlue,LightBlue.jpg,Yellow,Yellow.jpg,,
,,,,,,,,,,,,,,,,,,3,,,,,,,,,,,,,,,,,,,,,,,,,,,5cfdbf81f8ff8a00157310e0,001,2021-12-06_04h15.52.375,jm_natural_scene_simialrity_2-12-2021,2021.2.3,Win32,59.87665409,5cfdbf81f8ff8a00157310e0,61ad71e11ddd29ccf7a27d5b,61ad72130e928d771ea13c22,,,115,56,1,0,0,response1disk,1.1762,2,6,1,0,0,rectangle,2,6,1,0,0,-1,2,"[104,45,151,89,48,128,62,129,35,39]",2,6,1,0,0,1,53,134,60,1,DarkGreen,DarkGreen.jpg,LightGreen,LightGreen.jpg,,
,,,,,,,,,,,,,,,,,,4,,,,,,,,,,,,,,,,,,,,,,,,,,,5cfdbf81f8ff8a00157310e0,001,2021-12-06_04h15.52.375,jm_natural_scene_simialrity_2-12-2021,2021.2.3,Win32,59.87665409,5cfdbf81f8ff8a00157310e0,61ad71e11ddd29ccf7a27d5b,61ad72130e928d771ea13c22,,,63,130,1,0,0,response1disk,1.0041,4,10,1,0,0,rectangle,4,10,1,0,0,-1,3,"[104,45,151,89,48,128,62,129,35,39]",4,10,1,0,0,1,54,135,17,1,LightGreen,LightGreen.jpg,LightGreen,LightGreen.jpg,,
,,,,,,,,,,,,,,,,,,-1,,,,,,,,,,,,,,,,,,,,,,,,,,,5cfdbf81f8ff8a00157310e0,001,2021-12-06_04h15.52.375,jm_natural_scene_simialrity_2-12-2021,2021.2.3,Win32,59.87665409,5cfdbf81f8ff8a00157310e0,61ad71e11ddd29ccf7a27d5b,61ad72130e928d771ea13c22,,,-33,-76,1,0,0,response5disk,1.4427,12,5,1,0,0,rectangle,12,5,1,0,0,-1,-2,"[104,45,151,89,48,128,62,129,35,39]",12,5,1,0,0,1,55,136,34,1,Turquiose,Turquiose.jpg,Purple,Purple.jpg,,
,,,,,,,,,,,,,,,,,,1,,,,,,,,,,,,,,,,,,,,,,,,,,,5cfdbf81f8ff8a00157310e0,001,2021-12-06_04h15.52.375,jm_natural_scene_simialrity_2-12-2021,2021.2.3,Win32,59.87665409,5cfdbf81f8ff8a00157310e0,61ad71e11ddd29ccf7a27d5b,61ad72130e928d771ea13c22,,,54,-94,1,0,0,response3disk,1.2881,-2,-5,1,0,0,rectangle,-2,-5,1,0,0,-1,1,"[104,45,151,89,48,128,62,129,35,39]",-2,-5,1,0,0,1,56,137,68,1,DarkBlue,DarkBlue.jpg,DarkGreen,DarkGreen.jpg,,
,,,,,,,,,,,,,,,,,,4,,,,,,,,,,,,,,,,,,,,,,,,,,,5cfdbf81f8ff8a00157310e0,001,2021-12-06_04h15.52.375,jm_natural_scene_simialrity_2-12-2021,2021.2.3,Win32,59.87665409,5cfdbf81f8ff8a00157310e0,61ad71e11ddd29ccf7a27d5b,61ad72130e928d771ea13c22,,,53,109,1,0,0,response1disk,1.1203,2,2,1,0,0,rectangle,2,2,1,0,0,-1,2,"[104,45,151,89,48,128,62,129,35,39]",2,2,1,0,0,1,57,138,42,1,Pink,Pink.jpg,Pink,Pink.jpg,,
,,,,,,,,,,,,,,,,,,-1,,,,,,,,,,,,,,,,,,,,,,,,,,,5cfdbf81f8ff8a00157310e0,001,2021-12-06_04h15.52.375,jm_natural_scene_simialrity_2-12-2021,2021.2.3,Win32,59.87665409,5cfdbf81f8ff8a00157310e0,61ad71e11ddd29ccf7a27d5b,61ad72130e928d771ea13c22,,,-41,-88,1,0,0,response5disk,1.455,1,4,1,0,0,rectangle,1,4,1,0,0,-1,-3,"[104,45,151,89,48,128,62,129,35,39]",1,4,1,0,0,1,58,139,20,1,LightGreen,LightGreen.jpg,LightBlue,LightBlue.jpg,,
,,,,,,,,,,,,,,,,,,4,,,,,,,,,,,,,,,,,,,,,,,,,,,5cfdbf81f8ff8a00157310e0,001,2021-12-06_04h15.52.375,jm_natural_scene_simialrity_2-12-2021,2021.2.3,Win32,59.87665409,5cfdbf81f8ff8a00157310e0,61ad71e11ddd29ccf7a27d5b,61ad72130e928d771ea13c22,,,58,119,1,0,0,response1disk,0.9746,-8,-14,1,0,0,rectangle,-8,-14,1,0,0,-1,3,"[104,45,151,89,48,128,62,129,35,39]",-8,-14,1,0,0,1,59,140,35,1,LightBlue,LightBlue.jpg,LightBlue,LightBlue.jpg,,
,,,,,,,,,,,,,,,,,,-1,,,,,,,,,,,,,,,,,,,,,,,,,,,5cfdbf81f8ff8a00157310e0,001,2021-12-06_04h15.52.375,jm_natural_scene_simialrity_2-12-2021,2021.2.3,Win32,59.87665409,5cfdbf81f8ff8a00157310e0,61ad71e11ddd29ccf7a27d5b,61ad72130e928d771ea13c22,,,-36,-70,1,0,0,response5disk,1.7512,3,1,1,0,0,rectangle,3,1,1,0,0,-1,2,"[104,45,151,89,48,128,62,129,35,39]",3,1,1,0,0,1,60,141,8,1,Red,Red.jpg,Purple,Purple.jpg,,
,,,,,,,,,,,,,,,,,,-3,,,,,,,,,,,,,,,,,,,,,,,,,,,5cfdbf81f8ff8a00157310e0,001,2021-12-06_04h15.52.375,jm_natural_scene_simialrity_2-12-2021,2021.2.3,Win32,59.87665409,5cfdbf81f8ff8a00157310e0,61ad71e11ddd29ccf7a27d5b,61ad72130e928d771ea13c22,,,-96,55,1,0,0,response7disk,1.2092,-6,1,1,0,0,rectangle,-6,1,1,0,0,-1,-1,"[104,45,151,89,48,128,62,129,35,39]",-6,1,1,0,0,1,61,142,11,1,Yellow,Yellow.jpg,DarkGreen,DarkGreen.jpg,,
,,,,,,,,,,,,,,,,,,-3,,,,,,,,,,,,,,,,,,,,,,,,,,,5cfdbf81f8ff8a00157310e0,001,2021-12-06_04h15.52.375,jm_natural_scene_simialrity_2-12-2021,2021.2.3,Win32,59.87665409,5cfdbf81f8ff8a00157310e0,61ad71e11ddd29ccf7a27d5b,61ad72130e928d771ea13c22,,,-99,34,1,0,0,response7disk,1.8287,-16,-4,1,0,0,rectangle,-16,-4,1,0,0,-1,-3,"[104,45,151,89,48,128,62,129,35,39]",-16,-4,1,0,0,1,62,143,16,1,Yellow,Yellow.jpg,Purple,Purple.jpg,,
,,,,,,,,,,,,,,,,,,-3,,,,,,,,,,,,,,,,,,,,,,,,,,,5cfdbf81f8ff8a00157310e0,001,2021-12-06_04h15.52.375,jm_natural_scene_simialrity_2-12-2021,2021.2.3,Win32,59.87665409,5cfdbf81f8ff8a00157310e0,61ad71e11ddd29ccf7a27d5b,61ad72130e928d771ea13c22,,,-84,55,1,0,0,response7disk,0.8699,-5,2,1,0,0,rectangle,-5,2,1,0,0,-1,2,"[104,45,151,89,48,128,62,129,35,39]",-5,2,1,0,0,1,63,144,43,1,Pink,Pink.jpg,Purple,Purple.jpg,,
,,,,,,,,,,,,,,,,,,-2,,,,,,,,,,,,,,,,,,,,,,,,,,,5cfdbf81f8ff8a00157310e0,001,2021-12-06_04h15.52.375,jm_natural_scene_simialrity_2-12-2021,2021.2.3,Win32,59.87665409,5cfdbf81f8ff8a00157310e0,61ad71e11ddd29ccf7a27d5b,61ad72130e928d771ea13c22,,,-105,-40,1,0,0,response5disk,3.061,4,0,1,0,0,rectangle,4,0,1,0,0,-1,-2,"[104,45,151,89,48,128,62,129,35,39]",4,0,1,0,0,1,64,145,78,1,Pink,Pink.jpg,DarkBlue,DarkBlue.jpg,,
,,,,,,,,,,,,,,,,,,1,,,,,,,,,,,,,,,,,,,,,,,,,,,5cfdbf81f8ff8a00157310e0,001,2021-12-06_04h15.52.375,jm_natural_scene_simialrity_2-12-2021,2021.2.3,Win32,59.87665409,5cfdbf81f8ff8a00157310e0,61ad71e11ddd29ccf7a27d5b,61ad72130e928d771ea13c22,,,59,-86,1,0,0,response3disk,2.0067,-1,-2,1,0,0,rectangle,-1,-2,1,0,0,-1,-3,"[104,45,151,89,48,128,62,129,35,39]",-1,-2,1,0,0,1,65,146,41,1,DarkBlue,DarkBlue.jpg,Purple,Purple.jpg,,
,,,,,,,,,,,,,,,,,,2,,,,,,,,,,,,,,,,,,,,,,,,,,,5cfdbf81f8ff8a00157310e0,001,2021-12-06_04h15.52.375,jm_natural_scene_simialrity_2-12-2021,2021.2.3,Win32,59.87665409,5cfdbf81f8ff8a00157310e0,61ad71e11ddd29ccf7a27d5b,61ad72130e928d771ea13c22,,,83,-39,1,0,0,response3disk,1.1768,4,-5,1,0,0,rectangle,4,-5,1,0,0,-1,1,"[104,45,151,89,48,128,62,129,35,39]",4,-5,1,0,0,1,66,147,38,1,LightBlue,LightBlue.jpg,Purple,Purple.jpg,,
,,,,,,,,,,,,,,,,,,2,,,,,,,,,,,,,,,,,,,,,,,,,,,5cfdbf81f8ff8a00157310e0,001,2021-12-06_04h15.52.375,jm_natural_scene_simialrity_2-12-2021,2021.2.3,Win32,59.87665409,5cfdbf81f8ff8a00157310e0,61ad71e11ddd29ccf7a27d5b,61ad72130e928d771ea13c22,,,94,-48,1,0,0,response3disk,2.6541,-5,1,1,0,0,rectangle,-5,1,1,0,0,-1,-1,"[104,45,151,89,48,128,62,129,35,39]",-5,1,1,0,0,1,67,148,1,1,Red,Red.jpg,Yellow,Yellow.jpg,,
,,,,,,,,,,,,,,,,,,4,,,,,,,,,,,,,,,,,,,,,,,,,,,5cfdbf81f8ff8a00157310e0,001,2021-12-06_04h15.52.375,jm_natural_scene_simialrity_2-12-2021,2021.2.3,Win32,59.87665409,5cfdbf81f8ff8a00157310e0,61ad71e11ddd29ccf7a27d5b,61ad72130e928d771ea13c22,,,50,107,1,0,0,response1disk,0.9035,-11,5,1,0,0,rectangle,-11,5,1,0,0,-1,-2,"[104,45,151,89,48,128,62,129,35,39]",-11,5,1,0,0,1,68,149,24,1,DarkGreen,DarkGreen.jpg,DarkGreen,DarkGreen.jpg,,
,,,,,,,,,,,,,,,,,,-2,,,,,,,,,,,,,,,,,,,,,,,,,,,5cfdbf81f8ff8a00157310e0,001,2021-12-06_04h15.52.375,jm_natural_scene_simialrity_2-12-2021,2021.2.3,Win32,59.87665409,5cfdbf81f8ff8a00157310e0,61ad71e11ddd29ccf7a27d5b,61ad72130e928d771ea13c22,,,-102,-39,1,0,0,response5disk,1.0652,-9,-3,1,0,0,rectangle,55,-115,1,0,0,1,1,"[104,45,151,89,48,128,62,129,35,39]",-8,-1,1,0,0,1,69,150,52,1,Purple,Purple.jpg,Red,Red.jpg,response3disk_3,rectangle
,,,,,,,,,,,,,,,,,,-1,,,,,,,,,,,,,,,,,,,,,,,,,,,5cfdbf81f8ff8a00157310e0,001,2021-12-06_04h15.52.375,jm_natural_scene_simialrity_2-12-2021,2021.2.3,Win32,59.87665409,5cfdbf81f8ff8a00157310e0,61ad71e11ddd29ccf7a27d5b,61ad72130e928d771ea13c22,,,-60,-97,1,0,0,response5disk,5.7884,2,-1,1,0,0,rectangle,2,-1,1,0,0,1,2,"[104,45,151,89,48,128,62,129,35,39]",2,-1,1,0,0,1,70,151,21,1,LightGreen,LightGreen.jpg,DarkBlue,DarkBlue.jpg,,
,,,,,,,,,,,,,,,,,,-3,,,,,,,,,,,,,,,,,,,,,,,,,,,5cfdbf81f8ff8a00157310e0,001,2021-12-06_04h15.52.375,jm_natural_scene_simialrity_2-12-2021,2021.2.3,Win32,59.87665409,5cfdbf81f8ff8a00157310e0,61ad71e11ddd29ccf7a27d5b,61ad72130e928d771ea13c22,,,-87,41,1,0,0,response7disk,1.3719,7,-14,1,0,0,rectangle,7,-14,1,0,0,1,-3,"[104,45,151,89,48,128,62,129,35,39]",7,-14,1,0,0,1,71,152,46,1,LightGreen,LightGreen.jpg,Red,Red.jpg,,
,,,,,,,,,,,,,,,,,,2,,,,,,,,,,,,,,,,,,,,,,,,,,,5cfdbf81f8ff8a00157310e0,001,2021-12-06_04h15.52.375,jm_natural_scene_simialrity_2-12-2021,2021.2.3,Win32,59.87665409,5cfdbf81f8ff8a00157310e0,61ad71e11ddd29ccf7a27d5b,61ad72130e928d771ea13c22,,,93,-44,1,0,0,response3disk,1.4383,-11,6,1,0,0,rectangle,-11,6,1,0,0,1,-3,"[104,45,151,89,48,128,62,129,35,39]",-11,6,1,0,0,1,72,153,71,1,LightBlue,LightBlue.jpg,Turquiose,Turquiose.jpg,,
,,,,,,,,,,,,,,,,,,-3,,,,,,,,,,,,,,,,,,,,,,,,,,,5cfdbf81f8ff8a00157310e0,001,2021-12-06_04h15.52.375,jm_natural_scene_simialrity_2-12-2021,2021.2.3,Win32,59.87665409,5cfdbf81f8ff8a00157310e0,61ad71e11ddd29ccf7a27d5b,61ad72130e928d771ea13c22,,,-116,65,1,0,0,response7disk,0.9313,-14,-5,1,0,0,rectangle,-14,-5,1,0,0,1,2,"[104,45,151,89,48,128,62,129,35,39]",-14,-5,1,0,0,1,73,154,22,1,LightGreen,LightGreen.jpg,Pink,Pink.jpg,,
,,,,,,,,,,,,,,,,,,4,,,,,,,,,,,,,,,,,,,,,,,,,,,5cfdbf81f8ff8a00157310e0,001,2021-12-06_04h15.52.375,jm_natural_scene_simialrity_2-12-2021,2021.2.3,Win32,59.87665409,5cfdbf81f8ff8a00157310e0,61ad71e11ddd29ccf7a27d5b,61ad72130e928d771ea13c22,,,35,102,1,0,0,response1disk,1.021,8,18,1,0,0,rectangle,8,18,1,0,0,1,3,"[104,45,151,89,48,128,62,129,35,39]",8,18,1,0,0,1,74,155,39,1,DarkBlue,DarkBlue.jpg,DarkBlue,DarkBlue.jpg,,
,,,,,,,,,,,,,,,,,,-3,,,,,,,,,,,,,,,,,,,,,,,,,,,5cfdbf81f8ff8a00157310e0,001,2021-12-06_04h15.52.375,jm_natural_scene_simialrity_2-12-2021,2021.2.3,Win32,59.87665409,5cfdbf81f8ff8a00157310e0,61ad71e11ddd29ccf7a27d5b,61ad72130e928d771ea13c22,,,-85,53,1,0,0,response7disk,1.121,-2,9,1,0,0,rectangle,-2,9,1,0,0,1,3,"[104,45,151,89,48,128,62,129,35,39]",-2,9,1,0,0,1,75,156,50,1,DarkBlue,DarkBlue.jpg,Red,Red.jpg,,
,,,,,,,,,,,,,,,,,,-4,,,,,,,,,,,,,,,,,,,,,,,,,,,5cfdbf81f8ff8a00157310e0,001,2021-12-06_04h15.52.375,jm_natural_scene_simialrity_2-12-2021,2021.2.3,Win32,59.87665409,5cfdbf81f8ff8a00157310e0,61ad71e11ddd29ccf7a27d5b,61ad72130e928d771ea13c22,,,-73,113,1,0,0,response7disk,1.4549,-7,11,1,0,0,rectangle,-7,11,1,0,0,1,-2,"[104,45,151,89,48,128,62,129,35,39]",-7,11,1,0,0,1,76,157,2,1,Red,Red.jpg,LightGreen,LightGreen.jpg,,
,,,,,,,,,,,,,,,,,,4,,,,,,,,,,,,,,,,,,,,,,,,,,,5cfdbf81f8ff8a00157310e0,001,2021-12-06_04h15.52.375,jm_natural_scene_simialrity_2-12-2021,2021.2.3,Win32,59.87665409,5cfdbf81f8ff8a00157310e0,61ad71e11ddd29ccf7a27d5b,61ad72130e928d771ea13c22,,,62,117,1,0,0,response1disk,0.9072,2,16,1,0,0,rectangle,2,16,1,0,0,1,2,"[104,45,151,89,48,128,62,129,35,39]",2,16,1,0,0,1,77,158,44,1,Purple,Purple.jpg,Purple,Purple.jpg,,
,,,,,,,,,,,,,,,,,,4,,,,,,,,,,,,,,,,,,,,,,,,,,,5cfdbf81f8ff8a00157310e0,001,2021-12-06_04h15.52.375,jm_natural_scene_simialrity_2-12-2021,2021.2.3,Win32,59.87665409,5cfdbf81f8ff8a00157310e0,61ad71e11ddd29ccf7a27d5b,61ad72130e928d771ea13c22,,,63,111,1,0,0,response1disk,0.7471,9,1,1,0,0,rectangle,9,1,1,0,0,1,-4,"[104,45,151,89,48,128,62,129,35,39]",9,1,1,0,0,1,78,159,30,1,Turquiose,Turquiose.jpg,Turquiose,Turquiose.jpg,,
,,,,,,,,,,,,,,,,,,-2,,,,,,,,,,,,,,,,,,,,,,,,,,,5cfdbf81f8ff8a00157310e0,001,2021-12-06_04h15.52.375,jm_natural_scene_simialrity_2-12-2021,2021.2.3,Win32,59.87665409,5cfdbf81f8ff8a00157310e0,61ad71e11ddd29ccf7a27d5b,61ad72130e928d771ea13c22,,,-89,-23,1,0,0,response5disk,1.421,-6,-9,1,0,0,rectangle,-6,-9,1,0,0,1,-3,"[104,45,151,89,48,128,62,129,35,39]",-6,-9,1,0,0,1,79,160,79,1,Purple,Purple.jpg,DarkBlue,DarkBlue.jpg,,
,,,,,,,,,,,,,,,,,,4,,,,,,,,,,,,,,,,,,,,,,,,,,,5cfdbf81f8ff8a00157310e0,001,2021-12-06_04h15.52.375,jm_natural_scene_simialrity_2-12-2021,2021.2.3,Win32,59.87665409,5cfdbf81f8ff8a00157310e0,61ad71e11ddd29ccf7a27d5b,61ad72130e928d771ea13c22,,,46,111,1,0,0,response1disk,0.8307,7,10,1,0,0,rectangle,7,10,1,0,0,1,2,"[104,45,151,89,48,128,62,129,35,39]",7,10,1,0,0,1,80,161,9,1,Yellow,Yellow.jpg,Yellow,Yellow.jpg,,
