key_resp.keys,key_resp.rt,key_resp_16.keys,key_resp_16.rt,key_resp_2.keys,key_resp_2.rt,key_resp_3.keys,key_resp_3.rt,key_resp_19.keys,key_resp_19.rt,key_resp_10.keys,key_resp_10.rt,mouse_prac.x,mouse_prac.y,mouse_prac.leftButton,mouse_prac.midButton,mouse_prac.rightButton,mouse_prac.clicked_name,similarity,mouse_10.x,mouse_10.y,mouse_10.leftButton,mouse_10.midButton,mouse_10.rightButton,mouse_10.clicked_name,mouse_catch_prac.x,mouse_catch_prac.y,mouse_catch_prac.leftButton,mouse_catch_prac.midButton,mouse_catch_prac.rightButton,mouse_catch_prac.clicked_name,catchprac,catchnumberprac,mouse_6.x,mouse_6.y,mouse_6.leftButton,mouse_6.midButton,mouse_6.rightButton,mouse_6.clicked_name,during_prac.thisRepN,during_prac.thisTrialN,during_prac.thisN,during_prac.thisIndex,during_prac.ran,trailimage1,trial1adress,trailimage2,trial2adress,participant,session,date,expName,psychopyVersion,OS,frameRate,PROLIFIC_PID,STUDY_ID,SESSION_ID,key_resp_22.keys,key_resp_22.rt,mouse.x,mouse.y,mouse.leftButton,mouse.midButton,mouse.rightButton,mouse.clicked_name,response_time,mouse_2.x,mouse_2.y,mouse_2.leftButton,mouse_2.midButton,mouse_2.rightButton,mouse_2.clicked_name,mouse_3.x,mouse_3.y,mouse_3.leftButton,mouse_3.midButton,mouse_3.rightButton,catchresponse,catchnumber,catchtrialorder,mouse_11.x,mouse_11.y,mouse_11.leftButton,mouse_11.midButton,mouse_11.rightButton,trials_2.thisRepN,trials_2.thisTrialN,trials_2.thisN,trials_2.thisIndex,trials_2.ran,image1,image1adress,image2,image2adress,mouse_3.clicked_name,mouse_11.clicked_name
space,2.669,space,44.8204,space,6.0974,space,13.4243,space,27.6248,space,13.5639,120,37,1,0,0,response1disk_5,3,-6,2,1,0,0,rectangle_8,74,-104,1,0,0,response3disk_7,1,1,-12,4,1,0,0,rectangle_4,0,0,0,1,1,trail1,trail1.jpg,trail2,trail2.jpg,5f2bfa55937b6c0143766367,001,2021-12-06_03h17.57.310,jm_natural_scene_simialrity_2-12-2021,2021.2.3,Win32,144.0714594,5f2bfa55937b6c0143766367,61ad71e11ddd29ccf7a27d5b,61ad72b8676854484eba5da1,,,,,,,,,,,,,,,,,,,,,,,,,,,,,,,,,,,,,,,
,,,,,,,,,,,,-83,-43,1,0,0,response5disk_5,-2,0,-2,1,0,0,rectangle_8,0,-2,1,0,0,,,1,0,-2,1,0,0,,0,1,1,4,1,trail2,trail2.jpg,trail3,trail3.jpg,5f2bfa55937b6c0143766367,001,2021-12-06_03h17.57.310,jm_natural_scene_simialrity_2-12-2021,2021.2.3,Win32,144.0714594,5f2bfa55937b6c0143766367,61ad71e11ddd29ccf7a27d5b,61ad72b8676854484eba5da1,,,,,,,,,,,,,,,,,,,,,,,,,,,,,,,,,,,,,,,
,,,,,,,,,,,,58,86,1,0,0,response1disk_5,4,1,15,1,0,0,rectangle_8,49,-76,1,0,0,response3disk_7,1,1,7,2,1,0,0,rectangle_4,0,2,2,5,1,trail3,trail3.jpg,trail3,trail3.jpg,5f2bfa55937b6c0143766367,001,2021-12-06_03h17.57.310,jm_natural_scene_simialrity_2-12-2021,2021.2.3,Win32,144.0714594,5f2bfa55937b6c0143766367,61ad71e11ddd29ccf7a27d5b,61ad72b8676854484eba5da1,,,,,,,,,,,,,,,,,,,,,,,,,,,,,,,,,,,,,,,
,,,,,,,,,,,,30,109,1,0,0,response1disk_5,4,4,-3,1,0,0,rectangle_8,4,-3,1,0,0,,,1,4,-3,1,0,0,,0,3,3,3,1,trail2,trail2.jpg,trail2,trail2.jpg,5f2bfa55937b6c0143766367,001,2021-12-06_03h17.57.310,jm_natural_scene_simialrity_2-12-2021,2021.2.3,Win32,144.0714594,5f2bfa55937b6c0143766367,61ad71e11ddd29ccf7a27d5b,61ad72b8676854484eba5da1,,,,,,,,,,,,,,,,,,,,,,,,,,,,,,,,,,,,,,,
,,,,,,,,,,,,63,-26,1,0,0,response3disk_5,2,-12,0,1,0,0,rectangle_8,-12,0,1,0,0,,,1,-12,0,1,0,0,,0,4,4,2,1,trail1,trail1.jpg,trail3,trail3.jpg,5f2bfa55937b6c0143766367,001,2021-12-06_03h17.57.310,jm_natural_scene_simialrity_2-12-2021,2021.2.3,Win32,144.0714594,5f2bfa55937b6c0143766367,61ad71e11ddd29ccf7a27d5b,61ad72b8676854484eba5da1,,,,,,,,,,,,,,,,,,,,,,,,,,,,,,,,,,,,,,,
,,,,,,,,,,,,34,89,1,0,0,response1disk_5,4,-8,12,1,0,0,rectangle_8,-8,12,1,0,0,,,1,-8,12,1,0,0,,0,5,5,0,1,trail1,trail1.jpg,trail1,trail1.jpg,5f2bfa55937b6c0143766367,001,2021-12-06_03h17.57.310,jm_natural_scene_simialrity_2-12-2021,2021.2.3,Win32,144.0714594,5f2bfa55937b6c0143766367,61ad71e11ddd29ccf7a27d5b,61ad72b8676854484eba5da1,,,,,,,,,,,,,,,,,,,,,,,,,,,,,,,,,,,,,,,
,,,,,,,,,,,,,,,,,,4,,,,,,,,,,,,,,,,,,,,,,,,,,,,,,5f2bfa55937b6c0143766367,001,2021-12-06_03h17.57.310,jm_natural_scene_simialrity_2-12-2021,2021.2.3,Win32,144.0714594,5f2bfa55937b6c0143766367,61ad71e11ddd29ccf7a27d5b,61ad72b8676854484eba5da1,space,6.0155,25,98,1,0,0,response1disk,0.8126,-6,0,1,0,0,rectangle,-6,0,1,0,0,,2,"[100,135,107,116,127,105,85,86,21,114]",-6,0,1,0,0,0,0,0,44,1,Purple,Purple.jpg,Purple,Purple.jpg,,
,,,,,,,,,,,,,,,,,,-2,,,,,,,,,,,,,,,,,,,,,,,,,,,,,,5f2bfa55937b6c0143766367,001,2021-12-06_03h17.57.310,jm_natural_scene_simialrity_2-12-2021,2021.2.3,Win32,144.0714594,5f2bfa55937b6c0143766367,61ad71e11ddd29ccf7a27d5b,61ad72b8676854484eba5da1,,,-49,-27,1,0,0,response5disk,3.1875,-3,8,1,0,0,rectangle,-3,8,1,0,0,,-4,"[100,135,107,116,127,105,85,86,21,114]",-3,8,1,0,0,0,1,1,28,1,DarkGreen,DarkGreen.jpg,Pink,Pink.jpg,,
,,,,,,,,,,,,,,,,,,3,,,,,,,,,,,,,,,,,,,,,,,,,,,,,,5f2bfa55937b6c0143766367,001,2021-12-06_03h17.57.310,jm_natural_scene_simialrity_2-12-2021,2021.2.3,Win32,144.0714594,5f2bfa55937b6c0143766367,61ad71e11ddd29ccf7a27d5b,61ad72b8676854484eba5da1,,,87,32,1,0,0,response1disk,3.5489,-2,4,1,0,0,rectangle,-2,4,1,0,0,,-3,"[100,135,107,116,127,105,85,86,21,114]",-2,4,1,0,0,0,2,2,15,1,Yellow,Yellow.jpg,Pink,Pink.jpg,,
,,,,,,,,,,,,,,,,,,-3,,,,,,,,,,,,,,,,,,,,,,,,,,,,,,5f2bfa55937b6c0143766367,001,2021-12-06_03h17.57.310,jm_natural_scene_simialrity_2-12-2021,2021.2.3,Win32,144.0714594,5f2bfa55937b6c0143766367,61ad71e11ddd29ccf7a27d5b,61ad72b8676854484eba5da1,,,-73,48,1,0,0,response7disk,1.771,10,-10,1,0,0,rectangle,10,-10,1,0,0,,1,"[100,135,107,116,127,105,85,86,21,114]",10,-10,1,0,0,0,3,3,43,1,Pink,Pink.jpg,Purple,Purple.jpg,,
,,,,,,,,,,,,,,,,,,-4,,,,,,,,,,,,,,,,,,,,,,,,,,,,,,5f2bfa55937b6c0143766367,001,2021-12-06_03h17.57.310,jm_natural_scene_simialrity_2-12-2021,2021.2.3,Win32,144.0714594,5f2bfa55937b6c0143766367,61ad71e11ddd29ccf7a27d5b,61ad72b8676854484eba5da1,,,-45,117,1,0,0,response7disk,1.278,-3,7,1,0,0,rectangle,-3,7,1,0,0,,2,"[100,135,107,116,127,105,85,86,21,114]",-3,7,1,0,0,0,4,4,22,1,LightGreen,LightGreen.jpg,Pink,Pink.jpg,,
,,,,,,,,,,,,,,,,,,-3,,,,,,,,,,,,,,,,,,,,,,,,,,,,,,5f2bfa55937b6c0143766367,001,2021-12-06_03h17.57.310,jm_natural_scene_simialrity_2-12-2021,2021.2.3,Win32,144.0714594,5f2bfa55937b6c0143766367,61ad71e11ddd29ccf7a27d5b,61ad72b8676854484eba5da1,,,-73,38,1,0,0,response7disk,1.382,-4,9,1,0,0,rectangle,-4,9,1,0,0,,-4,"[100,135,107,116,127,105,85,86,21,114]",-4,9,1,0,0,0,5,5,50,1,DarkBlue,DarkBlue.jpg,Red,Red.jpg,,
,,,,,,,,,,,,,,,,,,1,,,,,,,,,,,,,,,,,,,,,,,,,,,,,,5f2bfa55937b6c0143766367,001,2021-12-06_03h17.57.310,jm_natural_scene_simialrity_2-12-2021,2021.2.3,Win32,144.0714594,5f2bfa55937b6c0143766367,61ad71e11ddd29ccf7a27d5b,61ad72b8676854484eba5da1,,,25,-59,1,0,0,response3disk,2.2016,0,-3,1,0,0,rectangle,0,-3,1,0,0,,3,"[100,135,107,116,127,105,85,86,21,114]",0,-3,1,0,0,0,6,6,75,1,DarkBlue,DarkBlue.jpg,LightBlue,LightBlue.jpg,,
,,,,,,,,,,,,,,,,,,2,,,,,,,,,,,,,,,,,,,,,,,,,,,,,,5f2bfa55937b6c0143766367,001,2021-12-06_03h17.57.310,jm_natural_scene_simialrity_2-12-2021,2021.2.3,Win32,144.0714594,5f2bfa55937b6c0143766367,61ad71e11ddd29ccf7a27d5b,61ad72b8676854484eba5da1,,,64,-55,1,0,0,response3disk,4.7159,-1,-1,1,0,0,rectangle,-1,-1,1,0,0,,-1,"[100,135,107,116,127,105,85,86,21,114]",-1,-1,1,0,0,0,7,7,66,1,Turquiose,Turquiose.jpg,DarkGreen,DarkGreen.jpg,,
,,,,,,,,,,,,,,,,,,-4,,,,,,,,,,,,,,,,,,,,,,,,,,,,,,5f2bfa55937b6c0143766367,001,2021-12-06_03h17.57.310,jm_natural_scene_simialrity_2-12-2021,2021.2.3,Win32,144.0714594,5f2bfa55937b6c0143766367,61ad71e11ddd29ccf7a27d5b,61ad72b8676854484eba5da1,,,-45,97,1,0,0,response7disk,1.4444,-2,-9,1,0,0,rectangle,-2,-9,1,0,0,,-1,"[100,135,107,116,127,105,85,86,21,114]",-2,-9,1,0,0,0,8,8,49,1,LightBlue,LightBlue.jpg,Red,Red.jpg,,
,,,,,,,,,,,,,,,,,,4,,,,,,,,,,,,,,,,,,,,,,,,,,,,,,5f2bfa55937b6c0143766367,001,2021-12-06_03h17.57.310,jm_natural_scene_simialrity_2-12-2021,2021.2.3,Win32,144.0714594,5f2bfa55937b6c0143766367,61ad71e11ddd29ccf7a27d5b,61ad72b8676854484eba5da1,,,57,133,1,0,0,response1disk,0.6944,-13,7,1,0,0,rectangle,-13,7,1,0,0,,-1,"[100,135,107,116,127,105,85,86,21,114]",-13,7,1,0,0,0,9,9,9,1,Yellow,Yellow.jpg,Yellow,Yellow.jpg,,
,,,,,,,,,,,,,,,,,,-1,,,,,,,,,,,,,,,,,,,,,,,,,,,,,,5f2bfa55937b6c0143766367,001,2021-12-06_03h17.57.310,jm_natural_scene_simialrity_2-12-2021,2021.2.3,Win32,144.0714594,5f2bfa55937b6c0143766367,61ad71e11ddd29ccf7a27d5b,61ad72b8676854484eba5da1,,,-20,-70,1,0,0,response5disk,4.3057,8,1,1,0,0,rectangle,8,1,1,0,0,,3,"[100,135,107,116,127,105,85,86,21,114]",8,1,1,0,0,0,10,10,77,1,Purple,Purple.jpg,LightBlue,LightBlue.jpg,,
,,,,,,,,,,,,,,,,,,-4,,,,,,,,,,,,,,,,,,,,,,,,,,,,,,5f2bfa55937b6c0143766367,001,2021-12-06_03h17.57.310,jm_natural_scene_simialrity_2-12-2021,2021.2.3,Win32,144.0714594,5f2bfa55937b6c0143766367,61ad71e11ddd29ccf7a27d5b,61ad72b8676854484eba5da1,,,-47,110,1,0,0,response7disk,1.2153,5,4,1,0,0,rectangle,5,4,1,0,0,,-4,"[100,135,107,116,127,105,85,86,21,114]",5,4,1,0,0,0,11,11,54,1,DarkGreen,DarkGreen.jpg,Yellow,Yellow.jpg,,
,,,,,,,,,,,,,,,,,,4,,,,,,,,,,,,,,,,,,,,,,,,,,,,,,5f2bfa55937b6c0143766367,001,2021-12-06_03h17.57.310,jm_natural_scene_simialrity_2-12-2021,2021.2.3,Win32,144.0714594,5f2bfa55937b6c0143766367,61ad71e11ddd29ccf7a27d5b,61ad72b8676854484eba5da1,,,43,88,1,0,0,response1disk,0.6806,2,7,1,0,0,rectangle,2,7,1,0,0,,-1,"[100,135,107,116,127,105,85,86,21,114]",2,7,1,0,0,0,12,12,24,1,DarkGreen,DarkGreen.jpg,DarkGreen,DarkGreen.jpg,,
,,,,,,,,,,,,,,,,,,1,,,,,,,,,,,,,,,,,,,,,,,,,,,,,,5f2bfa55937b6c0143766367,001,2021-12-06_03h17.57.310,jm_natural_scene_simialrity_2-12-2021,2021.2.3,Win32,144.0714594,5f2bfa55937b6c0143766367,61ad71e11ddd29ccf7a27d5b,61ad72b8676854484eba5da1,,,25,-47,1,0,0,response3disk,3.563,7,1,1,0,0,rectangle,7,1,1,0,0,,-2,"[100,135,107,116,127,105,85,86,21,114]",7,1,1,0,0,0,13,13,63,1,DarkBlue,DarkBlue.jpg,LightGreen,LightGreen.jpg,,
,,,,,,,,,,,,,,,,,,2,,,,,,,,,,,,,,,,,,,,,,,,,,,,,,5f2bfa55937b6c0143766367,001,2021-12-06_03h17.57.310,jm_natural_scene_simialrity_2-12-2021,2021.2.3,Win32,144.0714594,5f2bfa55937b6c0143766367,61ad71e11ddd29ccf7a27d5b,61ad72b8676854484eba5da1,,,61,-49,1,0,0,response3disk,2.3606,-2,4,1,0,0,rectangle,-2,4,1,0,0,,-3,"[100,135,107,116,127,105,85,86,21,114]",-2,4,1,0,0,0,14,14,25,1,DarkGreen,DarkGreen.jpg,Turquiose,Turquiose.jpg,,
,,,,,,,,,,,,,,,,,,-4,,,,,,,,,,,,,,,,,,,,,,,,,,,,,,5f2bfa55937b6c0143766367,001,2021-12-06_03h17.57.310,jm_natural_scene_simialrity_2-12-2021,2021.2.3,Win32,144.0714594,5f2bfa55937b6c0143766367,61ad71e11ddd29ccf7a27d5b,61ad72b8676854484eba5da1,,,-52,101,1,0,0,response7disk,1.5414,5,5,1,0,0,rectangle,5,5,1,0,0,,1,"[100,135,107,116,127,105,85,86,21,114]",5,5,1,0,0,0,15,15,78,1,Pink,Pink.jpg,DarkBlue,DarkBlue.jpg,,
,,,,,,,,,,,,,,,,,,2,,,,,,,,,,,,,,,,,,,,,,,,,,,,,,5f2bfa55937b6c0143766367,001,2021-12-06_03h17.57.310,jm_natural_scene_simialrity_2-12-2021,2021.2.3,Win32,144.0714594,5f2bfa55937b6c0143766367,61ad71e11ddd29ccf7a27d5b,61ad72b8676854484eba5da1,,,57,-38,1,0,0,response3disk,4.9033,0,-3,1,0,0,rectangle,0,-3,1,0,0,,3,"[100,135,107,116,127,105,85,86,21,114]",0,-3,1,0,0,0,16,16,19,1,LightGreen,LightGreen.jpg,Turquiose,Turquiose.jpg,,
,,,,,,,,,,,,,,,,,,3,,,,,,,,,,,,,,,,,,,,,,,,,,,,,,5f2bfa55937b6c0143766367,001,2021-12-06_03h17.57.310,jm_natural_scene_simialrity_2-12-2021,2021.2.3,Win32,144.0714594,5f2bfa55937b6c0143766367,61ad71e11ddd29ccf7a27d5b,61ad72b8676854484eba5da1,,,97,41,1,0,0,response1disk,2.3613,3,-5,1,0,0,rectangle,3,-5,1,0,0,,2,"[100,135,107,116,127,105,85,86,21,114]",3,-5,1,0,0,0,17,17,58,1,Pink,Pink.jpg,Yellow,Yellow.jpg,,
,,,,,,,,,,,,,,,,,,-2,,,,,,,,,,,,,,,,,,,,,,,,,,,,,,5f2bfa55937b6c0143766367,001,2021-12-06_03h17.57.310,jm_natural_scene_simialrity_2-12-2021,2021.2.3,Win32,144.0714594,5f2bfa55937b6c0143766367,61ad71e11ddd29ccf7a27d5b,61ad72b8676854484eba5da1,,,-53,-29,1,0,0,response5disk,2.1528,17,2,1,0,0,rectangle,17,2,1,0,0,,2,"[100,135,107,116,127,105,85,86,21,114]",17,2,1,0,0,0,18,18,70,1,Purple,Purple.jpg,DarkGreen,DarkGreen.jpg,,
,,,,,,,,,,,,,,,,,,4,,,,,,,,,,,,,,,,,,,,,,,,,,,,,,5f2bfa55937b6c0143766367,001,2021-12-06_03h17.57.310,jm_natural_scene_simialrity_2-12-2021,2021.2.3,Win32,144.0714594,5f2bfa55937b6c0143766367,61ad71e11ddd29ccf7a27d5b,61ad72b8676854484eba5da1,,,26,64,1,0,0,response1disk,0.8746,-4,-1,1,0,0,rectangle,-4,-1,1,0,0,,-4,"[100,135,107,116,127,105,85,86,21,114]",-4,-1,1,0,0,0,19,19,0,1,Red,Red.jpg,Red,Red.jpg,,
,,,,,,,,,,,,,,,,,,-3,,,,,,,,,,,,,,,,,,,,,,,,,,,,,,5f2bfa55937b6c0143766367,001,2021-12-06_03h17.57.310,jm_natural_scene_simialrity_2-12-2021,2021.2.3,Win32,144.0714594,5f2bfa55937b6c0143766367,61ad71e11ddd29ccf7a27d5b,61ad72b8676854484eba5da1,,,-82,30,1,0,0,response7disk,1.3891,7,11,1,0,0,rectangle,-51,-103,1,0,0,-1,-1,"[100,135,107,116,127,105,85,86,21,114]",15,-4,1,0,0,0,20,20,33,1,Turquiose,Turquiose.jpg,Pink,Pink.jpg,response5disk_3,rectangle
,,,,,,,,,,,,,,,,,,-3,,,,,,,,,,,,,,,,,,,,,,,,,,,,,,5f2bfa55937b6c0143766367,001,2021-12-06_03h17.57.310,jm_natural_scene_simialrity_2-12-2021,2021.2.3,Win32,144.0714594,5f2bfa55937b6c0143766367,61ad71e11ddd29ccf7a27d5b,61ad72b8676854484eba5da1,,,-92,70,1,0,0,response7disk,3.0906,4,-1,1,0,0,rectangle,4,-1,1,0,0,-1,2,"[100,135,107,116,127,105,85,86,21,114]",4,-1,1,0,0,0,21,21,76,1,Pink,Pink.jpg,LightBlue,LightBlue.jpg,,
,,,,,,,,,,,,,,,,,,-3,,,,,,,,,,,,,,,,,,,,,,,,,,,,,,5f2bfa55937b6c0143766367,001,2021-12-06_03h17.57.310,jm_natural_scene_simialrity_2-12-2021,2021.2.3,Win32,144.0714594,5f2bfa55937b6c0143766367,61ad71e11ddd29ccf7a27d5b,61ad72b8676854484eba5da1,,,-112,42,1,0,0,response7disk,1.5697,5,-19,1,0,0,rectangle,5,-19,1,0,0,-1,-2,"[100,135,107,116,127,105,85,86,21,114]",5,-19,1,0,0,0,22,22,12,1,Yellow,Yellow.jpg,Turquiose,Turquiose.jpg,,
,,,,,,,,,,,,,,,,,,1,,,,,,,,,,,,,,,,,,,,,,,,,,,,,,5f2bfa55937b6c0143766367,001,2021-12-06_03h17.57.310,jm_natural_scene_simialrity_2-12-2021,2021.2.3,Win32,144.0714594,5f2bfa55937b6c0143766367,61ad71e11ddd29ccf7a27d5b,61ad72b8676854484eba5da1,,,49,-66,1,0,0,response3disk,2.8264,-10,5,1,0,0,rectangle,-10,5,1,0,0,-1,2,"[100,135,107,116,127,105,85,86,21,114]",-10,5,1,0,0,0,23,23,8,1,Red,Red.jpg,Purple,Purple.jpg,,
,,,,,,,,,,,,,,,,,,4,,,,,,,,,,,,,,,,,,,,,,,,,,,,,,5f2bfa55937b6c0143766367,001,2021-12-06_03h17.57.310,jm_natural_scene_simialrity_2-12-2021,2021.2.3,Win32,144.0714594,5f2bfa55937b6c0143766367,61ad71e11ddd29ccf7a27d5b,61ad72b8676854484eba5da1,,,60,110,1,0,0,response1disk,0.8054,5,7,1,0,0,rectangle,5,7,1,0,0,-1,-3,"[100,135,107,116,127,105,85,86,21,114]",5,7,1,0,0,0,24,24,30,1,Turquiose,Turquiose.jpg,Turquiose,Turquiose.jpg,,
,,,,,,,,,,,,,,,,,,-1,,,,,,,,,,,,,,,,,,,,,,,,,,,,,,5f2bfa55937b6c0143766367,001,2021-12-06_03h17.57.310,jm_natural_scene_simialrity_2-12-2021,2021.2.3,Win32,144.0714594,5f2bfa55937b6c0143766367,61ad71e11ddd29ccf7a27d5b,61ad72b8676854484eba5da1,,,-33,-60,1,0,0,response5disk,2.0625,13,5,1,0,0,rectangle,13,5,1,0,0,-1,1,"[100,135,107,116,127,105,85,86,21,114]",13,5,1,0,0,0,25,25,34,1,Turquiose,Turquiose.jpg,Purple,Purple.jpg,,
,,,,,,,,,,,,,,,,,,2,,,,,,,,,,,,,,,,,,,,,,,,,,,,,,5f2bfa55937b6c0143766367,001,2021-12-06_03h17.57.310,jm_natural_scene_simialrity_2-12-2021,2021.2.3,Win32,144.0714594,5f2bfa55937b6c0143766367,61ad71e11ddd29ccf7a27d5b,61ad72b8676854484eba5da1,,,55,-39,1,0,0,response3disk,2.2433,4,8,1,0,0,rectangle,4,8,1,0,0,-1,2,"[100,135,107,116,127,105,85,86,21,114]",4,8,1,0,0,0,26,26,31,1,Turquiose,Turquiose.jpg,LightBlue,LightBlue.jpg,,
,,,,,,,,,,,,,,,,,,2,,,,,,,,,,,,,,,,,,,,,,,,,,,,,,5f2bfa55937b6c0143766367,001,2021-12-06_03h17.57.310,jm_natural_scene_simialrity_2-12-2021,2021.2.3,Win32,144.0714594,5f2bfa55937b6c0143766367,61ad71e11ddd29ccf7a27d5b,61ad72b8676854484eba5da1,,,60,-33,1,0,0,response3disk,1.7014,10,1,1,0,0,rectangle,10,1,1,0,0,-1,3,"[100,135,107,116,127,105,85,86,21,114]",10,1,1,0,0,0,27,27,68,1,DarkBlue,DarkBlue.jpg,DarkGreen,DarkGreen.jpg,,
,,,,,,,,,,,,,,,,,,4,,,,,,,,,,,,,,,,,,,,,,,,,,,,,,5f2bfa55937b6c0143766367,001,2021-12-06_03h17.57.310,jm_natural_scene_simialrity_2-12-2021,2021.2.3,Win32,144.0714594,5f2bfa55937b6c0143766367,61ad71e11ddd29ccf7a27d5b,61ad72b8676854484eba5da1,,,43,72,1,0,0,response1disk,1.1318,-7,2,1,0,0,rectangle,-7,2,1,0,0,-1,-2,"[100,135,107,116,127,105,85,86,21,114]",-7,2,1,0,0,0,28,28,7,1,Red,Red.jpg,Pink,Pink.jpg,,
,,,,,,,,,,,,,,,,,,-1,,,,,,,,,,,,,,,,,,,,,,,,,,,,,,5f2bfa55937b6c0143766367,001,2021-12-06_03h17.57.310,jm_natural_scene_simialrity_2-12-2021,2021.2.3,Win32,144.0714594,5f2bfa55937b6c0143766367,61ad71e11ddd29ccf7a27d5b,61ad72b8676854484eba5da1,,,-26,-44,1,0,0,response5disk,3.3058,15,8,1,0,0,rectangle,15,8,1,0,0,-1,-3,"[100,135,107,116,127,105,85,86,21,114]",15,8,1,0,0,0,29,29,29,1,DarkGreen,DarkGreen.jpg,Purple,Purple.jpg,,
,,,,,,,,,,,,,,,,,,3,,,,,,,,,,,,,,,,,,,,,,,,,,,,,,5f2bfa55937b6c0143766367,001,2021-12-06_03h17.57.310,jm_natural_scene_simialrity_2-12-2021,2021.2.3,Win32,144.0714594,5f2bfa55937b6c0143766367,61ad71e11ddd29ccf7a27d5b,61ad72b8676854484eba5da1,,,94,28,1,0,0,response1disk,2.139,-3,-3,1,0,0,rectangle,-3,-3,1,0,0,-1,2,"[100,135,107,116,127,105,85,86,21,114]",-3,-3,1,0,0,0,30,30,60,1,DarkGreen,DarkGreen.jpg,LightGreen,LightGreen.jpg,,
,,,,,,,,,,,,,,,,,,-3,,,,,,,,,,,,,,,,,,,,,,,,,,,,,,5f2bfa55937b6c0143766367,001,2021-12-06_03h17.57.310,jm_natural_scene_simialrity_2-12-2021,2021.2.3,Win32,144.0714594,5f2bfa55937b6c0143766367,61ad71e11ddd29ccf7a27d5b,61ad72b8676854484eba5da1,,,-110,74,1,0,0,response7disk,1.9099,-9,4,1,0,0,rectangle,-9,4,1,0,0,-1,-1,"[100,135,107,116,127,105,85,86,21,114]",-9,4,1,0,0,0,31,31,55,1,Turquiose,Turquiose.jpg,Yellow,Yellow.jpg,,
,,,,,,,,,,,,,,,,,,-3,,,,,,,,,,,,,,,,,,,,,,,,,,,,,,5f2bfa55937b6c0143766367,001,2021-12-06_03h17.57.310,jm_natural_scene_simialrity_2-12-2021,2021.2.3,Win32,144.0714594,5f2bfa55937b6c0143766367,61ad71e11ddd29ccf7a27d5b,61ad72b8676854484eba5da1,,,-79,48,1,0,0,response7disk,1.6317,-10,1,1,0,0,rectangle,-10,1,1,0,0,-1,-1,"[100,135,107,116,127,105,85,86,21,114]",-10,1,1,0,0,0,32,32,79,1,Purple,Purple.jpg,DarkBlue,DarkBlue.jpg,,
,,,,,,,,,,,,,,,,,,-3,,,,,,,,,,,,,,,,,,,,,,,,,,,,,,5f2bfa55937b6c0143766367,001,2021-12-06_03h17.57.310,jm_natural_scene_simialrity_2-12-2021,2021.2.3,Win32,144.0714594,5f2bfa55937b6c0143766367,61ad71e11ddd29ccf7a27d5b,61ad72b8676854484eba5da1,,,-64,41,1,0,0,response7disk,1.5487,-14,8,1,0,0,rectangle,-14,8,1,0,0,-1,3,"[100,135,107,116,127,105,85,86,21,114]",-14,8,1,0,0,0,33,33,3,1,Red,Red.jpg,DarkGreen,DarkGreen.jpg,,
,,,,,,,,,,,,,,,,,,-3,,,,,,,,,,,,,,,,,,,,,,,,,,,,,,5f2bfa55937b6c0143766367,001,2021-12-06_03h17.57.310,jm_natural_scene_simialrity_2-12-2021,2021.2.3,Win32,144.0714594,5f2bfa55937b6c0143766367,61ad71e11ddd29ccf7a27d5b,61ad72b8676854484eba5da1,,,-81,41,1,0,0,response7disk,1.1182,-19,8,1,0,0,rectangle,-19,8,1,0,0,-1,3,"[100,135,107,116,127,105,85,86,21,114]",-19,8,1,0,0,0,34,34,64,1,Pink,Pink.jpg,LightGreen,LightGreen.jpg,,
,,,,,,,,,,,,,,,,,,-3,,,,,,,,,,,,,,,,,,,,,,,,,,,,,,5f2bfa55937b6c0143766367,001,2021-12-06_03h17.57.310,jm_natural_scene_simialrity_2-12-2021,2021.2.3,Win32,144.0714594,5f2bfa55937b6c0143766367,61ad71e11ddd29ccf7a27d5b,61ad72b8676854484eba5da1,,,-65,44,1,0,0,response7disk,1.5278,-12,5,1,0,0,rectangle,-12,5,1,0,0,-1,-4,"[100,135,107,116,127,105,85,86,21,114]",-12,5,1,0,0,0,35,35,47,1,DarkGreen,DarkGreen.jpg,Red,Red.jpg,,
,,,,,,,,,,,,,,,,,,1,,,,,,,,,,,,,,,,,,,,,,,,,,,,,,5f2bfa55937b6c0143766367,001,2021-12-06_03h17.57.310,jm_natural_scene_simialrity_2-12-2021,2021.2.3,Win32,144.0714594,5f2bfa55937b6c0143766367,61ad71e11ddd29ccf7a27d5b,61ad72b8676854484eba5da1,,,37,-58,1,0,0,response3disk,1.8404,-6,7,1,0,0,rectangle,-6,7,1,0,0,-1,1,"[100,135,107,116,127,105,85,86,21,114]",-6,7,1,0,0,0,36,36,27,1,DarkGreen,DarkGreen.jpg,DarkBlue,DarkBlue.jpg,,
,,,,,,,,,,,,,,,,,,-3,,,,,,,,,,,,,,,,,,,,,,,,,,,,,,5f2bfa55937b6c0143766367,001,2021-12-06_03h17.57.310,jm_natural_scene_simialrity_2-12-2021,2021.2.3,Win32,144.0714594,5f2bfa55937b6c0143766367,61ad71e11ddd29ccf7a27d5b,61ad72b8676854484eba5da1,,,-63,29,1,0,0,response7disk,2.3822,-8,0,1,0,0,rectangle,-8,0,1,0,0,-1,-3,"[100,135,107,116,127,105,85,86,21,114]",-8,0,1,0,0,0,37,37,6,1,Red,Red.jpg,DarkBlue,DarkBlue.jpg,,
,,,,,,,,,,,,,,,,,,4,,,,,,,,,,,,,,,,,,,,,,,,,,,,,,5f2bfa55937b6c0143766367,001,2021-12-06_03h17.57.310,jm_natural_scene_simialrity_2-12-2021,2021.2.3,Win32,144.0714594,5f2bfa55937b6c0143766367,61ad71e11ddd29ccf7a27d5b,61ad72b8676854484eba5da1,,,28,80,1,0,0,response1disk,0.7076,0,7,1,0,0,rectangle,0,7,1,0,0,-1,-1,"[100,135,107,116,127,105,85,86,21,114]",0,7,1,0,0,0,38,38,35,1,LightBlue,LightBlue.jpg,LightBlue,LightBlue.jpg,,
,,,,,,,,,,,,,,,,,,4,,,,,,,,,,,,,,,,,,,,,,,,,,,,,,5f2bfa55937b6c0143766367,001,2021-12-06_03h17.57.310,jm_natural_scene_simialrity_2-12-2021,2021.2.3,Win32,144.0714594,5f2bfa55937b6c0143766367,61ad71e11ddd29ccf7a27d5b,61ad72b8676854484eba5da1,,,48,95,1,0,0,response1disk,0.7571,1,23,1,0,0,rectangle,1,23,1,0,0,-1,-3,"[100,135,107,116,127,105,85,86,21,114]",1,23,1,0,0,0,39,39,39,1,DarkBlue,DarkBlue.jpg,DarkBlue,DarkBlue.jpg,,
,,,,,,,,,,,,,,,,,,-3,,,,,,,,,,,,,,,,,,,,,,,,,,,,,,5f2bfa55937b6c0143766367,001,2021-12-06_03h17.57.310,jm_natural_scene_simialrity_2-12-2021,2021.2.3,Win32,144.0714594,5f2bfa55937b6c0143766367,61ad71e11ddd29ccf7a27d5b,61ad72b8676854484eba5da1,,,-83,38,1,0,0,response7disk,1.3612,-1,-6,1,0,0,rectangle,-1,-6,1,0,0,-1,1,"[100,135,107,116,127,105,85,86,21,114]",-1,-6,1,0,0,0,40,40,73,1,Pink,Pink.jpg,Turquiose,Turquiose.jpg,,
,,,,,,,,,,,,,,,,,,1,,,,,,,,,,,,,,,,,,,,,,,,,,,,,,5f2bfa55937b6c0143766367,001,2021-12-06_03h17.57.310,jm_natural_scene_simialrity_2-12-2021,2021.2.3,Win32,144.0714594,5f2bfa55937b6c0143766367,61ad71e11ddd29ccf7a27d5b,61ad72b8676854484eba5da1,,,33,-48,1,0,0,response3disk,1.5141,3,-7,1,0,0,rectangle,3,-7,1,0,0,-1,-3,"[100,135,107,116,127,105,85,86,21,114]",3,-7,1,0,0,0,41,41,23,1,LightGreen,LightGreen.jpg,Purple,Purple.jpg,,
,,,,,,,,,,,,,,,,,,3,,,,,,,,,,,,,,,,,,,,,,,,,,,,,,5f2bfa55937b6c0143766367,001,2021-12-06_03h17.57.310,jm_natural_scene_simialrity_2-12-2021,2021.2.3,Win32,144.0714594,5f2bfa55937b6c0143766367,61ad71e11ddd29ccf7a27d5b,61ad72b8676854484eba5da1,,,99,43,1,0,0,response1disk,1.0276,6,3,1,0,0,rectangle,6,3,1,0,0,-1,3,"[100,135,107,116,127,105,85,86,21,114]",6,3,1,0,0,0,42,42,18,1,LightGreen,LightGreen.jpg,DarkGreen,DarkGreen.jpg,,
,,,,,,,,,,,,,,,,,,-3,,,,,,,,,,,,,,,,,,,,,,,,,,,,,,5f2bfa55937b6c0143766367,001,2021-12-06_03h17.57.310,jm_natural_scene_simialrity_2-12-2021,2021.2.3,Win32,144.0714594,5f2bfa55937b6c0143766367,61ad71e11ddd29ccf7a27d5b,61ad72b8676854484eba5da1,,,-70,50,1,0,0,response7disk,1.0764,0,4,1,0,0,rectangle,0,4,1,0,0,-1,3,"[100,135,107,116,127,105,85,86,21,114]",0,4,1,0,0,0,43,43,10,1,Yellow,Yellow.jpg,LightGreen,LightGreen.jpg,,
,,,,,,,,,,,,,,,,,,3,,,,,,,,,,,,,,,,,,,,,,,,,,,,,,5f2bfa55937b6c0143766367,001,2021-12-06_03h17.57.310,jm_natural_scene_simialrity_2-12-2021,2021.2.3,Win32,144.0714594,5f2bfa55937b6c0143766367,61ad71e11ddd29ccf7a27d5b,61ad72b8676854484eba5da1,,,77,33,1,0,0,response1disk,1.2846,13,3,1,0,0,rectangle,13,3,1,0,0,-1,3,"[100,135,107,116,127,105,85,86,21,114]",13,3,1,0,0,0,44,44,45,1,Yellow,Yellow.jpg,Red,Red.jpg,,
,,,,,,,,,,,,,,,,,,-2,,,,,,,,,,,,,,,,,,,,,,,,,,,,,,5f2bfa55937b6c0143766367,001,2021-12-06_03h17.57.310,jm_natural_scene_simialrity_2-12-2021,2021.2.3,Win32,144.0714594,5f2bfa55937b6c0143766367,61ad71e11ddd29ccf7a27d5b,61ad72b8676854484eba5da1,,,-66,-31,1,0,0,response5disk,1.3408,6,15,1,0,0,rectangle,6,15,1,0,0,-1,1,"[100,135,107,116,127,105,85,86,21,114]",6,15,1,0,0,0,45,45,53,1,LightGreen,LightGreen.jpg,Yellow,Yellow.jpg,,
,,,,,,,,,,,,,,,,,,2,,,,,,,,,,,,,,,,,,,,,,,,,,,,,,5f2bfa55937b6c0143766367,001,2021-12-06_03h17.57.310,jm_natural_scene_simialrity_2-12-2021,2021.2.3,Win32,144.0714594,5f2bfa55937b6c0143766367,61ad71e11ddd29ccf7a27d5b,61ad72b8676854484eba5da1,,,112,-69,1,0,0,response3disk,2.6601,10,13,1,0,0,rectangle,10,13,1,0,0,-1,3,"[100,135,107,116,127,105,85,86,21,114]",10,13,1,0,0,0,46,46,38,1,LightBlue,LightBlue.jpg,Purple,Purple.jpg,,
,,,,,,,,,,,,,,,,,,-2,,,,,,,,,,,,,,,,,,,,,,,,,,,,,,5f2bfa55937b6c0143766367,001,2021-12-06_03h17.57.310,jm_natural_scene_simialrity_2-12-2021,2021.2.3,Win32,144.0714594,5f2bfa55937b6c0143766367,61ad71e11ddd29ccf7a27d5b,61ad72b8676854484eba5da1,,,-102,-50,1,0,0,response5disk,8.5703,-9,6,1,0,0,rectangle,-9,6,1,0,0,-1,2,"[100,135,107,116,127,105,85,86,21,114]",-9,6,1,0,0,0,47,47,5,1,Red,Red.jpg,LightBlue,LightBlue.jpg,,
,,,,,,,,,,,,,,,,,,1,,,,,,,,,,,,,,,,,,,,,,,,,,,,,,5f2bfa55937b6c0143766367,001,2021-12-06_03h17.57.310,jm_natural_scene_simialrity_2-12-2021,2021.2.3,Win32,144.0714594,5f2bfa55937b6c0143766367,61ad71e11ddd29ccf7a27d5b,61ad72b8676854484eba5da1,,,45,-78,1,0,0,response3disk,1.3263,-4,4,1,0,0,rectangle,-4,4,1,0,0,-1,1,"[100,135,107,116,127,105,85,86,21,114]",-4,4,1,0,0,0,48,48,20,1,LightGreen,LightGreen.jpg,LightBlue,LightBlue.jpg,,
,,,,,,,,,,,,,,,,,,1,,,,,,,,,,,,,,,,,,,,,,,,,,,,,,5f2bfa55937b6c0143766367,001,2021-12-06_03h17.57.310,jm_natural_scene_simialrity_2-12-2021,2021.2.3,Win32,144.0714594,5f2bfa55937b6c0143766367,61ad71e11ddd29ccf7a27d5b,61ad72b8676854484eba5da1,,,54,-76,1,0,0,response3disk,1.8404,3,-9,1,0,0,rectangle,3,-9,1,0,0,-1,1,"[100,135,107,116,127,105,85,86,21,114]",3,-9,1,0,0,0,49,49,61,1,Turquiose,Turquiose.jpg,LightGreen,LightGreen.jpg,,
,,,,,,,,,,,,,,,,,,1,,,,,,,,,,,,,,,,,,,,,,,,,,,,,,5f2bfa55937b6c0143766367,001,2021-12-06_03h17.57.310,jm_natural_scene_simialrity_2-12-2021,2021.2.3,Win32,144.0714594,5f2bfa55937b6c0143766367,61ad71e11ddd29ccf7a27d5b,61ad72b8676854484eba5da1,,,64,-81,1,0,0,response3disk,0.7359,-3,-1,1,0,0,rectangle,-3,-1,1,0,0,-1,-1,"[100,135,107,116,127,105,85,86,21,114]",-3,-1,1,0,0,0,50,50,72,1,DarkBlue,DarkBlue.jpg,Turquiose,Turquiose.jpg,,
,,,,,,,,,,,,,,,,,,-3,,,,,,,,,,,,,,,,,,,,,,,,,,,,,,5f2bfa55937b6c0143766367,001,2021-12-06_03h17.57.310,jm_natural_scene_simialrity_2-12-2021,2021.2.3,Win32,144.0714594,5f2bfa55937b6c0143766367,61ad71e11ddd29ccf7a27d5b,61ad72b8676854484eba5da1,,,-106,58,1,0,0,response7disk,1.229,-11,2,1,0,0,rectangle,-11,2,1,0,0,-1,-2,"[100,135,107,116,127,105,85,86,21,114]",-11,2,1,0,0,0,51,51,14,1,Yellow,Yellow.jpg,DarkBlue,DarkBlue.jpg,,
,,,,,,,,,,,,,,,,,,-1,,,,,,,,,,,,,,,,,,,,,,,,,,,,,,5f2bfa55937b6c0143766367,001,2021-12-06_03h17.57.310,jm_natural_scene_simialrity_2-12-2021,2021.2.3,Win32,144.0714594,5f2bfa55937b6c0143766367,61ad71e11ddd29ccf7a27d5b,61ad72b8676854484eba5da1,,,-37,-90,1,0,0,response5disk,1.6388,5,-8,1,0,0,rectangle,5,-8,1,0,0,-1,3,"[100,135,107,116,127,105,85,86,21,114]",5,-8,1,0,0,0,52,52,80,1,Purple,Purple.jpg,Pink,Pink.jpg,,
,,,,,,,,,,,,,,,,,,-3,,,,,,,,,,,,,,,,,,,,,,,,,,,,,,5f2bfa55937b6c0143766367,001,2021-12-06_03h17.57.310,jm_natural_scene_simialrity_2-12-2021,2021.2.3,Win32,144.0714594,5f2bfa55937b6c0143766367,61ad71e11ddd29ccf7a27d5b,61ad72b8676854484eba5da1,,,-64,40,1,0,0,response7disk,1.1597,-5,-7,1,0,0,rectangle,-5,-7,1,0,0,-1,-4,"[100,135,107,116,127,105,85,86,21,114]",-5,-7,1,0,0,0,53,53,16,1,Yellow,Yellow.jpg,Purple,Purple.jpg,,
,,,,,,,,,,,,,,,,,,1,,,,,,,,,,,,,,,,,,,,,,,,,,,,,,5f2bfa55937b6c0143766367,001,2021-12-06_03h17.57.310,jm_natural_scene_simialrity_2-12-2021,2021.2.3,Win32,144.0714594,5f2bfa55937b6c0143766367,61ad71e11ddd29ccf7a27d5b,61ad72b8676854484eba5da1,,,51,-69,1,0,0,response3disk,1.757,-5,-6,1,0,0,rectangle,-5,-6,1,0,0,-1,3,"[100,135,107,116,127,105,85,86,21,114]",-5,-6,1,0,0,0,54,54,71,1,LightBlue,LightBlue.jpg,Turquiose,Turquiose.jpg,,
,,,,,,,,,,,,,,,,,,3,,,,,,,,,,,,,,,,,,,,,,,,,,,,,,5f2bfa55937b6c0143766367,001,2021-12-06_03h17.57.310,jm_natural_scene_simialrity_2-12-2021,2021.2.3,Win32,144.0714594,5f2bfa55937b6c0143766367,61ad71e11ddd29ccf7a27d5b,61ad72b8676854484eba5da1,,,103,34,1,0,0,response1disk,1.0764,5,0,1,0,0,rectangle,5,0,1,0,0,-1,-2,"[100,135,107,116,127,105,85,86,21,114]",5,0,1,0,0,0,55,55,1,1,Red,Red.jpg,Yellow,Yellow.jpg,,
,,,,,,,,,,,,,,,,,,1,,,,,,,,,,,,,,,,,,,,,,,,,,,,,,5f2bfa55937b6c0143766367,001,2021-12-06_03h17.57.310,jm_natural_scene_simialrity_2-12-2021,2021.2.3,Win32,144.0714594,5f2bfa55937b6c0143766367,61ad71e11ddd29ccf7a27d5b,61ad72b8676854484eba5da1,,,34,-59,1,0,0,response3disk,1.4932,-14,-5,1,0,0,rectangle,-14,-5,1,0,0,-1,3,"[100,135,107,116,127,105,85,86,21,114]",-14,-5,1,0,0,0,56,56,59,1,Purple,Purple.jpg,Yellow,Yellow.jpg,,
,,,,,,,,,,,,,,,,,,3,,,,,,,,,,,,,,,,,,,,,,,,,,,,,,5f2bfa55937b6c0143766367,001,2021-12-06_03h17.57.310,jm_natural_scene_simialrity_2-12-2021,2021.2.3,Win32,144.0714594,5f2bfa55937b6c0143766367,61ad71e11ddd29ccf7a27d5b,61ad72b8676854484eba5da1,,,88,49,1,0,0,response1disk,0.9862,14,2,1,0,0,rectangle,14,2,1,0,0,-1,3,"[100,135,107,116,127,105,85,86,21,114]",14,2,1,0,0,0,57,57,51,1,Pink,Pink.jpg,Red,Red.jpg,,
,,,,,,,,,,,,,,,,,,-1,,,,,,,,,,,,,,,,,,,,,,,,,,,,,,5f2bfa55937b6c0143766367,001,2021-12-06_03h17.57.310,jm_natural_scene_simialrity_2-12-2021,2021.2.3,Win32,144.0714594,5f2bfa55937b6c0143766367,61ad71e11ddd29ccf7a27d5b,61ad72b8676854484eba5da1,,,-53,-70,1,0,0,response5disk,1.5975,3,-2,1,0,0,rectangle,3,-2,1,0,0,-1,-1,"[100,135,107,116,127,105,85,86,21,114]",3,-2,1,0,0,0,58,58,41,1,DarkBlue,DarkBlue.jpg,Purple,Purple.jpg,,
,,,,,,,,,,,,,,,,,,-3,,,,,,,,,,,,,,,,,,,,,,,,,,,,,,5f2bfa55937b6c0143766367,001,2021-12-06_03h17.57.310,jm_natural_scene_simialrity_2-12-2021,2021.2.3,Win32,144.0714594,5f2bfa55937b6c0143766367,61ad71e11ddd29ccf7a27d5b,61ad72b8676854484eba5da1,,,-77,31,1,0,0,response7disk,3.2225,5,13,1,0,0,rectangle,5,13,1,0,0,-1,3,"[100,135,107,116,127,105,85,86,21,114]",5,13,1,0,0,0,59,59,56,1,LightBlue,LightBlue.jpg,Yellow,Yellow.jpg,,
,,,,,,,,,,,,,,,,,,-3,,,,,,,,,,,,,,,,,,,,,,,,,,,,,,5f2bfa55937b6c0143766367,001,2021-12-06_03h17.57.310,jm_natural_scene_simialrity_2-12-2021,2021.2.3,Win32,144.0714594,5f2bfa55937b6c0143766367,61ad71e11ddd29ccf7a27d5b,61ad72b8676854484eba5da1,,,-93,46,1,0,0,response7disk,1.4928,0,-2,1,0,0,rectangle,0,-2,1,0,0,-1,-3,"[100,135,107,116,127,105,85,86,21,114]",0,-2,1,0,0,0,60,60,69,1,Pink,Pink.jpg,DarkGreen,DarkGreen.jpg,,
,,,,,,,,,,,,,,,,,,-3,,,,,,,,,,,,,,,,,,,,,,,,,,,,,,5f2bfa55937b6c0143766367,001,2021-12-06_03h17.57.310,jm_natural_scene_simialrity_2-12-2021,2021.2.3,Win32,144.0714594,5f2bfa55937b6c0143766367,61ad71e11ddd29ccf7a27d5b,61ad72b8676854484eba5da1,,,-83,52,1,0,0,response7disk,1.0902,6,-2,1,0,0,rectangle,6,-2,1,0,0,-1,-2,"[100,135,107,116,127,105,85,86,21,114]",6,-2,1,0,0,0,61,61,11,1,Yellow,Yellow.jpg,DarkGreen,DarkGreen.jpg,,
,,,,,,,,,,,,,,,,,,-4,,,,,,,,,,,,,,,,,,,,,,,,,,,,,,5f2bfa55937b6c0143766367,001,2021-12-06_03h17.57.310,jm_natural_scene_simialrity_2-12-2021,2021.2.3,Win32,144.0714594,5f2bfa55937b6c0143766367,61ad71e11ddd29ccf7a27d5b,61ad72b8676854484eba5da1,,,-46,102,1,0,0,response7disk,1.5486,7,4,1,0,0,rectangle,7,4,1,0,0,-1,-4,"[100,135,107,116,127,105,85,86,21,114]",7,4,1,0,0,0,62,62,37,1,LightBlue,LightBlue.jpg,Pink,Pink.jpg,,
,,,,,,,,,,,,,,,,,,1,,,,,,,,,,,,,,,,,,,,,,,,,,,,,,5f2bfa55937b6c0143766367,001,2021-12-06_03h17.57.310,jm_natural_scene_simialrity_2-12-2021,2021.2.3,Win32,144.0714594,5f2bfa55937b6c0143766367,61ad71e11ddd29ccf7a27d5b,61ad72b8676854484eba5da1,,,34,-105,1,0,0,response3disk,1.5002,-5,-6,1,0,0,rectangle,-5,-6,1,0,0,-1,-3,"[100,135,107,116,127,105,85,86,21,114]",-5,-6,1,0,0,0,63,63,74,1,Purple,Purple.jpg,Turquiose,Turquiose.jpg,,
,,,,,,,,,,,,,,,,,,-1,,,,,,,,,,,,,,,,,,,,,,,,,,,,,,5f2bfa55937b6c0143766367,001,2021-12-06_03h17.57.310,jm_natural_scene_simialrity_2-12-2021,2021.2.3,Win32,144.0714594,5f2bfa55937b6c0143766367,61ad71e11ddd29ccf7a27d5b,61ad72b8676854484eba5da1,,,-45,-93,1,0,0,response5disk,1.9656,-2,-10,1,0,0,rectangle,-2,-10,1,0,0,-1,-3,"[100,135,107,116,127,105,85,86,21,114]",-2,-10,1,0,0,0,64,64,67,1,LightBlue,LightBlue.jpg,DarkGreen,DarkGreen.jpg,,
,,,,,,,,,,,,,,,,,,1,,,,,,,,,,,,,,,,,,,,,,,,,,,,,,5f2bfa55937b6c0143766367,001,2021-12-06_03h17.57.310,jm_natural_scene_simialrity_2-12-2021,2021.2.3,Win32,144.0714594,5f2bfa55937b6c0143766367,61ad71e11ddd29ccf7a27d5b,61ad72b8676854484eba5da1,,,54,-71,1,0,0,response3disk,1.1459,1,-6,1,0,0,rectangle,1,-6,1,0,0,-1,-4,"[100,135,107,116,127,105,85,86,21,114]",1,-6,1,0,0,0,65,65,32,1,Turquiose,Turquiose.jpg,DarkBlue,DarkBlue.jpg,,
,,,,,,,,,,,,,,,,,,-1,,,,,,,,,,,,,,,,,,,,,,,,,,,,,,5f2bfa55937b6c0143766367,001,2021-12-06_03h17.57.310,jm_natural_scene_simialrity_2-12-2021,2021.2.3,Win32,144.0714594,5f2bfa55937b6c0143766367,61ad71e11ddd29ccf7a27d5b,61ad72b8676854484eba5da1,,,-43,-83,1,0,0,response5disk,1.5,19,-18,1,0,0,rectangle,19,-18,1,0,0,2,-1,"[100,135,107,116,127,105,85,86,21,114]",19,-18,1,0,0,0,66,66,62,1,LightBlue,LightBlue.jpg,LightGreen,LightGreen.jpg,,
,,,,,,,,,,,,,,,,,,-2,,,,,,,,,,,,,,,,,,,,,,,,,,,,,,5f2bfa55937b6c0143766367,001,2021-12-06_03h17.57.310,jm_natural_scene_simialrity_2-12-2021,2021.2.3,Win32,144.0714594,5f2bfa55937b6c0143766367,61ad71e11ddd29ccf7a27d5b,61ad72b8676854484eba5da1,,,-86,-34,1,0,0,response5disk,3.9379,-6,6,1,0,0,rectangle,-6,6,1,0,0,2,-1,"[100,135,107,116,127,105,85,86,21,114]",-6,6,1,0,0,0,67,67,4,1,Red,Red.jpg,Turquiose,Turquiose.jpg,,
,,,,,,,,,,,,,,,,,,-2,,,,,,,,,,,,,,,,,,,,,,,,,,,,,,5f2bfa55937b6c0143766367,001,2021-12-06_03h17.57.310,jm_natural_scene_simialrity_2-12-2021,2021.2.3,Win32,144.0714594,5f2bfa55937b6c0143766367,61ad71e11ddd29ccf7a27d5b,61ad72b8676854484eba5da1,,,-79,-39,1,0,0,response5disk,3.0558,-11,-1,1,0,0,rectangle,-11,-1,1,0,0,2,-4,"[100,135,107,116,127,105,85,86,21,114]",-11,-1,1,0,0,0,68,68,46,1,LightGreen,LightGreen.jpg,Red,Red.jpg,,
,,,,,,,,,,,,,,,,,,-2,,,,,,,,,,,,,,,,,,,,,,,,,,,,,,5f2bfa55937b6c0143766367,001,2021-12-06_03h17.57.310,jm_natural_scene_simialrity_2-12-2021,2021.2.3,Win32,144.0714594,5f2bfa55937b6c0143766367,61ad71e11ddd29ccf7a27d5b,61ad72b8676854484eba5da1,,,-82,-43,1,0,0,response5disk,1.1598,5,-18,1,0,0,rectangle,5,-18,1,0,0,2,1,"[100,135,107,116,127,105,85,86,21,114]",5,-18,1,0,0,0,69,69,48,1,Turquiose,Turquiose.jpg,Red,Red.jpg,,
,,,,,,,,,,,,,,,,,,2,,,,,,,,,,,,,,,,,,,,,,,,,,,,,,5f2bfa55937b6c0143766367,001,2021-12-06_03h17.57.310,jm_natural_scene_simialrity_2-12-2021,2021.2.3,Win32,144.0714594,5f2bfa55937b6c0143766367,61ad71e11ddd29ccf7a27d5b,61ad72b8676854484eba5da1,,,101,-34,1,0,0,response3disk,1.3959,11,12,1,0,0,rectangle,11,12,1,0,0,2,-2,"[100,135,107,116,127,105,85,86,21,114]",11,12,1,0,0,0,70,70,36,1,LightBlue,LightBlue.jpg,DarkBlue,DarkBlue.jpg,,
,,,,,,,,,,,,,,,,,,4,,,,,,,,,,,,,,,,,,,,,,,,,,,,,,5f2bfa55937b6c0143766367,001,2021-12-06_03h17.57.310,jm_natural_scene_simialrity_2-12-2021,2021.2.3,Win32,144.0714594,5f2bfa55937b6c0143766367,61ad71e11ddd29ccf7a27d5b,61ad72b8676854484eba5da1,,,36,98,1,0,0,response1disk,0.9165,11,9,1,0,0,rectangle,11,9,1,0,0,2,1,"[100,135,107,116,127,105,85,86,21,114]",11,9,1,0,0,0,71,71,17,1,LightGreen,LightGreen.jpg,LightGreen,LightGreen.jpg,,
,,,,,,,,,,,,,,,,,,-3,,,,,,,,,,,,,,,,,,,,,,,,,,,,,,5f2bfa55937b6c0143766367,001,2021-12-06_03h17.57.310,jm_natural_scene_simialrity_2-12-2021,2021.2.3,Win32,144.0714594,5f2bfa55937b6c0143766367,61ad71e11ddd29ccf7a27d5b,61ad72b8676854484eba5da1,,,-76,34,1,0,0,response7disk,1.7148,8,4,1,0,0,rectangle,8,4,1,0,0,2,-4,"[100,135,107,116,127,105,85,86,21,114]",8,4,1,0,0,0,72,72,13,1,Yellow,Yellow.jpg,LightBlue,LightBlue.jpg,,
,,,,,,,,,,,,,,,,,,-1,,,,,,,,,,,,,,,,,,,,,,,,,,,,,,5f2bfa55937b6c0143766367,001,2021-12-06_03h17.57.310,jm_natural_scene_simialrity_2-12-2021,2021.2.3,Win32,144.0714594,5f2bfa55937b6c0143766367,61ad71e11ddd29ccf7a27d5b,61ad72b8676854484eba5da1,,,-49,-82,1,0,0,response5disk,2.2153,9,-6,1,0,0,rectangle,9,-6,1,0,0,2,-3,"[100,135,107,116,127,105,85,86,21,114]",9,-6,1,0,0,0,73,73,52,1,Purple,Purple.jpg,Red,Red.jpg,,
,,,,,,,,,,,,,,,,,,-2,,,,,,,,,,,,,,,,,,,,,,,,,,,,,,5f2bfa55937b6c0143766367,001,2021-12-06_03h17.57.310,jm_natural_scene_simialrity_2-12-2021,2021.2.3,Win32,144.0714594,5f2bfa55937b6c0143766367,61ad71e11ddd29ccf7a27d5b,61ad72b8676854484eba5da1,,,-97,-64,1,0,0,response5disk,3.0141,-12,-5,1,0,0,rectangle,-12,-5,1,0,0,2,-1,"[100,135,107,116,127,105,85,86,21,114]",-12,-5,1,0,0,0,74,74,2,1,Red,Red.jpg,LightGreen,LightGreen.jpg,,
,,,,,,,,,,,,,,,,,,1,,,,,,,,,,,,,,,,,,,,,,,,,,,,,,5f2bfa55937b6c0143766367,001,2021-12-06_03h17.57.310,jm_natural_scene_simialrity_2-12-2021,2021.2.3,Win32,144.0714594,5f2bfa55937b6c0143766367,61ad71e11ddd29ccf7a27d5b,61ad72b8676854484eba5da1,,,55,-88,1,0,0,response3disk,3.0766,-11,-5,1,0,0,rectangle,-11,-5,1,0,0,2,3,"[100,135,107,116,127,105,85,86,21,114]",-11,-5,1,0,0,0,75,75,26,1,DarkGreen,DarkGreen.jpg,LightBlue,LightBlue.jpg,,
,,,,,,,,,,,,,,,,,,-1,,,,,,,,,,,,,,,,,,,,,,,,,,,,,,5f2bfa55937b6c0143766367,001,2021-12-06_03h17.57.310,jm_natural_scene_simialrity_2-12-2021,2021.2.3,Win32,144.0714594,5f2bfa55937b6c0143766367,61ad71e11ddd29ccf7a27d5b,61ad72b8676854484eba5da1,,,-34,-81,1,0,0,response5disk,6.6672,2,15,1,0,0,rectangle,2,15,1,0,0,2,-2,"[100,135,107,116,127,105,85,86,21,114]",2,15,1,0,0,0,76,76,40,1,DarkBlue,DarkBlue.jpg,Pink,Pink.jpg,,
,,,,,,,,,,,,,,,,,,4,,,,,,,,,,,,,,,,,,,,,,,,,,,,,,5f2bfa55937b6c0143766367,001,2021-12-06_03h17.57.310,jm_natural_scene_simialrity_2-12-2021,2021.2.3,Win32,144.0714594,5f2bfa55937b6c0143766367,61ad71e11ddd29ccf7a27d5b,61ad72b8676854484eba5da1,,,39,86,1,0,0,response1disk,0.6734,3,12,1,0,0,rectangle,3,12,1,0,0,2,3,"[100,135,107,116,127,105,85,86,21,114]",3,12,1,0,0,0,77,77,42,1,Pink,Pink.jpg,Pink,Pink.jpg,,
,,,,,,,,,,,,,,,,,,2,,,,,,,,,,,,,,,,,,,,,,,,,,,,,,5f2bfa55937b6c0143766367,001,2021-12-06_03h17.57.310,jm_natural_scene_simialrity_2-12-2021,2021.2.3,Win32,144.0714594,5f2bfa55937b6c0143766367,61ad71e11ddd29ccf7a27d5b,61ad72b8676854484eba5da1,,,79,-60,1,0,0,response3disk,2.5487,5,3,1,0,0,rectangle,5,3,1,0,0,2,3,"[100,135,107,116,127,105,85,86,21,114]",5,3,1,0,0,0,78,78,21,1,LightGreen,LightGreen.jpg,DarkBlue,DarkBlue.jpg,,
,,,,,,,,,,,,,,,,,,1,,,,,,,,,,,,,,,,,,,,,,,,,,,,,,5f2bfa55937b6c0143766367,001,2021-12-06_03h17.57.310,jm_natural_scene_simialrity_2-12-2021,2021.2.3,Win32,144.0714594,5f2bfa55937b6c0143766367,61ad71e11ddd29ccf7a27d5b,61ad72b8676854484eba5da1,,,51,-83,1,0,0,response3disk,5.6049,-7,-5,1,0,0,rectangle,-7,-5,1,0,0,2,-1,"[100,135,107,116,127,105,85,86,21,114]",-7,-5,1,0,0,0,79,79,65,1,Purple,Purple.jpg,LightGreen,LightGreen.jpg,,
,,,,,,,,,,,,,,,,,,-4,,,,,,,,,,,,,,,,,,,,,,,,,,,,,,5f2bfa55937b6c0143766367,001,2021-12-06_03h17.57.310,jm_natural_scene_simialrity_2-12-2021,2021.2.3,Win32,144.0714594,5f2bfa55937b6c0143766367,61ad71e11ddd29ccf7a27d5b,61ad72b8676854484eba5da1,,,-53,80,1,0,0,response7disk,1.4099,8,11,1,0,0,rectangle,8,11,1,0,0,2,-4,"[100,135,107,116,127,105,85,86,21,114]",8,11,1,0,0,0,80,80,57,1,DarkBlue,DarkBlue.jpg,Yellow,Yellow.jpg,,
,,,,,,,,,,,,,,,,,,-1,,,,,,,,,,,,,,,,,,,,,,,,,,,,,,5f2bfa55937b6c0143766367,001,2021-12-06_03h17.57.310,jm_natural_scene_simialrity_2-12-2021,2021.2.3,Win32,144.0714594,5f2bfa55937b6c0143766367,61ad71e11ddd29ccf7a27d5b,61ad72b8676854484eba5da1,,,-36,-100,1,0,0,response5disk,2.0905,-14,-11,1,0,0,rectangle,-14,-11,1,0,0,2,-4,"[100,135,107,116,127,105,85,86,21,114]",-14,-11,1,0,0,1,0,81,49,1,LightBlue,LightBlue.jpg,Red,Red.jpg,,
,,,,,,,,,,,,,,,,,,-3,,,,,,,,,,,,,,,,,,,,,,,,,,,,,,5f2bfa55937b6c0143766367,001,2021-12-06_03h17.57.310,jm_natural_scene_simialrity_2-12-2021,2021.2.3,Win32,144.0714594,5f2bfa55937b6c0143766367,61ad71e11ddd29ccf7a27d5b,61ad72b8676854484eba5da1,,,-98,27,1,0,0,response7disk,1.3748,-15,-2,1,0,0,rectangle,-15,-2,1,0,0,2,-4,"[100,135,107,116,127,105,85,86,21,114]",-15,-2,1,0,0,1,1,82,57,1,DarkBlue,DarkBlue.jpg,Yellow,Yellow.jpg,,
,,,,,,,,,,,,,,,,,,-1,,,,,,,,,,,,,,,,,,,,,,,,,,,,,,5f2bfa55937b6c0143766367,001,2021-12-06_03h17.57.310,jm_natural_scene_simialrity_2-12-2021,2021.2.3,Win32,144.0714594,5f2bfa55937b6c0143766367,61ad71e11ddd29ccf7a27d5b,61ad72b8676854484eba5da1,,,-34,-83,1,0,0,response5disk,2.1322,9,0,1,0,0,rectangle,9,0,1,0,0,2,-4,"[100,135,107,116,127,105,85,86,21,114]",9,0,1,0,0,1,2,83,5,1,Red,Red.jpg,LightBlue,LightBlue.jpg,,
,,,,,,,,,,,,,,,,,,-1,,,,,,,,,,,,,,,,,,,,,,,,,,,,,,5f2bfa55937b6c0143766367,001,2021-12-06_03h17.57.310,jm_natural_scene_simialrity_2-12-2021,2021.2.3,Win32,144.0714594,5f2bfa55937b6c0143766367,61ad71e11ddd29ccf7a27d5b,61ad72b8676854484eba5da1,,,-52,-90,1,0,0,response5disk,4.0211,13,13,1,0,0,rectangle,-50,92,1,0,0,-4,-4,"[100,135,107,116,127,105,85,86,21,114]",3,13,1,0,0,1,3,84,28,1,DarkGreen,DarkGreen.jpg,Pink,Pink.jpg,response7disk_3,rectangle
,,,,,,,,,,,,,,,,,,-2,,,,,,,,,,,,,,,,,,,,,,,,,,,,,,5f2bfa55937b6c0143766367,001,2021-12-06_03h17.57.310,jm_natural_scene_simialrity_2-12-2021,2021.2.3,Win32,144.0714594,5f2bfa55937b6c0143766367,61ad71e11ddd29ccf7a27d5b,61ad72b8676854484eba5da1,,,-59,-30,1,0,0,response5disk,5.0836,4,8,1,0,0,rectangle,-85,-47,1,0,0,-4,-2,"[100,135,107,116,127,105,85,86,21,114]",16,-3,1,0,0,1,4,85,36,1,LightBlue,LightBlue.jpg,DarkBlue,DarkBlue.jpg,response5disk_3,rectangle
,,,,,,,,,,,,,,,,,,2,,,,,,,,,,,,,,,,,,,,,,,,,,,,,,5f2bfa55937b6c0143766367,001,2021-12-06_03h17.57.310,jm_natural_scene_simialrity_2-12-2021,2021.2.3,Win32,144.0714594,5f2bfa55937b6c0143766367,61ad71e11ddd29ccf7a27d5b,61ad72b8676854484eba5da1,,,89,-34,1,0,0,response3disk,1.632,-2,9,1,0,0,rectangle,-2,9,1,0,0,-4,2,"[100,135,107,116,127,105,85,86,21,114]",-2,9,1,0,0,1,5,86,31,1,Turquiose,Turquiose.jpg,LightBlue,LightBlue.jpg,,
,,,,,,,,,,,,,,,,,,2,,,,,,,,,,,,,,,,,,,,,,,,,,,,,,5f2bfa55937b6c0143766367,001,2021-12-06_03h17.57.310,jm_natural_scene_simialrity_2-12-2021,2021.2.3,Win32,144.0714594,5f2bfa55937b6c0143766367,61ad71e11ddd29ccf7a27d5b,61ad72b8676854484eba5da1,,,84,-55,1,0,0,response3disk,1.8195,14,-4,1,0,0,rectangle,14,-4,1,0,0,-4,2,"[100,135,107,116,127,105,85,86,21,114]",14,-4,1,0,0,1,6,87,21,1,LightGreen,LightGreen.jpg,DarkBlue,DarkBlue.jpg,,
,,,,,,,,,,,,,,,,,,-3,,,,,,,,,,,,,,,,,,,,,,,,,,,,,,5f2bfa55937b6c0143766367,001,2021-12-06_03h17.57.310,jm_natural_scene_simialrity_2-12-2021,2021.2.3,Win32,144.0714594,5f2bfa55937b6c0143766367,61ad71e11ddd29ccf7a27d5b,61ad72b8676854484eba5da1,,,-85,29,1,0,0,response7disk,1.0694,4,7,1,0,0,rectangle,4,7,1,0,0,-4,2,"[100,135,107,116,127,105,85,86,21,114]",4,7,1,0,0,1,7,88,53,1,LightGreen,LightGreen.jpg,Yellow,Yellow.jpg,,
,,,,,,,,,,,,,,,,,,-1,,,,,,,,,,,,,,,,,,,,,,,,,,,,,,5f2bfa55937b6c0143766367,001,2021-12-06_03h17.57.310,jm_natural_scene_simialrity_2-12-2021,2021.2.3,Win32,144.0714594,5f2bfa55937b6c0143766367,61ad71e11ddd29ccf7a27d5b,61ad72b8676854484eba5da1,,,-37,-101,1,0,0,response5disk,1.5069,14,-14,1,0,0,rectangle,14,-14,1,0,0,-4,-3,"[100,135,107,116,127,105,85,86,21,114]",14,-14,1,0,0,1,8,89,76,1,Pink,Pink.jpg,LightBlue,LightBlue.jpg,,
,,,,,,,,,,,,,,,,,,-1,,,,,,,,,,,,,,,,,,,,,,,,,,,,,,5f2bfa55937b6c0143766367,001,2021-12-06_03h17.57.310,jm_natural_scene_simialrity_2-12-2021,2021.2.3,Win32,144.0714594,5f2bfa55937b6c0143766367,61ad71e11ddd29ccf7a27d5b,61ad72b8676854484eba5da1,,,-42,-65,1,0,0,response5disk,1.3893,3,0,1,0,0,rectangle,3,0,1,0,0,-4,1,"[100,135,107,116,127,105,85,86,21,114]",3,0,1,0,0,1,9,90,47,1,DarkGreen,DarkGreen.jpg,Red,Red.jpg,,
,,,,,,,,,,,,,,,,,,4,,,,,,,,,,,,,,,,,,,,,,,,,,,,,,5f2bfa55937b6c0143766367,001,2021-12-06_03h17.57.310,jm_natural_scene_simialrity_2-12-2021,2021.2.3,Win32,144.0714594,5f2bfa55937b6c0143766367,61ad71e11ddd29ccf7a27d5b,61ad72b8676854484eba5da1,,,56,97,1,0,0,response1disk,1.0208,0,-2,1,0,0,rectangle,0,-2,1,0,0,-4,-3,"[100,135,107,116,127,105,85,86,21,114]",0,-2,1,0,0,1,10,91,39,1,DarkBlue,DarkBlue.jpg,DarkBlue,DarkBlue.jpg,,
,,,,,,,,,,,,,,,,,,-1,,,,,,,,,,,,,,,,,,,,,,,,,,,,,,5f2bfa55937b6c0143766367,001,2021-12-06_03h17.57.310,jm_natural_scene_simialrity_2-12-2021,2021.2.3,Win32,144.0714594,5f2bfa55937b6c0143766367,61ad71e11ddd29ccf7a27d5b,61ad72b8676854484eba5da1,,,-44,-70,1,0,0,response5disk,1.514,-2,-3,1,0,0,rectangle,-2,-3,1,0,0,-4,-1,"[100,135,107,116,127,105,85,86,21,114]",-2,-3,1,0,0,1,11,92,73,1,Pink,Pink.jpg,Turquiose,Turquiose.jpg,,
,,,,,,,,,,,,,,,,,,4,,,,,,,,,,,,,,,,,,,,,,,,,,,,,,5f2bfa55937b6c0143766367,001,2021-12-06_03h17.57.310,jm_natural_scene_simialrity_2-12-2021,2021.2.3,Win32,144.0714594,5f2bfa55937b6c0143766367,61ad71e11ddd29ccf7a27d5b,61ad72b8676854484eba5da1,,,56,98,1,0,0,response1disk,0.7569,0,-4,1,0,0,rectangle,0,-4,1,0,0,-4,-2,"[100,135,107,116,127,105,85,86,21,114]",0,-4,1,0,0,1,12,93,24,1,DarkGreen,DarkGreen.jpg,DarkGreen,DarkGreen.jpg,,
,,,,,,,,,,,,,,,,,,-1,,,,,,,,,,,,,,,,,,,,,,,,,,,,,,5f2bfa55937b6c0143766367,001,2021-12-06_03h17.57.310,jm_natural_scene_simialrity_2-12-2021,2021.2.3,Win32,144.0714594,5f2bfa55937b6c0143766367,61ad71e11ddd29ccf7a27d5b,61ad72b8676854484eba5da1,,,-49,-82,1,0,0,response5disk,1.1668,-3,1,1,0,0,rectangle,-3,1,1,0,0,-4,3,"[100,135,107,116,127,105,85,86,21,114]",-3,1,1,0,0,1,13,94,37,1,LightBlue,LightBlue.jpg,Pink,Pink.jpg,,
,,,,,,,,,,,,,,,,,,3,,,,,,,,,,,,,,,,,,,,,,,,,,,,,,5f2bfa55937b6c0143766367,001,2021-12-06_03h17.57.310,jm_natural_scene_simialrity_2-12-2021,2021.2.3,Win32,144.0714594,5f2bfa55937b6c0143766367,61ad71e11ddd29ccf7a27d5b,61ad72b8676854484eba5da1,,,101,58,1,0,0,response1disk,1.3334,11,-4,1,0,0,rectangle,11,-4,1,0,0,-4,-4,"[100,135,107,116,127,105,85,86,21,114]",11,-4,1,0,0,1,14,95,18,1,LightGreen,LightGreen.jpg,DarkGreen,DarkGreen.jpg,,
,,,,,,,,,,,,,,,,,,2,,,,,,,,,,,,,,,,,,,,,,,,,,,,,,5f2bfa55937b6c0143766367,001,2021-12-06_03h17.57.310,jm_natural_scene_simialrity_2-12-2021,2021.2.3,Win32,144.0714594,5f2bfa55937b6c0143766367,61ad71e11ddd29ccf7a27d5b,61ad72b8676854484eba5da1,,,108,-31,1,0,0,response3disk,2.0074,9,12,1,0,0,rectangle,9,12,1,0,0,-4,3,"[100,135,107,116,127,105,85,86,21,114]",9,12,1,0,0,1,15,96,20,1,LightGreen,LightGreen.jpg,LightBlue,LightBlue.jpg,,
,,,,,,,,,,,,,,,,,,2,,,,,,,,,,,,,,,,,,,,,,,,,,,,,,5f2bfa55937b6c0143766367,001,2021-12-06_03h17.57.310,jm_natural_scene_simialrity_2-12-2021,2021.2.3,Win32,144.0714594,5f2bfa55937b6c0143766367,61ad71e11ddd29ccf7a27d5b,61ad72b8676854484eba5da1,,,93,-34,1,0,0,response3disk,0.9723,20,-6,1,0,0,rectangle,20,-6,1,0,0,-4,3,"[100,135,107,116,127,105,85,86,21,114]",20,-6,1,0,0,1,16,97,34,1,Turquiose,Turquiose.jpg,Purple,Purple.jpg,,
,,,,,,,,,,,,,,,,,,-3,,,,,,,,,,,,,,,,,,,,,,,,,,,,,,5f2bfa55937b6c0143766367,001,2021-12-06_03h17.57.310,jm_natural_scene_simialrity_2-12-2021,2021.2.3,Win32,144.0714594,5f2bfa55937b6c0143766367,61ad71e11ddd29ccf7a27d5b,61ad72b8676854484eba5da1,,,-90,36,1,0,0,response7disk,1.7988,-3,6,1,0,0,rectangle,-3,6,1,0,0,-4,-4,"[100,135,107,116,127,105,85,86,21,114]",-3,6,1,0,0,1,17,98,54,1,DarkGreen,DarkGreen.jpg,Yellow,Yellow.jpg,,
,,,,,,,,,,,,,,,,,,4,,,,,,,,,,,,,,,,,,,,,,,,,,,,,,5f2bfa55937b6c0143766367,001,2021-12-06_03h17.57.310,jm_natural_scene_simialrity_2-12-2021,2021.2.3,Win32,144.0714594,5f2bfa55937b6c0143766367,61ad71e11ddd29ccf7a27d5b,61ad72b8676854484eba5da1,,,50,94,1,0,0,response1disk,0.7221,-6,0,1,0,0,rectangle,-79,-47,1,0,0,-4,-2,"[100,135,107,116,127,105,85,86,21,114]",18,9,1,0,0,1,18,99,30,1,Turquiose,Turquiose.jpg,Turquiose,Turquiose.jpg,response5disk_3,rectangle
,,,,,,,,,,,,,,,,,,2,,,,,,,,,,,,,,,,,,,,,,,,,,,,,,5f2bfa55937b6c0143766367,001,2021-12-06_03h17.57.310,jm_natural_scene_simialrity_2-12-2021,2021.2.3,Win32,144.0714594,5f2bfa55937b6c0143766367,61ad71e11ddd29ccf7a27d5b,61ad72b8676854484eba5da1,,,101,-28,1,0,0,response3disk,1.7779,4,24,1,0,0,rectangle,4,24,1,0,0,-4,2,"[100,135,107,116,127,105,85,86,21,114]",4,24,1,0,0,1,19,100,61,1,Turquiose,Turquiose.jpg,LightGreen,LightGreen.jpg,,
,,,,,,,,,,,,,,,,,,2,,,,,,,,,,,,,,,,,,,,,,,,,,,,,,5f2bfa55937b6c0143766367,001,2021-12-06_03h17.57.310,jm_natural_scene_simialrity_2-12-2021,2021.2.3,Win32,144.0714594,5f2bfa55937b6c0143766367,61ad71e11ddd29ccf7a27d5b,61ad72b8676854484eba5da1,,,102,-42,1,0,0,response3disk,1.0694,-4,2,1,0,0,rectangle,-4,2,1,0,0,-4,-2,"[100,135,107,116,127,105,85,86,21,114]",-4,2,1,0,0,1,20,101,4,1,Red,Red.jpg,Turquiose,Turquiose.jpg,,
,,,,,,,,,,,,,,,,,,2,,,,,,,,,,,,,,,,,,,,,,,,,,,,,,5f2bfa55937b6c0143766367,001,2021-12-06_03h17.57.310,jm_natural_scene_simialrity_2-12-2021,2021.2.3,Win32,144.0714594,5f2bfa55937b6c0143766367,61ad71e11ddd29ccf7a27d5b,61ad72b8676854484eba5da1,,,105,-45,1,0,0,response3disk,1.5348,3,-20,1,0,0,rectangle,3,-20,1,0,0,-4,3,"[100,135,107,116,127,105,85,86,21,114]",3,-20,1,0,0,1,21,102,32,1,Turquiose,Turquiose.jpg,DarkBlue,DarkBlue.jpg,,
,,,,,,,,,,,,,,,,,,3,,,,,,,,,,,,,,,,,,,,,,,,,,,,,,5f2bfa55937b6c0143766367,001,2021-12-06_03h17.57.310,jm_natural_scene_simialrity_2-12-2021,2021.2.3,Win32,144.0714594,5f2bfa55937b6c0143766367,61ad71e11ddd29ccf7a27d5b,61ad72b8676854484eba5da1,,,92,64,1,0,0,response1disk,0.9236,6,6,1,0,0,rectangle,6,6,1,0,0,-4,2,"[100,135,107,116,127,105,85,86,21,114]",6,6,1,0,0,1,22,103,58,1,Pink,Pink.jpg,Yellow,Yellow.jpg,,
,,,,,,,,,,,,,,,,,,1,,,,,,,,,,,,,,,,,,,,,,,,,,,,,,5f2bfa55937b6c0143766367,001,2021-12-06_03h17.57.310,jm_natural_scene_simialrity_2-12-2021,2021.2.3,Win32,144.0714594,5f2bfa55937b6c0143766367,61ad71e11ddd29ccf7a27d5b,61ad72b8676854484eba5da1,,,40,-91,1,0,0,response3disk,1.4582,-11,-5,1,0,0,rectangle,-101,-31,1,0,0,-4,-2,"[100,135,107,116,127,105,85,86,21,114]",-22,-2,1,0,0,1,23,104,65,1,Purple,Purple.jpg,LightGreen,LightGreen.jpg,response5disk_3,rectangle
,,,,,,,,,,,,,,,,,,2,,,,,,,,,,,,,,,,,,,,,,,,,,,,,,5f2bfa55937b6c0143766367,001,2021-12-06_03h17.57.310,jm_natural_scene_simialrity_2-12-2021,2021.2.3,Win32,144.0714594,5f2bfa55937b6c0143766367,61ad71e11ddd29ccf7a27d5b,61ad72b8676854484eba5da1,,,76,-40,1,0,0,response3disk,1.4793,7,-8,1,0,0,rectangle,7,-8,1,0,0,-4,1,"[100,135,107,116,127,105,85,86,21,114]",7,-8,1,0,0,1,24,105,74,1,Purple,Purple.jpg,Turquiose,Turquiose.jpg,,
,,,,,,,,,,,,,,,,,,4,,,,,,,,,,,,,,,,,,,,,,,,,,,,,,5f2bfa55937b6c0143766367,001,2021-12-06_03h17.57.310,jm_natural_scene_simialrity_2-12-2021,2021.2.3,Win32,144.0714594,5f2bfa55937b6c0143766367,61ad71e11ddd29ccf7a27d5b,61ad72b8676854484eba5da1,,,50,101,1,0,0,response1disk,1.5207,-12,6,1,0,0,rectangle,-74,38,1,0,0,-3,-3,"[100,135,107,116,127,105,85,86,21,114]",4,3,1,0,0,1,25,106,17,1,LightGreen,LightGreen.jpg,LightGreen,LightGreen.jpg,response7disk_3,rectangle
,,,,,,,,,,,,,,,,,,2,,,,,,,,,,,,,,,,,,,,,,,,,,,,,,5f2bfa55937b6c0143766367,001,2021-12-06_03h17.57.310,jm_natural_scene_simialrity_2-12-2021,2021.2.3,Win32,144.0714594,5f2bfa55937b6c0143766367,61ad71e11ddd29ccf7a27d5b,61ad72b8676854484eba5da1,,,78,-50,1,0,0,response3disk,1.1527,19,2,1,0,0,rectangle,19,2,1,0,0,-3,-1,"[100,135,107,116,127,105,85,86,21,114]",19,2,1,0,0,1,26,107,38,1,LightBlue,LightBlue.jpg,Purple,Purple.jpg,,
,,,,,,,,,,,,,,,,,,2,,,,,,,,,,,,,,,,,,,,,,,,,,,,,,5f2bfa55937b6c0143766367,001,2021-12-06_03h17.57.310,jm_natural_scene_simialrity_2-12-2021,2021.2.3,Win32,144.0714594,5f2bfa55937b6c0143766367,61ad71e11ddd29ccf7a27d5b,61ad72b8676854484eba5da1,,,77,-43,1,0,0,response3disk,1.2499,-15,4,1,0,0,rectangle,-15,4,1,0,0,-3,-2,"[100,135,107,116,127,105,85,86,21,114]",-15,4,1,0,0,1,27,108,27,1,DarkGreen,DarkGreen.jpg,DarkBlue,DarkBlue.jpg,,
,,,,,,,,,,,,,,,,,,1,,,,,,,,,,,,,,,,,,,,,,,,,,,,,,5f2bfa55937b6c0143766367,001,2021-12-06_03h17.57.310,jm_natural_scene_simialrity_2-12-2021,2021.2.3,Win32,144.0714594,5f2bfa55937b6c0143766367,61ad71e11ddd29ccf7a27d5b,61ad72b8676854484eba5da1,,,30,-94,1,0,0,response3disk,1.4513,-5,0,1,0,0,rectangle,-5,0,1,0,0,-3,1,"[100,135,107,116,127,105,85,86,21,114]",-5,0,1,0,0,1,28,109,50,1,DarkBlue,DarkBlue.jpg,Red,Red.jpg,,
,,,,,,,,,,,,,,,,,,3,,,,,,,,,,,,,,,,,,,,,,,,,,,,,,5f2bfa55937b6c0143766367,001,2021-12-06_03h17.57.310,jm_natural_scene_simialrity_2-12-2021,2021.2.3,Win32,144.0714594,5f2bfa55937b6c0143766367,61ad71e11ddd29ccf7a27d5b,61ad72b8676854484eba5da1,,,71,50,1,0,0,response1disk,0.9025,1,4,1,0,0,rectangle,1,4,1,0,0,-3,3,"[100,135,107,116,127,105,85,86,21,114]",1,4,1,0,0,1,29,110,51,1,Pink,Pink.jpg,Red,Red.jpg,,
,,,,,,,,,,,,,,,,,,2,,,,,,,,,,,,,,,,,,,,,,,,,,,,,,5f2bfa55937b6c0143766367,001,2021-12-06_03h17.57.310,jm_natural_scene_simialrity_2-12-2021,2021.2.3,Win32,144.0714594,5f2bfa55937b6c0143766367,61ad71e11ddd29ccf7a27d5b,61ad72b8676854484eba5da1,,,89,-31,1,0,0,response3disk,1.0069,0,10,1,0,0,rectangle,0,10,1,0,0,-3,-2,"[100,135,107,116,127,105,85,86,21,114]",0,10,1,0,0,1,30,111,66,1,Turquiose,Turquiose.jpg,DarkGreen,DarkGreen.jpg,,
,,,,,,,,,,,,,,,,,,-1,,,,,,,,,,,,,,,,,,,,,,,,,,,,,,5f2bfa55937b6c0143766367,001,2021-12-06_03h17.57.310,jm_natural_scene_simialrity_2-12-2021,2021.2.3,Win32,144.0714594,5f2bfa55937b6c0143766367,61ad71e11ddd29ccf7a27d5b,61ad72b8676854484eba5da1,,,-52,-79,1,0,0,response5disk,1.8125,13,0,1,0,0,rectangle,13,0,1,0,0,-3,-2,"[100,135,107,116,127,105,85,86,21,114]",13,0,1,0,0,1,31,112,16,1,Yellow,Yellow.jpg,Purple,Purple.jpg,,
,,,,,,,,,,,,,,,,,,-1,,,,,,,,,,,,,,,,,,,,,,,,,,,,,,5f2bfa55937b6c0143766367,001,2021-12-06_03h17.57.310,jm_natural_scene_simialrity_2-12-2021,2021.2.3,Win32,144.0714594,5f2bfa55937b6c0143766367,61ad71e11ddd29ccf7a27d5b,61ad72b8676854484eba5da1,,,-54,-65,1,0,0,response5disk,1.118,7,-1,1,0,0,rectangle,91,39,1,0,0,3,3,"[100,135,107,116,127,105,85,86,21,114]",-4,-2,1,0,0,1,32,113,43,1,Pink,Pink.jpg,Purple,Purple.jpg,response1disk_3,rectangle
,,,,,,,,,,,,,,,,,,1,,,,,,,,,,,,,,,,,,,,,,,,,,,,,,5f2bfa55937b6c0143766367,001,2021-12-06_03h17.57.310,jm_natural_scene_simialrity_2-12-2021,2021.2.3,Win32,144.0714594,5f2bfa55937b6c0143766367,61ad71e11ddd29ccf7a27d5b,61ad72b8676854484eba5da1,,,31,-63,1,0,0,response3disk,1.8751,-10,0,1,0,0,rectangle,-10,0,1,0,0,3,-3,"[100,135,107,116,127,105,85,86,21,114]",-10,0,1,0,0,1,33,114,63,1,DarkBlue,DarkBlue.jpg,LightGreen,LightGreen.jpg,,
,,,,,,,,,,,,,,,,,,1,,,,,,,,,,,,,,,,,,,,,,,,,,,,,,5f2bfa55937b6c0143766367,001,2021-12-06_03h17.57.310,jm_natural_scene_simialrity_2-12-2021,2021.2.3,Win32,144.0714594,5f2bfa55937b6c0143766367,61ad71e11ddd29ccf7a27d5b,61ad72b8676854484eba5da1,,,41,-62,1,0,0,response3disk,1.4862,-5,-6,1,0,0,rectangle,-67,-49,1,0,0,3,-2,"[100,135,107,116,127,105,85,86,21,114]",12,-6,1,0,0,1,34,115,29,1,DarkGreen,DarkGreen.jpg,Purple,Purple.jpg,response5disk_3,rectangle
,,,,,,,,,,,,,,,,,,2,,,,,,,,,,,,,,,,,,,,,,,,,,,,,,5f2bfa55937b6c0143766367,001,2021-12-06_03h17.57.310,jm_natural_scene_simialrity_2-12-2021,2021.2.3,Win32,144.0714594,5f2bfa55937b6c0143766367,61ad71e11ddd29ccf7a27d5b,61ad72b8676854484eba5da1,,,101,-50,1,0,0,response3disk,4.0977,15,15,1,0,0,rectangle,15,15,1,0,0,3,3,"[100,135,107,116,127,105,85,86,21,114]",15,15,1,0,0,1,35,116,52,1,Purple,Purple.jpg,Red,Red.jpg,,
,,,,,,,,,,,,,,,,,,-2,,,,,,,,,,,,,,,,,,,,,,,,,,,,,,5f2bfa55937b6c0143766367,001,2021-12-06_03h17.57.310,jm_natural_scene_simialrity_2-12-2021,2021.2.3,Win32,144.0714594,5f2bfa55937b6c0143766367,61ad71e11ddd29ccf7a27d5b,61ad72b8676854484eba5da1,,,-98,-41,1,0,0,response5disk,1.3403,-1,12,1,0,0,rectangle,-1,12,1,0,0,3,-1,"[100,135,107,116,127,105,85,86,21,114]",-1,12,1,0,0,1,36,117,78,1,Pink,Pink.jpg,DarkBlue,DarkBlue.jpg,,
,,,,,,,,,,,,,,,,,,-1,,,,,,,,,,,,,,,,,,,,,,,,,,,,,,5f2bfa55937b6c0143766367,001,2021-12-06_03h17.57.310,jm_natural_scene_simialrity_2-12-2021,2021.2.3,Win32,144.0714594,5f2bfa55937b6c0143766367,61ad71e11ddd29ccf7a27d5b,61ad72b8676854484eba5da1,,,-43,-90,1,0,0,response5disk,1.7849,12,-12,1,0,0,rectangle,12,-12,1,0,0,3,-4,"[100,135,107,116,127,105,85,86,21,114]",12,-12,1,0,0,1,37,118,68,1,DarkBlue,DarkBlue.jpg,DarkGreen,DarkGreen.jpg,,
,,,,,,,,,,,,,,,,,,-3,,,,,,,,,,,,,,,,,,,,,,,,,,,,,,5f2bfa55937b6c0143766367,001,2021-12-06_03h17.57.310,jm_natural_scene_simialrity_2-12-2021,2021.2.3,Win32,144.0714594,5f2bfa55937b6c0143766367,61ad71e11ddd29ccf7a27d5b,61ad72b8676854484eba5da1,,,-89,57,1,0,0,response7disk,1.5904,-6,3,1,0,0,rectangle,-6,3,1,0,0,3,-1,"[100,135,107,116,127,105,85,86,21,114]",-6,3,1,0,0,1,38,119,56,1,LightBlue,LightBlue.jpg,Yellow,Yellow.jpg,,
,,,,,,,,,,,,,,,,,,-4,,,,,,,,,,,,,,,,,,,,,,,,,,,,,,5f2bfa55937b6c0143766367,001,2021-12-06_03h17.57.310,jm_natural_scene_simialrity_2-12-2021,2021.2.3,Win32,144.0714594,5f2bfa55937b6c0143766367,61ad71e11ddd29ccf7a27d5b,61ad72b8676854484eba5da1,,,-52,79,1,0,0,response7disk,1.0137,21,0,1,0,0,rectangle,21,0,1,0,0,3,2,"[100,135,107,116,127,105,85,86,21,114]",21,0,1,0,0,1,39,120,14,1,Yellow,Yellow.jpg,DarkBlue,DarkBlue.jpg,,
,,,,,,,,,,,,,,,,,,1,,,,,,,,,,,,,,,,,,,,,,,,,,,,,,5f2bfa55937b6c0143766367,001,2021-12-06_03h17.57.310,jm_natural_scene_simialrity_2-12-2021,2021.2.3,Win32,144.0714594,5f2bfa55937b6c0143766367,61ad71e11ddd29ccf7a27d5b,61ad72b8676854484eba5da1,,,44,-63,1,0,0,response3disk,1.5762,-10,-9,1,0,0,rectangle,-10,-9,1,0,0,3,-3,"[100,135,107,116,127,105,85,86,21,114]",-10,-9,1,0,0,1,40,121,8,1,Red,Red.jpg,Purple,Purple.jpg,,
,,,,,,,,,,,,,,,,,,1,,,,,,,,,,,,,,,,,,,,,,,,,,,,,,5f2bfa55937b6c0143766367,001,2021-12-06_03h17.57.310,jm_natural_scene_simialrity_2-12-2021,2021.2.3,Win32,144.0714594,5f2bfa55937b6c0143766367,61ad71e11ddd29ccf7a27d5b,61ad72b8676854484eba5da1,,,29,-42,1,0,0,response3disk,1.4866,5,-12,1,0,0,rectangle,5,-12,1,0,0,3,-1,"[100,135,107,116,127,105,85,86,21,114]",5,-12,1,0,0,1,41,122,79,1,Purple,Purple.jpg,DarkBlue,DarkBlue.jpg,,
,,,,,,,,,,,,,,,,,,2,,,,,,,,,,,,,,,,,,,,,,,,,,,,,,5f2bfa55937b6c0143766367,001,2021-12-06_03h17.57.310,jm_natural_scene_simialrity_2-12-2021,2021.2.3,Win32,144.0714594,5f2bfa55937b6c0143766367,61ad71e11ddd29ccf7a27d5b,61ad72b8676854484eba5da1,,,71,-38,1,0,0,response3disk,1.3684,9,19,1,0,0,rectangle,9,19,1,0,0,3,1,"[100,135,107,116,127,105,85,86,21,114]",9,19,1,0,0,1,42,123,77,1,Purple,Purple.jpg,LightBlue,LightBlue.jpg,,
,,,,,,,,,,,,,,,,,,-3,,,,,,,,,,,,,,,,,,,,,,,,,,,,,,5f2bfa55937b6c0143766367,001,2021-12-06_03h17.57.310,jm_natural_scene_simialrity_2-12-2021,2021.2.3,Win32,144.0714594,5f2bfa55937b6c0143766367,61ad71e11ddd29ccf7a27d5b,61ad72b8676854484eba5da1,,,-93,51,1,0,0,response7disk,1.7293,4,-4,1,0,0,rectangle,4,-4,1,0,0,3,2,"[100,135,107,116,127,105,85,86,21,114]",4,-4,1,0,0,1,43,124,11,1,Yellow,Yellow.jpg,DarkGreen,DarkGreen.jpg,,
,,,,,,,,,,,,,,,,,,-3,,,,,,,,,,,,,,,,,,,,,,,,,,,,,,5f2bfa55937b6c0143766367,001,2021-12-06_03h17.57.310,jm_natural_scene_simialrity_2-12-2021,2021.2.3,Win32,144.0714594,5f2bfa55937b6c0143766367,61ad71e11ddd29ccf7a27d5b,61ad72b8676854484eba5da1,,,-68,36,1,0,0,response7disk,1.1456,-6,-3,1,0,0,rectangle,-6,-3,1,0,0,3,3,"[100,135,107,116,127,105,85,86,21,114]",-6,-3,1,0,0,1,44,125,22,1,LightGreen,LightGreen.jpg,Pink,Pink.jpg,,
,,,,,,,,,,,,,,,,,,-4,,,,,,,,,,,,,,,,,,,,,,,,,,,,,,5f2bfa55937b6c0143766367,001,2021-12-06_03h17.57.310,jm_natural_scene_simialrity_2-12-2021,2021.2.3,Win32,144.0714594,5f2bfa55937b6c0143766367,61ad71e11ddd29ccf7a27d5b,61ad72b8676854484eba5da1,,,-53,80,1,0,0,response7disk,3.7364,-10,18,1,0,0,rectangle,-132,-26,1,0,0,3,-2,"[100,135,107,116,127,105,85,86,21,114]",-23,-4,1,0,0,1,45,126,70,1,Purple,Purple.jpg,DarkGreen,DarkGreen.jpg,response5disk_3,rectangle
,,,,,,,,,,,,,,,,,,4,,,,,,,,,,,,,,,,,,,,,,,,,,,,,,5f2bfa55937b6c0143766367,001,2021-12-06_03h17.57.310,jm_natural_scene_simialrity_2-12-2021,2021.2.3,Win32,144.0714594,5f2bfa55937b6c0143766367,61ad71e11ddd29ccf7a27d5b,61ad72b8676854484eba5da1,,,31,92,1,0,0,response1disk,0.7078,-23,4,1,0,0,rectangle,-23,4,1,0,0,3,-3,"[100,135,107,116,127,105,85,86,21,114]",-23,4,1,0,0,1,46,127,9,1,Yellow,Yellow.jpg,Yellow,Yellow.jpg,,
,,,,,,,,,,,,,,,,,,-3,,,,,,,,,,,,,,,,,,,,,,,,,,,,,,5f2bfa55937b6c0143766367,001,2021-12-06_03h17.57.310,jm_natural_scene_simialrity_2-12-2021,2021.2.3,Win32,144.0714594,5f2bfa55937b6c0143766367,61ad71e11ddd29ccf7a27d5b,61ad72b8676854484eba5da1,,,-94,55,1,0,0,response7disk,1.9097,-3,-1,1,0,0,rectangle,-3,-1,1,0,0,3,-4,"[100,135,107,116,127,105,85,86,21,114]",-3,-1,1,0,0,1,47,128,33,1,Turquiose,Turquiose.jpg,Pink,Pink.jpg,,
,,,,,,,,,,,,,,,,,,2,,,,,,,,,,,,,,,,,,,,,,,,,,,,,,5f2bfa55937b6c0143766367,001,2021-12-06_03h17.57.310,jm_natural_scene_simialrity_2-12-2021,2021.2.3,Win32,144.0714594,5f2bfa55937b6c0143766367,61ad71e11ddd29ccf7a27d5b,61ad72b8676854484eba5da1,,,78,-43,1,0,0,response3disk,1.4936,10,9,1,0,0,rectangle,10,9,1,0,0,3,-4,"[100,135,107,116,127,105,85,86,21,114]",10,9,1,0,0,1,48,129,67,1,LightBlue,LightBlue.jpg,DarkGreen,DarkGreen.jpg,,
,,,,,,,,,,,,,,,,,,4,,,,,,,,,,,,,,,,,,,,,,,,,,,,,,5f2bfa55937b6c0143766367,001,2021-12-06_03h17.57.310,jm_natural_scene_simialrity_2-12-2021,2021.2.3,Win32,144.0714594,5f2bfa55937b6c0143766367,61ad71e11ddd29ccf7a27d5b,61ad72b8676854484eba5da1,,,37,89,1,0,0,response1disk,0.8612,0,7,1,0,0,rectangle,0,7,1,0,0,3,-3,"[100,135,107,116,127,105,85,86,21,114]",0,7,1,0,0,1,49,130,0,1,Red,Red.jpg,Red,Red.jpg,,
,,,,,,,,,,,,,,,,,,-3,,,,,,,,,,,,,,,,,,,,,,,,,,,,,,5f2bfa55937b6c0143766367,001,2021-12-06_03h17.57.310,jm_natural_scene_simialrity_2-12-2021,2021.2.3,Win32,144.0714594,5f2bfa55937b6c0143766367,61ad71e11ddd29ccf7a27d5b,61ad72b8676854484eba5da1,,,-83,37,1,0,0,response7disk,2.4723,-16,23,1,0,0,rectangle,-16,23,1,0,0,3,2,"[100,135,107,116,127,105,85,86,21,114]",-16,23,1,0,0,1,50,131,12,1,Yellow,Yellow.jpg,Turquiose,Turquiose.jpg,,
,,,,,,,,,,,,,,,,,,3,,,,,,,,,,,,,,,,,,,,,,,,,,,,,,5f2bfa55937b6c0143766367,001,2021-12-06_03h17.57.310,jm_natural_scene_simialrity_2-12-2021,2021.2.3,Win32,144.0714594,5f2bfa55937b6c0143766367,61ad71e11ddd29ccf7a27d5b,61ad72b8676854484eba5da1,,,124,31,1,0,0,response1disk,1.8401,-5,6,1,0,0,rectangle,-5,6,1,0,0,3,-4,"[100,135,107,116,127,105,85,86,21,114]",-5,6,1,0,0,1,51,132,72,1,DarkBlue,DarkBlue.jpg,Turquiose,Turquiose.jpg,,
,,,,,,,,,,,,,,,,,,-2,,,,,,,,,,,,,,,,,,,,,,,,,,,,,,5f2bfa55937b6c0143766367,001,2021-12-06_03h17.57.310,jm_natural_scene_simialrity_2-12-2021,2021.2.3,Win32,144.0714594,5f2bfa55937b6c0143766367,61ad71e11ddd29ccf7a27d5b,61ad72b8676854484eba5da1,,,-77,-36,1,0,0,response5disk,1.9516,-16,-6,1,0,0,rectangle,-16,-6,1,0,0,3,2,"[100,135,107,116,127,105,85,86,21,114]",-16,-6,1,0,0,1,52,133,59,1,Purple,Purple.jpg,Yellow,Yellow.jpg,,
,,,,,,,,,,,,,,,,,,-3,,,,,,,,,,,,,,,,,,,,,,,,,,,,,,5f2bfa55937b6c0143766367,001,2021-12-06_03h17.57.310,jm_natural_scene_simialrity_2-12-2021,2021.2.3,Win32,144.0714594,5f2bfa55937b6c0143766367,61ad71e11ddd29ccf7a27d5b,61ad72b8676854484eba5da1,,,-98,36,1,0,0,response7disk,1.625,-10,-12,1,0,0,rectangle,99,-45,1,0,0,2,2,"[100,135,107,116,127,105,85,86,21,114]",10,14,1,0,0,1,53,134,69,1,Pink,Pink.jpg,DarkGreen,DarkGreen.jpg,response3disk_3,rectangle
,,,,,,,,,,,,,,,,,,4,,,,,,,,,,,,,,,,,,,,,,,,,,,,,,5f2bfa55937b6c0143766367,001,2021-12-06_03h17.57.310,jm_natural_scene_simialrity_2-12-2021,2021.2.3,Win32,144.0714594,5f2bfa55937b6c0143766367,61ad71e11ddd29ccf7a27d5b,61ad72b8676854484eba5da1,,,33,70,1,0,0,response1disk,0.8471,13,9,1,0,0,rectangle,13,9,1,0,0,2,3,"[100,135,107,116,127,105,85,86,21,114]",13,9,1,0,0,1,54,135,35,1,LightBlue,LightBlue.jpg,LightBlue,LightBlue.jpg,,
,,,,,,,,,,,,,,,,,,-3,,,,,,,,,,,,,,,,,,,,,,,,,,,,,,5f2bfa55937b6c0143766367,001,2021-12-06_03h17.57.310,jm_natural_scene_simialrity_2-12-2021,2021.2.3,Win32,144.0714594,5f2bfa55937b6c0143766367,61ad71e11ddd29ccf7a27d5b,61ad72b8676854484eba5da1,,,-47,20,1,0,0,response7disk,1.6113,2,7,1,0,0,rectangle,2,7,1,0,0,2,-4,"[100,135,107,116,127,105,85,86,21,114]",2,7,1,0,0,1,55,136,55,1,Turquiose,Turquiose.jpg,Yellow,Yellow.jpg,,
,,,,,,,,,,,,,,,,,,-3,,,,,,,,,,,,,,,,,,,,,,,,,,,,,,5f2bfa55937b6c0143766367,001,2021-12-06_03h17.57.310,jm_natural_scene_simialrity_2-12-2021,2021.2.3,Win32,144.0714594,5f2bfa55937b6c0143766367,61ad71e11ddd29ccf7a27d5b,61ad72b8676854484eba5da1,,,-57,38,1,0,0,response7disk,1.2499,-3,10,1,0,0,rectangle,-3,10,1,0,0,2,-1,"[100,135,107,116,127,105,85,86,21,114]",-3,10,1,0,0,1,56,137,46,1,LightGreen,LightGreen.jpg,Red,Red.jpg,,
,,,,,,,,,,,,,,,,,,-3,,,,,,,,,,,,,,,,,,,,,,,,,,,,,,5f2bfa55937b6c0143766367,001,2021-12-06_03h17.57.310,jm_natural_scene_simialrity_2-12-2021,2021.2.3,Win32,144.0714594,5f2bfa55937b6c0143766367,61ad71e11ddd29ccf7a27d5b,61ad72b8676854484eba5da1,,,-57,45,1,0,0,response7disk,0.7708,20,15,1,0,0,rectangle,20,15,1,0,0,2,2,"[100,135,107,116,127,105,85,86,21,114]",20,15,1,0,0,1,57,138,10,1,Yellow,Yellow.jpg,LightGreen,LightGreen.jpg,,
,,,,,,,,,,,,,,,,,,2,,,,,,,,,,,,,,,,,,,,,,,,,,,,,,5f2bfa55937b6c0143766367,001,2021-12-06_03h17.57.310,jm_natural_scene_simialrity_2-12-2021,2021.2.3,Win32,144.0714594,5f2bfa55937b6c0143766367,61ad71e11ddd29ccf7a27d5b,61ad72b8676854484eba5da1,,,97,-36,1,0,0,response3disk,1.1735,-10,7,1,0,0,rectangle,-10,7,1,0,0,2,-2,"[100,135,107,116,127,105,85,86,21,114]",-10,7,1,0,0,1,58,139,75,1,DarkBlue,DarkBlue.jpg,LightBlue,LightBlue.jpg,,
,,,,,,,,,,,,,,,,,,1,,,,,,,,,,,,,,,,,,,,,,,,,,,,,,5f2bfa55937b6c0143766367,001,2021-12-06_03h17.57.310,jm_natural_scene_simialrity_2-12-2021,2021.2.3,Win32,144.0714594,5f2bfa55937b6c0143766367,61ad71e11ddd29ccf7a27d5b,61ad72b8676854484eba5da1,,,26,-72,1,0,0,response3disk,1.3955,-15,-2,1,0,0,rectangle,-15,-2,1,0,0,2,-2,"[100,135,107,116,127,105,85,86,21,114]",-15,-2,1,0,0,1,59,140,3,1,Red,Red.jpg,DarkGreen,DarkGreen.jpg,,
,,,,,,,,,,,,,,,,,,3,,,,,,,,,,,,,,,,,,,,,,,,,,,,,,5f2bfa55937b6c0143766367,001,2021-12-06_03h17.57.310,jm_natural_scene_simialrity_2-12-2021,2021.2.3,Win32,144.0714594,5f2bfa55937b6c0143766367,61ad71e11ddd29ccf7a27d5b,61ad72b8676854484eba5da1,,,81,45,1,0,0,response1disk,1.3332,4,-6,1,0,0,rectangle,4,-6,1,0,0,2,-1,"[100,135,107,116,127,105,85,86,21,114]",4,-6,1,0,0,1,60,141,1,1,Red,Red.jpg,Yellow,Yellow.jpg,,
,,,,,,,,,,,,,,,,,,-2,,,,,,,,,,,,,,,,,,,,,,,,,,,,,,5f2bfa55937b6c0143766367,001,2021-12-06_03h17.57.310,jm_natural_scene_simialrity_2-12-2021,2021.2.3,Win32,144.0714594,5f2bfa55937b6c0143766367,61ad71e11ddd29ccf7a27d5b,61ad72b8676854484eba5da1,,,-79,-45,1,0,0,response5disk,1.0973,1,4,1,0,0,rectangle,1,4,1,0,0,2,-2,"[100,135,107,116,127,105,85,86,21,114]",1,4,1,0,0,1,61,142,64,1,Pink,Pink.jpg,LightGreen,LightGreen.jpg,,
,,,,,,,,,,,,,,,,,,-3,,,,,,,,,,,,,,,,,,,,,,,,,,,,,,5f2bfa55937b6c0143766367,001,2021-12-06_03h17.57.310,jm_natural_scene_simialrity_2-12-2021,2021.2.3,Win32,144.0714594,5f2bfa55937b6c0143766367,61ad71e11ddd29ccf7a27d5b,61ad72b8676854484eba5da1,,,-100,42,1,0,0,response7disk,2.7083,3,3,1,0,0,rectangle,3,3,1,0,0,2,2,"[100,135,107,116,127,105,85,86,21,114]",3,3,1,0,0,1,62,143,2,1,Red,Red.jpg,LightGreen,LightGreen.jpg,,
,,,,,,,,,,,,,,,,,,4,,,,,,,,,,,,,,,,,,,,,,,,,,,,,,5f2bfa55937b6c0143766367,001,2021-12-06_03h17.57.310,jm_natural_scene_simialrity_2-12-2021,2021.2.3,Win32,144.0714594,5f2bfa55937b6c0143766367,61ad71e11ddd29ccf7a27d5b,61ad72b8676854484eba5da1,,,62,106,1,0,0,response1disk,0.6736,-6,14,1,0,0,rectangle,-6,14,1,0,0,2,-3,"[100,135,107,116,127,105,85,86,21,114]",-6,14,1,0,0,1,63,144,42,1,Pink,Pink.jpg,Pink,Pink.jpg,,
,,,,,,,,,,,,,,,,,,2,,,,,,,,,,,,,,,,,,,,,,,,,,,,,,5f2bfa55937b6c0143766367,001,2021-12-06_03h17.57.310,jm_natural_scene_simialrity_2-12-2021,2021.2.3,Win32,144.0714594,5f2bfa55937b6c0143766367,61ad71e11ddd29ccf7a27d5b,61ad72b8676854484eba5da1,,,94,-49,1,0,0,response3disk,1.5762,7,5,1,0,0,rectangle,7,5,1,0,0,2,3,"[100,135,107,116,127,105,85,86,21,114]",7,5,1,0,0,1,64,145,25,1,DarkGreen,DarkGreen.jpg,Turquiose,Turquiose.jpg,,
,,,,,,,,,,,,,,,,,,-2,,,,,,,,,,,,,,,,,,,,,,,,,,,,,,5f2bfa55937b6c0143766367,001,2021-12-06_03h17.57.310,jm_natural_scene_simialrity_2-12-2021,2021.2.3,Win32,144.0714594,5f2bfa55937b6c0143766367,61ad71e11ddd29ccf7a27d5b,61ad72b8676854484eba5da1,,,-91,-29,1,0,0,response5disk,1.9374,-13,10,1,0,0,rectangle,-13,10,1,0,0,2,-1,"[100,135,107,116,127,105,85,86,21,114]",-13,10,1,0,0,1,65,146,40,1,DarkBlue,DarkBlue.jpg,Pink,Pink.jpg,,
,,,,,,,,,,,,,,,,,,-1,,,,,,,,,,,,,,,,,,,,,,,,,,,,,,5f2bfa55937b6c0143766367,001,2021-12-06_03h17.57.310,jm_natural_scene_simialrity_2-12-2021,2021.2.3,Win32,144.0714594,5f2bfa55937b6c0143766367,61ad71e11ddd29ccf7a27d5b,61ad72b8676854484eba5da1,,,-32,-93,1,0,0,response5disk,1.854,-11,-11,1,0,0,rectangle,-11,-11,1,0,0,2,-4,"[100,135,107,116,127,105,85,86,21,114]",-11,-11,1,0,0,1,66,147,48,1,Turquiose,Turquiose.jpg,Red,Red.jpg,,
,,,,,,,,,,,,,,,,,,1,,,,,,,,,,,,,,,,,,,,,,,,,,,,,,5f2bfa55937b6c0143766367,001,2021-12-06_03h17.57.310,jm_natural_scene_simialrity_2-12-2021,2021.2.3,Win32,144.0714594,5f2bfa55937b6c0143766367,61ad71e11ddd29ccf7a27d5b,61ad72b8676854484eba5da1,,,50,-75,1,0,0,response3disk,1.0695,-3,-6,1,0,0,rectangle,-3,-6,1,0,0,2,2,"[100,135,107,116,127,105,85,86,21,114]",-3,-6,1,0,0,1,67,148,80,1,Purple,Purple.jpg,Pink,Pink.jpg,,
,,,,,,,,,,,,,,,,,,2,,,,,,,,,,,,,,,,,,,,,,,,,,,,,,5f2bfa55937b6c0143766367,001,2021-12-06_03h17.57.310,jm_natural_scene_simialrity_2-12-2021,2021.2.3,Win32,144.0714594,5f2bfa55937b6c0143766367,61ad71e11ddd29ccf7a27d5b,61ad72b8676854484eba5da1,,,65,-41,1,0,0,response3disk,0.9166,4,9,1,0,0,rectangle,4,9,1,0,0,2,-4,"[100,135,107,116,127,105,85,86,21,114]",4,9,1,0,0,1,68,149,41,1,DarkBlue,DarkBlue.jpg,Purple,Purple.jpg,,
,,,,,,,,,,,,,,,,,,3,,,,,,,,,,,,,,,,,,,,,,,,,,,,,,5f2bfa55937b6c0143766367,001,2021-12-06_03h17.57.310,jm_natural_scene_simialrity_2-12-2021,2021.2.3,Win32,144.0714594,5f2bfa55937b6c0143766367,61ad71e11ddd29ccf7a27d5b,61ad72b8676854484eba5da1,,,98,28,1,0,0,response1disk,0.847,12,2,1,0,0,rectangle,12,2,1,0,0,2,-1,"[100,135,107,116,127,105,85,86,21,114]",12,2,1,0,0,1,69,150,15,1,Yellow,Yellow.jpg,Pink,Pink.jpg,,
,,,,,,,,,,,,,,,,,,-1,,,,,,,,,,,,,,,,,,,,,,,,,,,,,,5f2bfa55937b6c0143766367,001,2021-12-06_03h17.57.310,jm_natural_scene_simialrity_2-12-2021,2021.2.3,Win32,144.0714594,5f2bfa55937b6c0143766367,61ad71e11ddd29ccf7a27d5b,61ad72b8676854484eba5da1,,,-31,-93,1,0,0,response5disk,2.6462,2,3,1,0,0,rectangle,2,3,1,0,0,2,1,"[100,135,107,116,127,105,85,86,21,114]",2,3,1,0,0,1,70,151,23,1,LightGreen,LightGreen.jpg,Purple,Purple.jpg,,
,,,,,,,,,,,,,,,,,,4,,,,,,,,,,,,,,,,,,,,,,,,,,,,,,5f2bfa55937b6c0143766367,001,2021-12-06_03h17.57.310,jm_natural_scene_simialrity_2-12-2021,2021.2.3,Win32,144.0714594,5f2bfa55937b6c0143766367,61ad71e11ddd29ccf7a27d5b,61ad72b8676854484eba5da1,,,44,95,1,0,0,response1disk,0.7499,4,3,1,0,0,rectangle,4,3,1,0,0,2,1,"[100,135,107,116,127,105,85,86,21,114]",4,3,1,0,0,1,71,152,44,1,Purple,Purple.jpg,Purple,Purple.jpg,,
,,,,,,,,,,,,,,,,,,-1,,,,,,,,,,,,,,,,,,,,,,,,,,,,,,5f2bfa55937b6c0143766367,001,2021-12-06_03h17.57.310,jm_natural_scene_simialrity_2-12-2021,2021.2.3,Win32,144.0714594,5f2bfa55937b6c0143766367,61ad71e11ddd29ccf7a27d5b,61ad72b8676854484eba5da1,,,-28,-102,1,0,0,response5disk,3.278,9,-13,1,0,0,rectangle,9,-13,1,0,0,2,-4,"[100,135,107,116,127,105,85,86,21,114]",9,-13,1,0,0,1,72,153,62,1,LightBlue,LightBlue.jpg,LightGreen,LightGreen.jpg,,
,,,,,,,,,,,,,,,,,,-1,,,,,,,,,,,,,,,,,,,,,,,,,,,,,,5f2bfa55937b6c0143766367,001,2021-12-06_03h17.57.310,jm_natural_scene_simialrity_2-12-2021,2021.2.3,Win32,144.0714594,5f2bfa55937b6c0143766367,61ad71e11ddd29ccf7a27d5b,61ad72b8676854484eba5da1,,,-36,-104,1,0,0,response5disk,1.4446,14,-17,1,0,0,rectangle,14,-17,1,0,0,2,2,"[100,135,107,116,127,105,85,86,21,114]",14,-17,1,0,0,1,73,154,6,1,Red,Red.jpg,DarkBlue,DarkBlue.jpg,,
,,,,,,,,,,,,,,,,,,1,,,,,,,,,,,,,,,,,,,,,,,,,,,,,,5f2bfa55937b6c0143766367,001,2021-12-06_03h17.57.310,jm_natural_scene_simialrity_2-12-2021,2021.2.3,Win32,144.0714594,5f2bfa55937b6c0143766367,61ad71e11ddd29ccf7a27d5b,61ad72b8676854484eba5da1,,,51,-71,1,0,0,response3disk,1.0626,-4,-2,1,0,0,rectangle,-4,-2,1,0,0,2,3,"[100,135,107,116,127,105,85,86,21,114]",-4,-2,1,0,0,1,74,155,71,1,LightBlue,LightBlue.jpg,Turquiose,Turquiose.jpg,,
,,,,,,,,,,,,,,,,,,2,,,,,,,,,,,,,,,,,,,,,,,,,,,,,,5f2bfa55937b6c0143766367,001,2021-12-06_03h17.57.310,jm_natural_scene_simialrity_2-12-2021,2021.2.3,Win32,144.0714594,5f2bfa55937b6c0143766367,61ad71e11ddd29ccf7a27d5b,61ad72b8676854484eba5da1,,,80,-37,1,0,0,response3disk,0.604,8,-3,1,0,0,rectangle,8,-3,1,0,0,2,3,"[100,135,107,116,127,105,85,86,21,114]",8,-3,1,0,0,1,75,156,60,1,DarkGreen,DarkGreen.jpg,LightGreen,LightGreen.jpg,,
,,,,,,,,,,,,,,,,,,3,,,,,,,,,,,,,,,,,,,,,,,,,,,,,,5f2bfa55937b6c0143766367,001,2021-12-06_03h17.57.310,jm_natural_scene_simialrity_2-12-2021,2021.2.3,Win32,144.0714594,5f2bfa55937b6c0143766367,61ad71e11ddd29ccf7a27d5b,61ad72b8676854484eba5da1,,,96,48,1,0,0,response1disk,0.625,-11,0,1,0,0,rectangle,-11,0,1,0,0,2,-4,"[100,135,107,116,127,105,85,86,21,114]",-11,0,1,0,0,1,76,157,7,1,Red,Red.jpg,Pink,Pink.jpg,,
,,,,,,,,,,,,,,,,,,3,,,,,,,,,,,,,,,,,,,,,,,,,,,,,,5f2bfa55937b6c0143766367,001,2021-12-06_03h17.57.310,jm_natural_scene_simialrity_2-12-2021,2021.2.3,Win32,144.0714594,5f2bfa55937b6c0143766367,61ad71e11ddd29ccf7a27d5b,61ad72b8676854484eba5da1,,,83,51,1,0,0,response1disk,0.8889,-1,1,1,0,0,rectangle,-1,1,1,0,0,2,-3,"[100,135,107,116,127,105,85,86,21,114]",-1,1,1,0,0,1,77,158,45,1,Yellow,Yellow.jpg,Red,Red.jpg,,
,,,,,,,,,,,,,,,,,,-2,,,,,,,,,,,,,,,,,,,,,,,,,,,,,,5f2bfa55937b6c0143766367,001,2021-12-06_03h17.57.310,jm_natural_scene_simialrity_2-12-2021,2021.2.3,Win32,144.0714594,5f2bfa55937b6c0143766367,61ad71e11ddd29ccf7a27d5b,61ad72b8676854484eba5da1,,,-79,-32,1,0,0,response5disk,2.2294,0,16,1,0,0,rectangle,0,16,1,0,0,2,3,"[100,135,107,116,127,105,85,86,21,114]",0,16,1,0,0,1,78,159,13,1,Yellow,Yellow.jpg,LightBlue,LightBlue.jpg,,
,,,,,,,,,,,,,,,,,,2,,,,,,,,,,,,,,,,,,,,,,,,,,,,,,5f2bfa55937b6c0143766367,001,2021-12-06_03h17.57.310,jm_natural_scene_simialrity_2-12-2021,2021.2.3,Win32,144.0714594,5f2bfa55937b6c0143766367,61ad71e11ddd29ccf7a27d5b,61ad72b8676854484eba5da1,,,70,-45,1,0,0,response3disk,1.0418,15,3,1,0,0,rectangle,15,3,1,0,0,2,2,"[100,135,107,116,127,105,85,86,21,114]",15,3,1,0,0,1,79,160,19,1,LightGreen,LightGreen.jpg,Turquiose,Turquiose.jpg,,
,,,,,,,,,,,,,,,,,,1,,,,,,,,,,,,,,,,,,,,,,,,,,,,,,5f2bfa55937b6c0143766367,001,2021-12-06_03h17.57.310,jm_natural_scene_simialrity_2-12-2021,2021.2.3,Win32,144.0714594,5f2bfa55937b6c0143766367,61ad71e11ddd29ccf7a27d5b,61ad72b8676854484eba5da1,,,32,-87,1,0,0,response3disk,1.1667,0,-9,1,0,0,rectangle,0,-9,1,0,0,2,2,"[100,135,107,116,127,105,85,86,21,114]",0,-9,1,0,0,1,80,161,26,1,DarkGreen,DarkGreen.jpg,LightBlue,LightBlue.jpg,,
