key_resp.keys,key_resp.rt,key_resp_16.keys,key_resp_16.rt,key_resp_2.keys,key_resp_2.rt,key_resp_3.keys,key_resp_3.rt,key_resp_19.keys,key_resp_19.rt,key_resp_10.keys,key_resp_10.rt,mouse_prac.x,mouse_prac.y,mouse_prac.leftButton,mouse_prac.midButton,mouse_prac.rightButton,mouse_prac.clicked_name,similarity,mouse_10.x,mouse_10.y,mouse_10.leftButton,mouse_10.midButton,mouse_10.rightButton,mouse_10.clicked_name,mouse_catch_prac.x,mouse_catch_prac.y,mouse_catch_prac.leftButton,mouse_catch_prac.midButton,mouse_catch_prac.rightButton,catchnumberprac,mouse_6.x,mouse_6.y,mouse_6.leftButton,mouse_6.midButton,mouse_6.rightButton,during_prac.thisRepN,during_prac.thisTrialN,during_prac.thisN,during_prac.thisIndex,during_prac.ran,trailimage1,trial1adress,trailimage2,trial2adress,participant,session,date,expName,psychopyVersion,OS,frameRate,PROLIFIC_PID,STUDY_ID,SESSION_ID,mouse_catch_prac.clicked_name,catchprac,mouse_6.clicked_name,key_resp_22.keys,key_resp_22.rt,mouse.x,mouse.y,mouse.leftButton,mouse.midButton,mouse.rightButton,mouse.clicked_name,response_time,mouse_2.x,mouse_2.y,mouse_2.leftButton,mouse_2.midButton,mouse_2.rightButton,mouse_2.clicked_name,mouse_3.x,mouse_3.y,mouse_3.leftButton,mouse_3.midButton,mouse_3.rightButton,catchresponse,catchnumber,catchtrialorder,mouse_11.x,mouse_11.y,mouse_11.leftButton,mouse_11.midButton,mouse_11.rightButton,trials_2.thisRepN,trials_2.thisTrialN,trials_2.thisN,trials_2.thisIndex,trials_2.ran,image1,image1adress,image2,image2adress,mouse_3.clicked_name,mouse_11.clicked_name
space,4.1176,space,16.8734,space,8.7381,space,24.2429,space,12.2791,space,12.4337,51,117,1,0,0,response1disk_5,4,-1,-3,1,0,0,rectangle_8,-1,-3,1,0,0,-4,-1,-3,1,0,0,0,0,0,1,1,trail1,trail1.jpg,trail2,trail2.jpg,5fa48cbe7b244412adf37bb1,001,2021-12-06_04h18.19.488,jm_natural_scene_simialrity_2-12-2021,2021.2.3,Win32,60.0024001,5fa48cbe7b244412adf37bb1,61ad71e11ddd29ccf7a27d5b,61ad72c34004b356baa028c6,,,,,,,,,,,,,,,,,,,,,,,,,,,,,,,,,,,,,,,,,,
,,,,,,,,,,,,79,-66,1,0,0,response3disk_5,2,-4,-12,1,0,0,rectangle_8,-4,-12,1,0,0,-4,-4,-12,1,0,0,0,1,1,3,1,trail2,trail2.jpg,trail2,trail2.jpg,5fa48cbe7b244412adf37bb1,001,2021-12-06_04h18.19.488,jm_natural_scene_simialrity_2-12-2021,2021.2.3,Win32,60.0024001,5fa48cbe7b244412adf37bb1,61ad71e11ddd29ccf7a27d5b,61ad72c34004b356baa028c6,,,,,,,,,,,,,,,,,,,,,,,,,,,,,,,,,,,,,,,,,,
,,,,,,,,,,,,122,48,1,0,0,response1disk_5,3,-4,6,1,0,0,rectangle_8,-42,116,1,0,0,-4,10,-7,1,0,0,0,2,2,5,1,trail3,trail3.jpg,trail3,trail3.jpg,5fa48cbe7b244412adf37bb1,001,2021-12-06_04h18.19.488,jm_natural_scene_simialrity_2-12-2021,2021.2.3,Win32,60.0024001,5fa48cbe7b244412adf37bb1,61ad71e11ddd29ccf7a27d5b,61ad72c34004b356baa028c6,response7disk_7,-4,rectangle_4,,,,,,,,,,,,,,,,,,,,,,,,,,,,,,,,,,,,,,,
,,,,,,,,,,,,-80,-93,1,0,0,response5disk_5,-1,-7,1,1,0,0,rectangle_8,-7,1,1,0,0,-4,-7,1,1,0,0,0,3,3,4,1,trail2,trail2.jpg,trail3,trail3.jpg,5fa48cbe7b244412adf37bb1,001,2021-12-06_04h18.19.488,jm_natural_scene_simialrity_2-12-2021,2021.2.3,Win32,60.0024001,5fa48cbe7b244412adf37bb1,61ad71e11ddd29ccf7a27d5b,61ad72c34004b356baa028c6,,,,,,,,,,,,,,,,,,,,,,,,,,,,,,,,,,,,,,,,,,
,,,,,,,,,,,,23,-107,1,0,0,response3disk_5,1,4,16,1,0,0,rectangle_8,-59,110,1,0,0,-4,3,-2,1,0,0,0,4,4,2,1,trail1,trail1.jpg,trail3,trail3.jpg,5fa48cbe7b244412adf37bb1,001,2021-12-06_04h18.19.488,jm_natural_scene_simialrity_2-12-2021,2021.2.3,Win32,60.0024001,5fa48cbe7b244412adf37bb1,61ad71e11ddd29ccf7a27d5b,61ad72c34004b356baa028c6,response7disk_7,-4,rectangle_4,,,,,,,,,,,,,,,,,,,,,,,,,,,,,,,,,,,,,,,
,,,,,,,,,,,,40,98,1,0,0,response1disk_5,4,0,7,1,0,0,rectangle_8,0,7,1,0,0,-4,0,7,1,0,0,0,5,5,0,1,trail1,trail1.jpg,trail1,trail1.jpg,5fa48cbe7b244412adf37bb1,001,2021-12-06_04h18.19.488,jm_natural_scene_simialrity_2-12-2021,2021.2.3,Win32,60.0024001,5fa48cbe7b244412adf37bb1,61ad71e11ddd29ccf7a27d5b,61ad72c34004b356baa028c6,,,,,,,,,,,,,,,,,,,,,,,,,,,,,,,,,,,,,,,,,,
,,,,,,,,,,,,,,,,,,2,,,,,,,,,,,,,,,,,,,,,,,,,,,5fa48cbe7b244412adf37bb1,001,2021-12-06_04h18.19.488,jm_natural_scene_simialrity_2-12-2021,2021.2.3,Win32,60.0024001,5fa48cbe7b244412adf37bb1,61ad71e11ddd29ccf7a27d5b,61ad72c34004b356baa028c6,,,,space,3.9341,80,-52,1,0,0,response3disk,22.1086,2,8,1,0,0,rectangle,2,8,1,0,0,,-4,"[33,31,42,72,127,8,129,72,75,66]",2,8,1,0,0,0,0,0,62,1,LightBlue,LightBlue.jpg,LightGreen,LightGreen.jpg,,
,,,,,,,,,,,,,,,,,,-1,,,,,,,,,,,,,,,,,,,,,,,,,,,5fa48cbe7b244412adf37bb1,001,2021-12-06_04h18.19.488,jm_natural_scene_simialrity_2-12-2021,2021.2.3,Win32,60.0024001,5fa48cbe7b244412adf37bb1,61ad71e11ddd29ccf7a27d5b,61ad72c34004b356baa028c6,,,,,,-57,-96,1,0,0,response5disk,6.2027,-16,4,1,0,0,rectangle,-16,4,1,0,0,,2,"[33,31,42,72,127,8,129,72,75,66]",-16,4,1,0,0,0,1,1,45,1,Yellow,Yellow.jpg,Red,Red.jpg,,
,,,,,,,,,,,,,,,,,,-4,,,,,,,,,,,,,,,,,,,,,,,,,,,5fa48cbe7b244412adf37bb1,001,2021-12-06_04h18.19.488,jm_natural_scene_simialrity_2-12-2021,2021.2.3,Win32,60.0024001,5fa48cbe7b244412adf37bb1,61ad71e11ddd29ccf7a27d5b,61ad72c34004b356baa028c6,,,,,,-80,107,1,0,0,response7disk,2.585,5,4,1,0,0,rectangle,5,4,1,0,0,,3,"[33,31,42,72,127,8,129,72,75,66]",5,4,1,0,0,0,2,2,47,1,DarkGreen,DarkGreen.jpg,Red,Red.jpg,,
,,,,,,,,,,,,,,,,,,-4,,,,,,,,,,,,,,,,,,,,,,,,,,,5fa48cbe7b244412adf37bb1,001,2021-12-06_04h18.19.488,jm_natural_scene_simialrity_2-12-2021,2021.2.3,Win32,60.0024001,5fa48cbe7b244412adf37bb1,61ad71e11ddd29ccf7a27d5b,61ad72c34004b356baa028c6,,,,,,-69,91,1,0,0,response7disk,2.6268,5,-10,1,0,0,rectangle,5,-10,1,0,0,,-3,"[33,31,42,72,127,8,129,72,75,66]",5,-10,1,0,0,0,3,3,3,1,Red,Red.jpg,DarkGreen,DarkGreen.jpg,,
,,,,,,,,,,,,,,,,,,-2,,,,,,,,,,,,,,,,,,,,,,,,,,,5fa48cbe7b244412adf37bb1,001,2021-12-06_04h18.19.488,jm_natural_scene_simialrity_2-12-2021,2021.2.3,Win32,60.0024001,5fa48cbe7b244412adf37bb1,61ad71e11ddd29ccf7a27d5b,61ad72c34004b356baa028c6,,,,,,-121,-46,1,0,0,response5disk,2.8786,4,0,1,0,0,rectangle,4,0,1,0,0,,-2,"[33,31,42,72,127,8,129,72,75,66]",4,0,1,0,0,0,4,4,48,1,Turquiose,Turquiose.jpg,Red,Red.jpg,,
,,,,,,,,,,,,,,,,,,-4,,,,,,,,,,,,,,,,,,,,,,,,,,,5fa48cbe7b244412adf37bb1,001,2021-12-06_04h18.19.488,jm_natural_scene_simialrity_2-12-2021,2021.2.3,Win32,60.0024001,5fa48cbe7b244412adf37bb1,61ad71e11ddd29ccf7a27d5b,61ad72c34004b356baa028c6,,,,,,-28,114,1,0,0,response7disk,2.0082,12,-2,1,0,0,rectangle,12,-2,1,0,0,,-3,"[33,31,42,72,127,8,129,72,75,66]",12,-2,1,0,0,0,5,5,12,1,Yellow,Yellow.jpg,Turquiose,Turquiose.jpg,,
,,,,,,,,,,,,,,,,,,-3,,,,,,,,,,,,,,,,,,,,,,,,,,,5fa48cbe7b244412adf37bb1,001,2021-12-06_04h18.19.488,jm_natural_scene_simialrity_2-12-2021,2021.2.3,Win32,60.0024001,5fa48cbe7b244412adf37bb1,61ad71e11ddd29ccf7a27d5b,61ad72c34004b356baa028c6,,,,,,-72,51,1,0,0,response7disk,1.934,0,8,1,0,0,rectangle,0,8,1,0,0,,3,"[33,31,42,72,127,8,129,72,75,66]",0,8,1,0,0,0,6,6,76,1,Pink,Pink.jpg,LightBlue,LightBlue.jpg,,
,,,,,,,,,,,,,,,,,,-2,,,,,,,,,,,,,,,,,,,,,,,,,,,5fa48cbe7b244412adf37bb1,001,2021-12-06_04h18.19.488,jm_natural_scene_simialrity_2-12-2021,2021.2.3,Win32,60.0024001,5fa48cbe7b244412adf37bb1,61ad71e11ddd29ccf7a27d5b,61ad72c34004b356baa028c6,,,,,,-102,-28,1,0,0,response5disk,2.4071,-17,-9,1,0,0,rectangle,-103,-41,1,0,0,,-2,"[33,31,42,72,127,8,129,72,75,66]",1,3,1,0,0,0,7,7,1,1,Red,Red.jpg,Yellow,Yellow.jpg,response5disk_3,rectangle
,,,,,,,,,,,,,,,,,,-4,,,,,,,,,,,,,,,,,,,,,,,,,,,5fa48cbe7b244412adf37bb1,001,2021-12-06_04h18.19.488,jm_natural_scene_simialrity_2-12-2021,2021.2.3,Win32,60.0024001,5fa48cbe7b244412adf37bb1,61ad71e11ddd29ccf7a27d5b,61ad72c34004b356baa028c6,,,,,,-58,115,1,0,0,response7disk,5.2184,-11,-4,1,0,0,rectangle,-11,-4,1,0,0,,-4,"[33,31,42,72,127,8,129,72,75,66]",-11,-4,1,0,0,0,8,8,5,1,Red,Red.jpg,LightBlue,LightBlue.jpg,,
,,,,,,,,,,,,,,,,,,-4,,,,,,,,,,,,,,,,,,,,,,,,,,,5fa48cbe7b244412adf37bb1,001,2021-12-06_04h18.19.488,jm_natural_scene_simialrity_2-12-2021,2021.2.3,Win32,60.0024001,5fa48cbe7b244412adf37bb1,61ad71e11ddd29ccf7a27d5b,61ad72c34004b356baa028c6,,,,,,-45,104,1,0,0,response7disk,1.5437,5,-12,1,0,0,rectangle,5,-12,1,0,0,,-1,"[33,31,42,72,127,8,129,72,75,66]",5,-12,1,0,0,0,9,9,6,1,Red,Red.jpg,DarkBlue,DarkBlue.jpg,,
,,,,,,,,,,,,,,,,,,-2,,,,,,,,,,,,,,,,,,,,,,,,,,,5fa48cbe7b244412adf37bb1,001,2021-12-06_04h18.19.488,jm_natural_scene_simialrity_2-12-2021,2021.2.3,Win32,60.0024001,5fa48cbe7b244412adf37bb1,61ad71e11ddd29ccf7a27d5b,61ad72c34004b356baa028c6,,,,,,-114,-35,1,0,0,response5disk,4.5605,13,-4,1,0,0,rectangle,13,-4,1,0,0,,-4,"[33,31,42,72,127,8,129,72,75,66]",13,-4,1,0,0,0,10,10,65,1,Purple,Purple.jpg,LightGreen,LightGreen.jpg,,
,,,,,,,,,,,,,,,,,,-4,,,,,,,,,,,,,,,,,,,,,,,,,,,5fa48cbe7b244412adf37bb1,001,2021-12-06_04h18.19.488,jm_natural_scene_simialrity_2-12-2021,2021.2.3,Win32,60.0024001,5fa48cbe7b244412adf37bb1,61ad71e11ddd29ccf7a27d5b,61ad72c34004b356baa028c6,,,,,,-56,88,1,0,0,response7disk,1.9372,-15,-17,1,0,0,rectangle,-15,-17,1,0,0,,-3,"[33,31,42,72,127,8,129,72,75,66]",-15,-17,1,0,0,0,11,11,14,1,Yellow,Yellow.jpg,DarkBlue,DarkBlue.jpg,,
,,,,,,,,,,,,,,,,,,-4,,,,,,,,,,,,,,,,,,,,,,,,,,,5fa48cbe7b244412adf37bb1,001,2021-12-06_04h18.19.488,jm_natural_scene_simialrity_2-12-2021,2021.2.3,Win32,60.0024001,5fa48cbe7b244412adf37bb1,61ad71e11ddd29ccf7a27d5b,61ad72c34004b356baa028c6,,,,,,-49,104,1,0,0,response7disk,1.2835,7,-9,1,0,0,rectangle,7,-9,1,0,0,,-4,"[33,31,42,72,127,8,129,72,75,66]",7,-9,1,0,0,0,12,12,22,1,LightGreen,LightGreen.jpg,Pink,Pink.jpg,,
,,,,,,,,,,,,,,,,,,-4,,,,,,,,,,,,,,,,,,,,,,,,,,,5fa48cbe7b244412adf37bb1,001,2021-12-06_04h18.19.488,jm_natural_scene_simialrity_2-12-2021,2021.2.3,Win32,60.0024001,5fa48cbe7b244412adf37bb1,61ad71e11ddd29ccf7a27d5b,61ad72c34004b356baa028c6,,,,,,-54,105,1,0,0,response7disk,1.2735,-13,-16,1,0,0,rectangle,-13,-16,1,0,0,,-3,"[33,31,42,72,127,8,129,72,75,66]",-13,-16,1,0,0,0,13,13,64,1,Pink,Pink.jpg,LightGreen,LightGreen.jpg,,
,,,,,,,,,,,,,,,,,,3,,,,,,,,,,,,,,,,,,,,,,,,,,,5fa48cbe7b244412adf37bb1,001,2021-12-06_04h18.19.488,jm_natural_scene_simialrity_2-12-2021,2021.2.3,Win32,60.0024001,5fa48cbe7b244412adf37bb1,61ad71e11ddd29ccf7a27d5b,61ad72c34004b356baa028c6,,,,,,136,42,1,0,0,response1disk,1.9519,-14,8,1,0,0,rectangle,-14,8,1,0,0,,3,"[33,31,42,72,127,8,129,72,75,66]",-14,8,1,0,0,0,14,14,7,1,Red,Red.jpg,Pink,Pink.jpg,,
,,,,,,,,,,,,,,,,,,1,,,,,,,,,,,,,,,,,,,,,,,,,,,5fa48cbe7b244412adf37bb1,001,2021-12-06_04h18.19.488,jm_natural_scene_simialrity_2-12-2021,2021.2.3,Win32,60.0024001,5fa48cbe7b244412adf37bb1,61ad71e11ddd29ccf7a27d5b,61ad72c34004b356baa028c6,,,,,,25,-60,1,0,0,response3disk,2.1422,-3,0,1,0,0,rectangle,-3,0,1,0,0,,-4,"[33,31,42,72,127,8,129,72,75,66]",-3,0,1,0,0,0,15,15,21,1,LightGreen,LightGreen.jpg,DarkBlue,DarkBlue.jpg,,
,,,,,,,,,,,,,,,,,,-3,,,,,,,,,,,,,,,,,,,,,,,,,,,5fa48cbe7b244412adf37bb1,001,2021-12-06_04h18.19.488,jm_natural_scene_simialrity_2-12-2021,2021.2.3,Win32,60.0024001,5fa48cbe7b244412adf37bb1,61ad71e11ddd29ccf7a27d5b,61ad72c34004b356baa028c6,,,,,,-106,48,1,0,0,response7disk,1.8672,-3,-9,1,0,0,rectangle,-3,-9,1,0,0,,-3,"[33,31,42,72,127,8,129,72,75,66]",-3,-9,1,0,0,0,16,16,10,1,Yellow,Yellow.jpg,LightGreen,LightGreen.jpg,,
,,,,,,,,,,,,,,,,,,-4,,,,,,,,,,,,,,,,,,,,,,,,,,,5fa48cbe7b244412adf37bb1,001,2021-12-06_04h18.19.488,jm_natural_scene_simialrity_2-12-2021,2021.2.3,Win32,60.0024001,5fa48cbe7b244412adf37bb1,61ad71e11ddd29ccf7a27d5b,61ad72c34004b356baa028c6,,,,,,-42,81,1,0,0,response7disk,1.9591,-6,2,1,0,0,rectangle,-6,2,1,0,0,,1,"[33,31,42,72,127,8,129,72,75,66]",-6,2,1,0,0,0,17,17,50,1,DarkBlue,DarkBlue.jpg,Red,Red.jpg,,
,,,,,,,,,,,,,,,,,,-1,,,,,,,,,,,,,,,,,,,,,,,,,,,5fa48cbe7b244412adf37bb1,001,2021-12-06_04h18.19.488,jm_natural_scene_simialrity_2-12-2021,2021.2.3,Win32,60.0024001,5fa48cbe7b244412adf37bb1,61ad71e11ddd29ccf7a27d5b,61ad72c34004b356baa028c6,,,,,,-58,-109,1,0,0,response5disk,2.1887,13,-9,1,0,0,rectangle,13,-9,1,0,0,,-3,"[33,31,42,72,127,8,129,72,75,66]",13,-9,1,0,0,0,18,18,67,1,LightBlue,LightBlue.jpg,DarkGreen,DarkGreen.jpg,,
,,,,,,,,,,,,,,,,,,4,,,,,,,,,,,,,,,,,,,,,,,,,,,5fa48cbe7b244412adf37bb1,001,2021-12-06_04h18.19.488,jm_natural_scene_simialrity_2-12-2021,2021.2.3,Win32,60.0024001,5fa48cbe7b244412adf37bb1,61ad71e11ddd29ccf7a27d5b,61ad72c34004b356baa028c6,,,,,,88,104,1,0,0,response1disk,1.0337,13,15,1,0,0,rectangle,13,15,1,0,0,,1,"[33,31,42,72,127,8,129,72,75,66]",13,15,1,0,0,0,19,19,0,1,Red,Red.jpg,Red,Red.jpg,,
,,,,,,,,,,,,,,,,,,2,,,,,,,,,,,,,,,,,,,,,,,,,,,5fa48cbe7b244412adf37bb1,001,2021-12-06_04h18.19.488,jm_natural_scene_simialrity_2-12-2021,2021.2.3,Win32,60.0024001,5fa48cbe7b244412adf37bb1,61ad71e11ddd29ccf7a27d5b,61ad72c34004b356baa028c6,,,,,,93,-72,1,0,0,response3disk,1.5707,-8,2,1,0,0,rectangle,-8,2,1,0,0,,-4,"[33,31,42,72,127,8,129,72,75,66]",-8,2,1,0,0,0,20,20,77,1,Purple,Purple.jpg,LightBlue,LightBlue.jpg,,
,,,,,,,,,,,,,,,,,,4,,,,,,,,,,,,,,,,,,,,,,,,,,,5fa48cbe7b244412adf37bb1,001,2021-12-06_04h18.19.488,jm_natural_scene_simialrity_2-12-2021,2021.2.3,Win32,60.0024001,5fa48cbe7b244412adf37bb1,61ad71e11ddd29ccf7a27d5b,61ad72c34004b356baa028c6,,,,,,71,77,1,0,0,response1disk,1.0567,8,18,1,0,0,rectangle,8,18,1,0,0,,-2,"[33,31,42,72,127,8,129,72,75,66]",8,18,1,0,0,0,21,21,17,1,LightGreen,LightGreen.jpg,LightGreen,LightGreen.jpg,,
,,,,,,,,,,,,,,,,,,-1,,,,,,,,,,,,,,,,,,,,,,,,,,,5fa48cbe7b244412adf37bb1,001,2021-12-06_04h18.19.488,jm_natural_scene_simialrity_2-12-2021,2021.2.3,Win32,60.0024001,5fa48cbe7b244412adf37bb1,61ad71e11ddd29ccf7a27d5b,61ad72c34004b356baa028c6,,,,,,-52,-110,1,0,0,response5disk,1.8178,10,14,1,0,0,rectangle,10,14,1,0,0,,3,"[33,31,42,72,127,8,129,72,75,66]",10,14,1,0,0,0,22,22,37,1,LightBlue,LightBlue.jpg,Pink,Pink.jpg,,
,,,,,,,,,,,,,,,,,,-4,,,,,,,,,,,,,,,,,,,,,,,,,,,5fa48cbe7b244412adf37bb1,001,2021-12-06_04h18.19.488,jm_natural_scene_simialrity_2-12-2021,2021.2.3,Win32,60.0024001,5fa48cbe7b244412adf37bb1,61ad71e11ddd29ccf7a27d5b,61ad72c34004b356baa028c6,,,,,,-38,140,1,0,0,response7disk,1.3518,8,12,1,0,0,rectangle,8,12,1,0,0,,-2,"[33,31,42,72,127,8,129,72,75,66]",8,12,1,0,0,0,23,23,4,1,Red,Red.jpg,Turquiose,Turquiose.jpg,,
,,,,,,,,,,,,,,,,,,-4,,,,,,,,,,,,,,,,,,,,,,,,,,,5fa48cbe7b244412adf37bb1,001,2021-12-06_04h18.19.488,jm_natural_scene_simialrity_2-12-2021,2021.2.3,Win32,60.0024001,5fa48cbe7b244412adf37bb1,61ad71e11ddd29ccf7a27d5b,61ad72c34004b356baa028c6,,,,,,-33,60,1,0,0,response7disk,1.2505,-3,-6,1,0,0,rectangle,-3,-6,1,0,0,,2,"[33,31,42,72,127,8,129,72,75,66]",-3,-6,1,0,0,0,24,24,55,1,Turquiose,Turquiose.jpg,Yellow,Yellow.jpg,,
,,,,,,,,,,,,,,,,,,-1,,,,,,,,,,,,,,,,,,,,,,,,,,,5fa48cbe7b244412adf37bb1,001,2021-12-06_04h18.19.488,jm_natural_scene_simialrity_2-12-2021,2021.2.3,Win32,60.0024001,5fa48cbe7b244412adf37bb1,61ad71e11ddd29ccf7a27d5b,61ad72c34004b356baa028c6,,,,,,-60,-99,1,0,0,response5disk,2.9672,7,-12,1,0,0,rectangle,7,-12,1,0,0,,1,"[33,31,42,72,127,8,129,72,75,66]",7,-12,1,0,0,0,25,25,26,1,DarkGreen,DarkGreen.jpg,LightBlue,LightBlue.jpg,,
,,,,,,,,,,,,,,,,,,-2,,,,,,,,,,,,,,,,,,,,,,,,,,,5fa48cbe7b244412adf37bb1,001,2021-12-06_04h18.19.488,jm_natural_scene_simialrity_2-12-2021,2021.2.3,Win32,60.0024001,5fa48cbe7b244412adf37bb1,61ad71e11ddd29ccf7a27d5b,61ad72c34004b356baa028c6,,,,,,-111,-54,1,0,0,response5disk,3.4575,-7,-6,1,0,0,rectangle,-7,-6,1,0,0,,2,"[33,31,42,72,127,8,129,72,75,66]",-7,-6,1,0,0,0,26,26,53,1,LightGreen,LightGreen.jpg,Yellow,Yellow.jpg,,
,,,,,,,,,,,,,,,,,,-2,,,,,,,,,,,,,,,,,,,,,,,,,,,5fa48cbe7b244412adf37bb1,001,2021-12-06_04h18.19.488,jm_natural_scene_simialrity_2-12-2021,2021.2.3,Win32,60.0024001,5fa48cbe7b244412adf37bb1,61ad71e11ddd29ccf7a27d5b,61ad72c34004b356baa028c6,,,,,,-89,-51,1,0,0,response5disk,3.9243,-22,-8,1,0,0,rectangle,-22,-8,1,0,0,,1,"[33,31,42,72,127,8,129,72,75,66]",-22,-8,1,0,0,0,27,27,59,1,Purple,Purple.jpg,Yellow,Yellow.jpg,,
,,,,,,,,,,,,,,,,,,-4,,,,,,,,,,,,,,,,,,,,,,,,,,,5fa48cbe7b244412adf37bb1,001,2021-12-06_04h18.19.488,jm_natural_scene_simialrity_2-12-2021,2021.2.3,Win32,60.0024001,5fa48cbe7b244412adf37bb1,61ad71e11ddd29ccf7a27d5b,61ad72c34004b356baa028c6,,,,,,-58,88,1,0,0,response7disk,1.9718,-1,-13,1,0,0,rectangle,-1,-13,1,0,0,,-4,"[33,31,42,72,127,8,129,72,75,66]",-1,-13,1,0,0,0,28,28,73,1,Pink,Pink.jpg,Turquiose,Turquiose.jpg,,
,,,,,,,,,,,,,,,,,,2,,,,,,,,,,,,,,,,,,,,,,,,,,,5fa48cbe7b244412adf37bb1,001,2021-12-06_04h18.19.488,jm_natural_scene_simialrity_2-12-2021,2021.2.3,Win32,60.0024001,5fa48cbe7b244412adf37bb1,61ad71e11ddd29ccf7a27d5b,61ad72c34004b356baa028c6,,,,,,63,-54,1,0,0,response3disk,2.1176,-7,5,1,0,0,rectangle,-7,5,1,0,0,,2,"[33,31,42,72,127,8,129,72,75,66]",-7,5,1,0,0,0,29,29,75,1,DarkBlue,DarkBlue.jpg,LightBlue,LightBlue.jpg,,
,,,,,,,,,,,,,,,,,,2,,,,,,,,,,,,,,,,,,,,,,,,,,,5fa48cbe7b244412adf37bb1,001,2021-12-06_04h18.19.488,jm_natural_scene_simialrity_2-12-2021,2021.2.3,Win32,60.0024001,5fa48cbe7b244412adf37bb1,61ad71e11ddd29ccf7a27d5b,61ad72c34004b356baa028c6,,,,,,80,-28,1,0,0,response3disk,1.5972,-21,8,1,0,0,rectangle,-104,52,1,0,0,-3,-3,"[33,31,42,72,127,8,129,72,75,66]",-4,4,1,0,0,0,30,30,8,1,Red,Red.jpg,Purple,Purple.jpg,response7disk_3,rectangle
,,,,,,,,,,,,,,,,,,4,,,,,,,,,,,,,,,,,,,,,,,,,,,5fa48cbe7b244412adf37bb1,001,2021-12-06_04h18.19.488,jm_natural_scene_simialrity_2-12-2021,2021.2.3,Win32,60.0024001,5fa48cbe7b244412adf37bb1,61ad71e11ddd29ccf7a27d5b,61ad72c34004b356baa028c6,,,,,,47,103,1,0,0,response1disk,2.1961,12,-2,1,0,0,rectangle,12,-2,1,0,0,-3,1,"[33,31,42,72,127,8,129,72,75,66]",12,-2,1,0,0,0,31,31,24,1,DarkGreen,DarkGreen.jpg,DarkGreen,DarkGreen.jpg,,
,,,,,,,,,,,,,,,,,,1,,,,,,,,,,,,,,,,,,,,,,,,,,,5fa48cbe7b244412adf37bb1,001,2021-12-06_04h18.19.488,jm_natural_scene_simialrity_2-12-2021,2021.2.3,Win32,60.0024001,5fa48cbe7b244412adf37bb1,61ad71e11ddd29ccf7a27d5b,61ad72c34004b356baa028c6,,,,,,41,-67,1,0,0,response3disk,1.7229,-11,-12,1,0,0,rectangle,-45,107,1,0,0,-4,-4,"[33,31,42,72,127,8,129,72,75,66]",0,3,1,0,0,0,32,32,54,1,DarkGreen,DarkGreen.jpg,Yellow,Yellow.jpg,response7disk_3,rectangle
,,,,,,,,,,,,,,,,,,-2,,,,,,,,,,,,,,,,,,,,,,,,,,,5fa48cbe7b244412adf37bb1,001,2021-12-06_04h18.19.488,jm_natural_scene_simialrity_2-12-2021,2021.2.3,Win32,60.0024001,5fa48cbe7b244412adf37bb1,61ad71e11ddd29ccf7a27d5b,61ad72c34004b356baa028c6,,,,,,-84,-53,1,0,0,response5disk,1.8337,-8,-8,1,0,0,rectangle,-8,-8,1,0,0,-4,-1,"[33,31,42,72,127,8,129,72,75,66]",-8,-8,1,0,0,0,33,33,16,1,Yellow,Yellow.jpg,Purple,Purple.jpg,,
,,,,,,,,,,,,,,,,,,2,,,,,,,,,,,,,,,,,,,,,,,,,,,5fa48cbe7b244412adf37bb1,001,2021-12-06_04h18.19.488,jm_natural_scene_simialrity_2-12-2021,2021.2.3,Win32,60.0024001,5fa48cbe7b244412adf37bb1,61ad71e11ddd29ccf7a27d5b,61ad72c34004b356baa028c6,,,,,,65,-27,1,0,0,response3disk,1.8041,-4,7,1,0,0,rectangle,-4,7,1,0,0,-4,-3,"[33,31,42,72,127,8,129,72,75,66]",-4,7,1,0,0,0,34,34,71,1,LightBlue,LightBlue.jpg,Turquiose,Turquiose.jpg,,
,,,,,,,,,,,,,,,,,,-1,,,,,,,,,,,,,,,,,,,,,,,,,,,5fa48cbe7b244412adf37bb1,001,2021-12-06_04h18.19.488,jm_natural_scene_simialrity_2-12-2021,2021.2.3,Win32,60.0024001,5fa48cbe7b244412adf37bb1,61ad71e11ddd29ccf7a27d5b,61ad72c34004b356baa028c6,,,,,,-38,-75,1,0,0,response5disk,1.4422,6,6,1,0,0,rectangle,6,6,1,0,0,-4,2,"[33,31,42,72,127,8,129,72,75,66]",6,6,1,0,0,0,35,35,20,1,LightGreen,LightGreen.jpg,LightBlue,LightBlue.jpg,,
,,,,,,,,,,,,,,,,,,3,,,,,,,,,,,,,,,,,,,,,,,,,,,5fa48cbe7b244412adf37bb1,001,2021-12-06_04h18.19.488,jm_natural_scene_simialrity_2-12-2021,2021.2.3,Win32,60.0024001,5fa48cbe7b244412adf37bb1,61ad71e11ddd29ccf7a27d5b,61ad72c34004b356baa028c6,,,,,,82,40,1,0,0,response1disk,1.5073,6,5,1,0,0,rectangle,6,5,1,0,0,-4,-2,"[33,31,42,72,127,8,129,72,75,66]",6,5,1,0,0,0,36,36,38,1,LightBlue,LightBlue.jpg,Purple,Purple.jpg,,
,,,,,,,,,,,,,,,,,,-2,,,,,,,,,,,,,,,,,,,,,,,,,,,5fa48cbe7b244412adf37bb1,001,2021-12-06_04h18.19.488,jm_natural_scene_simialrity_2-12-2021,2021.2.3,Win32,60.0024001,5fa48cbe7b244412adf37bb1,61ad71e11ddd29ccf7a27d5b,61ad72c34004b356baa028c6,,,,,,-104,-24,1,0,0,response5disk,1.367,-16,-8,1,0,0,rectangle,-16,-8,1,0,0,-4,1,"[33,31,42,72,127,8,129,72,75,66]",-16,-8,1,0,0,0,37,37,13,1,Yellow,Yellow.jpg,LightBlue,LightBlue.jpg,,
,,,,,,,,,,,,,,,,,,-3,,,,,,,,,,,,,,,,,,,,,,,,,,,5fa48cbe7b244412adf37bb1,001,2021-12-06_04h18.19.488,jm_natural_scene_simialrity_2-12-2021,2021.2.3,Win32,60.0024001,5fa48cbe7b244412adf37bb1,61ad71e11ddd29ccf7a27d5b,61ad72c34004b356baa028c6,,,,,,-66,32,1,0,0,response7disk,1.7215,3,-4,1,0,0,rectangle,3,-4,1,0,0,-4,-4,"[33,31,42,72,127,8,129,72,75,66]",3,-4,1,0,0,0,38,38,29,1,DarkGreen,DarkGreen.jpg,Purple,Purple.jpg,,
,,,,,,,,,,,,,,,,,,3,,,,,,,,,,,,,,,,,,,,,,,,,,,5fa48cbe7b244412adf37bb1,001,2021-12-06_04h18.19.488,jm_natural_scene_simialrity_2-12-2021,2021.2.3,Win32,60.0024001,5fa48cbe7b244412adf37bb1,61ad71e11ddd29ccf7a27d5b,61ad72c34004b356baa028c6,,,,,,78,27,1,0,0,response1disk,1.5035,5,0,1,0,0,rectangle,5,0,1,0,0,-4,-2,"[33,31,42,72,127,8,129,72,75,66]",5,0,1,0,0,0,39,39,72,1,DarkBlue,DarkBlue.jpg,Turquiose,Turquiose.jpg,,
,,,,,,,,,,,,,,,,,,4,,,,,,,,,,,,,,,,,,,,,,,,,,,5fa48cbe7b244412adf37bb1,001,2021-12-06_04h18.19.488,jm_natural_scene_simialrity_2-12-2021,2021.2.3,Win32,60.0024001,5fa48cbe7b244412adf37bb1,61ad71e11ddd29ccf7a27d5b,61ad72c34004b356baa028c6,,,,,,71,104,1,0,0,response1disk,0.9613,-11,6,1,0,0,rectangle,-11,6,1,0,0,-4,-4,"[33,31,42,72,127,8,129,72,75,66]",-11,6,1,0,0,0,40,40,39,1,DarkBlue,DarkBlue.jpg,DarkBlue,DarkBlue.jpg,,
,,,,,,,,,,,,,,,,,,4,,,,,,,,,,,,,,,,,,,,,,,,,,,5fa48cbe7b244412adf37bb1,001,2021-12-06_04h18.19.488,jm_natural_scene_simialrity_2-12-2021,2021.2.3,Win32,60.0024001,5fa48cbe7b244412adf37bb1,61ad71e11ddd29ccf7a27d5b,61ad72c34004b356baa028c6,,,,,,45,96,1,0,0,response1disk,1.015,-14,-11,1,0,0,rectangle,-41,-108,1,0,0,-1,-1,"[33,31,42,72,127,8,129,72,75,66]",-11,-12,1,0,0,0,41,41,44,1,Purple,Purple.jpg,Purple,Purple.jpg,response5disk_3,rectangle
,,,,,,,,,,,,,,,,,,4,,,,,,,,,,,,,,,,,,,,,,,,,,,5fa48cbe7b244412adf37bb1,001,2021-12-06_04h18.19.488,jm_natural_scene_simialrity_2-12-2021,2021.2.3,Win32,60.0024001,5fa48cbe7b244412adf37bb1,61ad71e11ddd29ccf7a27d5b,61ad72c34004b356baa028c6,,,,,,49,109,1,0,0,response1disk,1.0204,-1,5,1,0,0,rectangle,-1,5,1,0,0,-1,2,"[33,31,42,72,127,8,129,72,75,66]",-1,5,1,0,0,0,42,42,42,1,Pink,Pink.jpg,Pink,Pink.jpg,,
,,,,,,,,,,,,,,,,,,4,,,,,,,,,,,,,,,,,,,,,,,,,,,5fa48cbe7b244412adf37bb1,001,2021-12-06_04h18.19.488,jm_natural_scene_simialrity_2-12-2021,2021.2.3,Win32,60.0024001,5fa48cbe7b244412adf37bb1,61ad71e11ddd29ccf7a27d5b,61ad72c34004b356baa028c6,,,,,,71,101,0,0,1,response1disk,1.6926,15,1,1,0,0,rectangle,15,1,1,0,0,-1,2,"[33,31,42,72,127,8,129,72,75,66]",15,1,1,0,0,0,43,43,18,1,LightGreen,LightGreen.jpg,DarkGreen,DarkGreen.jpg,,
,,,,,,,,,,,,,,,,,,3,,,,,,,,,,,,,,,,,,,,,,,,,,,5fa48cbe7b244412adf37bb1,001,2021-12-06_04h18.19.488,jm_natural_scene_simialrity_2-12-2021,2021.2.3,Win32,60.0024001,5fa48cbe7b244412adf37bb1,61ad71e11ddd29ccf7a27d5b,61ad72c34004b356baa028c6,,,,,,113,41,1,0,0,response1disk,1.6195,15,-6,1,0,0,rectangle,15,-6,1,0,0,-1,3,"[33,31,42,72,127,8,129,72,75,66]",15,-6,1,0,0,0,44,44,32,1,Turquiose,Turquiose.jpg,DarkBlue,DarkBlue.jpg,,
,,,,,,,,,,,,,,,,,,2,,,,,,,,,,,,,,,,,,,,,,,,,,,5fa48cbe7b244412adf37bb1,001,2021-12-06_04h18.19.488,jm_natural_scene_simialrity_2-12-2021,2021.2.3,Win32,60.0024001,5fa48cbe7b244412adf37bb1,61ad71e11ddd29ccf7a27d5b,61ad72c34004b356baa028c6,,,,,,95,-29,1,0,0,response3disk,1.6669,9,-4,1,0,0,rectangle,9,-4,1,0,0,-1,1,"[33,31,42,72,127,8,129,72,75,66]",9,-4,1,0,0,0,45,45,79,1,Purple,Purple.jpg,DarkBlue,DarkBlue.jpg,,
,,,,,,,,,,,,,,,,,,1,,,,,,,,,,,,,,,,,,,,,,,,,,,5fa48cbe7b244412adf37bb1,001,2021-12-06_04h18.19.488,jm_natural_scene_simialrity_2-12-2021,2021.2.3,Win32,60.0024001,5fa48cbe7b244412adf37bb1,61ad71e11ddd29ccf7a27d5b,61ad72c34004b356baa028c6,,,,,,32,-67,1,0,0,response3disk,1.5082,-2,-6,1,0,0,rectangle,-2,-6,1,0,0,-1,-4,"[33,31,42,72,127,8,129,72,75,66]",-2,-6,1,0,0,0,46,46,68,1,DarkBlue,DarkBlue.jpg,DarkGreen,DarkGreen.jpg,,
,,,,,,,,,,,,,,,,,,-2,,,,,,,,,,,,,,,,,,,,,,,,,,,5fa48cbe7b244412adf37bb1,001,2021-12-06_04h18.19.488,jm_natural_scene_simialrity_2-12-2021,2021.2.3,Win32,60.0024001,5fa48cbe7b244412adf37bb1,61ad71e11ddd29ccf7a27d5b,61ad72c34004b356baa028c6,,,,,,-107,-47,1,0,0,response5disk,1.6341,-5,-11,1,0,0,rectangle,-5,-11,1,0,0,-1,2,"[33,31,42,72,127,8,129,72,75,66]",-5,-11,1,0,0,0,47,47,33,1,Turquiose,Turquiose.jpg,Pink,Pink.jpg,,
,,,,,,,,,,,,,,,,,,-3,,,,,,,,,,,,,,,,,,,,,,,,,,,5fa48cbe7b244412adf37bb1,001,2021-12-06_04h18.19.488,jm_natural_scene_simialrity_2-12-2021,2021.2.3,Win32,60.0024001,5fa48cbe7b244412adf37bb1,61ad71e11ddd29ccf7a27d5b,61ad72c34004b356baa028c6,,,,,,-69,35,1,0,0,response7disk,1.121,-9,0,1,0,0,rectangle,-9,0,1,0,0,-1,-4,"[33,31,42,72,127,8,129,72,75,66]",-9,0,1,0,0,0,48,48,61,1,Turquiose,Turquiose.jpg,LightGreen,LightGreen.jpg,,
,,,,,,,,,,,,,,,,,,-2,,,,,,,,,,,,,,,,,,,,,,,,,,,5fa48cbe7b244412adf37bb1,001,2021-12-06_04h18.19.488,jm_natural_scene_simialrity_2-12-2021,2021.2.3,Win32,60.0024001,5fa48cbe7b244412adf37bb1,61ad71e11ddd29ccf7a27d5b,61ad72c34004b356baa028c6,,,,,,-95,-44,1,0,0,response5disk,1.9698,-20,-12,1,0,0,rectangle,-20,-12,1,0,0,-1,1,"[33,31,42,72,127,8,129,72,75,66]",-20,-12,1,0,0,0,49,49,58,1,Pink,Pink.jpg,Yellow,Yellow.jpg,,
,,,,,,,,,,,,,,,,,,1,,,,,,,,,,,,,,,,,,,,,,,,,,,5fa48cbe7b244412adf37bb1,001,2021-12-06_04h18.19.488,jm_natural_scene_simialrity_2-12-2021,2021.2.3,Win32,60.0024001,5fa48cbe7b244412adf37bb1,61ad71e11ddd29ccf7a27d5b,61ad72c34004b356baa028c6,,,,,,32,-55,1,0,0,response3disk,3.1906,10,-23,1,0,0,rectangle,10,-23,1,0,0,-1,-3,"[33,31,42,72,127,8,129,72,75,66]",10,-23,1,0,0,0,50,50,52,1,Purple,Purple.jpg,Red,Red.jpg,,
,,,,,,,,,,,,,,,,,,1,,,,,,,,,,,,,,,,,,,,,,,,,,,5fa48cbe7b244412adf37bb1,001,2021-12-06_04h18.19.488,jm_natural_scene_simialrity_2-12-2021,2021.2.3,Win32,60.0024001,5fa48cbe7b244412adf37bb1,61ad71e11ddd29ccf7a27d5b,61ad72c34004b356baa028c6,,,,,,21,-62,1,0,0,response3disk,1.6273,0,-8,1,0,0,rectangle,0,-8,1,0,0,-1,2,"[33,31,42,72,127,8,129,72,75,66]",0,-8,1,0,0,0,51,51,27,1,DarkGreen,DarkGreen.jpg,DarkBlue,DarkBlue.jpg,,
,,,,,,,,,,,,,,,,,,-1,,,,,,,,,,,,,,,,,,,,,,,,,,,5fa48cbe7b244412adf37bb1,001,2021-12-06_04h18.19.488,jm_natural_scene_simialrity_2-12-2021,2021.2.3,Win32,60.0024001,5fa48cbe7b244412adf37bb1,61ad71e11ddd29ccf7a27d5b,61ad72c34004b356baa028c6,,,,,,-43,-68,1,0,0,response5disk,1.7902,-4,16,1,0,0,rectangle,-4,16,1,0,0,-1,1,"[33,31,42,72,127,8,129,72,75,66]",-4,16,1,0,0,0,52,52,49,1,LightBlue,LightBlue.jpg,Red,Red.jpg,,
,,,,,,,,,,,,,,,,,,2,,,,,,,,,,,,,,,,,,,,,,,,,,,5fa48cbe7b244412adf37bb1,001,2021-12-06_04h18.19.488,jm_natural_scene_simialrity_2-12-2021,2021.2.3,Win32,60.0024001,5fa48cbe7b244412adf37bb1,61ad71e11ddd29ccf7a27d5b,61ad72c34004b356baa028c6,,,,,,40,-31,1,0,0,response3disk,1.8417,16,-6,1,0,0,rectangle,16,-6,1,0,0,-1,1,"[33,31,42,72,127,8,129,72,75,66]",16,-6,1,0,0,0,53,53,80,1,Purple,Purple.jpg,Pink,Pink.jpg,,
,,,,,,,,,,,,,,,,,,2,,,,,,,,,,,,,,,,,,,,,,,,,,,5fa48cbe7b244412adf37bb1,001,2021-12-06_04h18.19.488,jm_natural_scene_simialrity_2-12-2021,2021.2.3,Win32,60.0024001,5fa48cbe7b244412adf37bb1,61ad71e11ddd29ccf7a27d5b,61ad72c34004b356baa028c6,,,,,,41,-31,1,0,0,response3disk,1.1935,9,0,1,0,0,rectangle,9,0,1,0,0,-1,3,"[33,31,42,72,127,8,129,72,75,66]",9,0,1,0,0,0,54,54,43,1,Pink,Pink.jpg,Purple,Purple.jpg,,
,,,,,,,,,,,,,,,,,,-2,,,,,,,,,,,,,,,,,,,,,,,,,,,5fa48cbe7b244412adf37bb1,001,2021-12-06_04h18.19.488,jm_natural_scene_simialrity_2-12-2021,2021.2.3,Win32,60.0024001,5fa48cbe7b244412adf37bb1,61ad71e11ddd29ccf7a27d5b,61ad72c34004b356baa028c6,,,,,,-83,-52,1,0,0,response5disk,1.6721,-9,16,1,0,0,rectangle,-9,16,1,0,0,-1,2,"[33,31,42,72,127,8,129,72,75,66]",-9,16,1,0,0,0,55,55,15,1,Yellow,Yellow.jpg,Pink,Pink.jpg,,
,,,,,,,,,,,,,,,,,,3,,,,,,,,,,,,,,,,,,,,,,,,,,,5fa48cbe7b244412adf37bb1,001,2021-12-06_04h18.19.488,jm_natural_scene_simialrity_2-12-2021,2021.2.3,Win32,60.0024001,5fa48cbe7b244412adf37bb1,61ad71e11ddd29ccf7a27d5b,61ad72c34004b356baa028c6,,,,,,97,49,1,0,0,response1disk,1.0902,9,1,1,0,0,rectangle,9,1,1,0,0,-1,-2,"[33,31,42,72,127,8,129,72,75,66]",9,1,1,0,0,0,56,56,60,1,DarkGreen,DarkGreen.jpg,LightGreen,LightGreen.jpg,,
,,,,,,,,,,,,,,,,,,-2,,,,,,,,,,,,,,,,,,,,,,,,,,,5fa48cbe7b244412adf37bb1,001,2021-12-06_04h18.19.488,jm_natural_scene_simialrity_2-12-2021,2021.2.3,Win32,60.0024001,5fa48cbe7b244412adf37bb1,61ad71e11ddd29ccf7a27d5b,61ad72c34004b356baa028c6,,,,,,-47,-25,1,0,0,response5disk,1.2697,-8,-5,1,0,0,rectangle,-8,-5,1,0,0,-1,-4,"[33,31,42,72,127,8,129,72,75,66]",-8,-5,1,0,0,0,57,57,11,1,Yellow,Yellow.jpg,DarkGreen,DarkGreen.jpg,,
,,,,,,,,,,,,,,,,,,-2,,,,,,,,,,,,,,,,,,,,,,,,,,,5fa48cbe7b244412adf37bb1,001,2021-12-06_04h18.19.488,jm_natural_scene_simialrity_2-12-2021,2021.2.3,Win32,60.0024001,5fa48cbe7b244412adf37bb1,61ad71e11ddd29ccf7a27d5b,61ad72c34004b356baa028c6,,,,,,-54,-23,1,0,0,response5disk,1.0685,-12,4,1,0,0,rectangle,-12,4,1,0,0,-1,-2,"[33,31,42,72,127,8,129,72,75,66]",-12,4,1,0,0,0,58,58,25,1,DarkGreen,DarkGreen.jpg,Turquiose,Turquiose.jpg,,
,,,,,,,,,,,,,,,,,,4,,,,,,,,,,,,,,,,,,,,,,,,,,,5fa48cbe7b244412adf37bb1,001,2021-12-06_04h18.19.488,jm_natural_scene_simialrity_2-12-2021,2021.2.3,Win32,60.0024001,5fa48cbe7b244412adf37bb1,61ad71e11ddd29ccf7a27d5b,61ad72c34004b356baa028c6,,,,,,51,77,1,0,0,response1disk,1.2045,7,8,1,0,0,rectangle,7,8,1,0,0,-1,2,"[33,31,42,72,127,8,129,72,75,66]",7,8,1,0,0,0,59,59,35,1,LightBlue,LightBlue.jpg,LightBlue,LightBlue.jpg,,
,,,,,,,,,,,,,,,,,,-2,,,,,,,,,,,,,,,,,,,,,,,,,,,5fa48cbe7b244412adf37bb1,001,2021-12-06_04h18.19.488,jm_natural_scene_simialrity_2-12-2021,2021.2.3,Win32,60.0024001,5fa48cbe7b244412adf37bb1,61ad71e11ddd29ccf7a27d5b,61ad72c34004b356baa028c6,,,,,,-67,-40,1,0,0,response5disk,1.5834,-17,-3,1,0,0,rectangle,-17,-3,1,0,0,-1,-1,"[33,31,42,72,127,8,129,72,75,66]",-17,-3,1,0,0,0,60,60,40,1,DarkBlue,DarkBlue.jpg,Pink,Pink.jpg,,
,,,,,,,,,,,,,,,,,,-3,,,,,,,,,,,,,,,,,,,,,,,,,,,5fa48cbe7b244412adf37bb1,001,2021-12-06_04h18.19.488,jm_natural_scene_simialrity_2-12-2021,2021.2.3,Win32,60.0024001,5fa48cbe7b244412adf37bb1,61ad71e11ddd29ccf7a27d5b,61ad72c34004b356baa028c6,,,,,,-65,50,1,0,0,response7disk,3.5917,-2,7,1,0,0,rectangle,-2,7,1,0,0,-1,-2,"[33,31,42,72,127,8,129,72,75,66]",-2,7,1,0,0,0,61,61,57,1,DarkBlue,DarkBlue.jpg,Yellow,Yellow.jpg,,
,,,,,,,,,,,,,,,,,,3,,,,,,,,,,,,,,,,,,,,,,,,,,,5fa48cbe7b244412adf37bb1,001,2021-12-06_04h18.19.488,jm_natural_scene_simialrity_2-12-2021,2021.2.3,Win32,60.0024001,5fa48cbe7b244412adf37bb1,61ad71e11ddd29ccf7a27d5b,61ad72c34004b356baa028c6,,,,,,99,44,1,0,0,response1disk,1.4986,-1,6,1,0,0,rectangle,-1,6,1,0,0,-1,2,"[33,31,42,72,127,8,129,72,75,66]",-1,6,1,0,0,0,62,62,36,1,LightBlue,LightBlue.jpg,DarkBlue,DarkBlue.jpg,,
,,,,,,,,,,,,,,,,,,-2,,,,,,,,,,,,,,,,,,,,,,,,,,,5fa48cbe7b244412adf37bb1,001,2021-12-06_04h18.19.488,jm_natural_scene_simialrity_2-12-2021,2021.2.3,Win32,60.0024001,5fa48cbe7b244412adf37bb1,61ad71e11ddd29ccf7a27d5b,61ad72c34004b356baa028c6,,,,,,-87,-36,1,0,0,response5disk,1.649,-9,1,1,0,0,rectangle,-9,1,1,0,0,-1,-2,"[33,31,42,72,127,8,129,72,75,66]",-9,1,1,0,0,0,63,63,28,1,DarkGreen,DarkGreen.jpg,Pink,Pink.jpg,,
,,,,,,,,,,,,,,,,,,2,,,,,,,,,,,,,,,,,,,,,,,,,,,5fa48cbe7b244412adf37bb1,001,2021-12-06_04h18.19.488,jm_natural_scene_simialrity_2-12-2021,2021.2.3,Win32,60.0024001,5fa48cbe7b244412adf37bb1,61ad71e11ddd29ccf7a27d5b,61ad72c34004b356baa028c6,,,,,,69,-32,1,0,0,response3disk,1.2728,-12,19,1,0,0,rectangle,-12,19,1,0,0,-1,2,"[33,31,42,72,127,8,129,72,75,66]",-12,19,1,0,0,0,64,64,31,1,Turquiose,Turquiose.jpg,LightBlue,LightBlue.jpg,,
,,,,,,,,,,,,,,,,,,1,,,,,,,,,,,,,,,,,,,,,,,,,,,5fa48cbe7b244412adf37bb1,001,2021-12-06_04h18.19.488,jm_natural_scene_simialrity_2-12-2021,2021.2.3,Win32,60.0024001,5fa48cbe7b244412adf37bb1,61ad71e11ddd29ccf7a27d5b,61ad72c34004b356baa028c6,,,,,,43,-63,1,0,0,response3disk,1.3259,7,-1,1,0,0,rectangle,-96,54,1,0,0,-3,-3,"[33,31,42,72,127,8,129,72,75,66]",-5,8,1,0,0,0,65,65,66,1,Turquiose,Turquiose.jpg,DarkGreen,DarkGreen.jpg,response7disk_3,rectangle
,,,,,,,,,,,,,,,,,,-3,,,,,,,,,,,,,,,,,,,,,,,,,,,5fa48cbe7b244412adf37bb1,001,2021-12-06_04h18.19.488,jm_natural_scene_simialrity_2-12-2021,2021.2.3,Win32,60.0024001,5fa48cbe7b244412adf37bb1,61ad71e11ddd29ccf7a27d5b,61ad72c34004b356baa028c6,,,,,,-108,69,1,0,0,response7disk,1.5588,8,-9,1,0,0,rectangle,8,-9,1,0,0,-3,-1,"[33,31,42,72,127,8,129,72,75,66]",8,-9,1,0,0,0,66,66,46,1,LightGreen,LightGreen.jpg,Red,Red.jpg,,
,,,,,,,,,,,,,,,,,,4,,,,,,,,,,,,,,,,,,,,,,,,,,,5fa48cbe7b244412adf37bb1,001,2021-12-06_04h18.19.488,jm_natural_scene_simialrity_2-12-2021,2021.2.3,Win32,60.0024001,5fa48cbe7b244412adf37bb1,61ad71e11ddd29ccf7a27d5b,61ad72c34004b356baa028c6,,,,,,75,100,1,0,0,response1disk,0.9234,0,15,1,0,0,rectangle,0,15,1,0,0,-3,3,"[33,31,42,72,127,8,129,72,75,66]",0,15,1,0,0,0,67,67,30,1,Turquiose,Turquiose.jpg,Turquiose,Turquiose.jpg,,
,,,,,,,,,,,,,,,,,,-3,,,,,,,,,,,,,,,,,,,,,,,,,,,5fa48cbe7b244412adf37bb1,001,2021-12-06_04h18.19.488,jm_natural_scene_simialrity_2-12-2021,2021.2.3,Win32,60.0024001,5fa48cbe7b244412adf37bb1,61ad71e11ddd29ccf7a27d5b,61ad72c34004b356baa028c6,,,,,,-85,35,1,0,0,response7disk,1.1363,-5,-10,1,0,0,rectangle,-5,-10,1,0,0,-3,-4,"[33,31,42,72,127,8,129,72,75,66]",-5,-10,1,0,0,0,68,68,2,1,Red,Red.jpg,LightGreen,LightGreen.jpg,,
,,,,,,,,,,,,,,,,,,4,,,,,,,,,,,,,,,,,,,,,,,,,,,5fa48cbe7b244412adf37bb1,001,2021-12-06_04h18.19.488,jm_natural_scene_simialrity_2-12-2021,2021.2.3,Win32,60.0024001,5fa48cbe7b244412adf37bb1,61ad71e11ddd29ccf7a27d5b,61ad72c34004b356baa028c6,,,,,,44,91,1,0,0,response1disk,1.0904,-5,2,1,0,0,rectangle,-5,2,1,0,0,-3,-3,"[33,31,42,72,127,8,129,72,75,66]",-5,2,1,0,0,0,69,69,9,1,Yellow,Yellow.jpg,Yellow,Yellow.jpg,,
,,,,,,,,,,,,,,,,,,2,,,,,,,,,,,,,,,,,,,,,,,,,,,5fa48cbe7b244412adf37bb1,001,2021-12-06_04h18.19.488,jm_natural_scene_simialrity_2-12-2021,2021.2.3,Win32,60.0024001,5fa48cbe7b244412adf37bb1,61ad71e11ddd29ccf7a27d5b,61ad72c34004b356baa028c6,,,,,,80,-27,1,0,0,response3disk,1.7789,-7,11,1,0,0,rectangle,-7,11,1,0,0,-3,-3,"[33,31,42,72,127,8,129,72,75,66]",-7,11,1,0,0,0,70,70,74,1,Purple,Purple.jpg,Turquiose,Turquiose.jpg,,
,,,,,,,,,,,,,,,,,,-2,,,,,,,,,,,,,,,,,,,,,,,,,,,5fa48cbe7b244412adf37bb1,001,2021-12-06_04h18.19.488,jm_natural_scene_simialrity_2-12-2021,2021.2.3,Win32,60.0024001,5fa48cbe7b244412adf37bb1,61ad71e11ddd29ccf7a27d5b,61ad72c34004b356baa028c6,,,,,,-90,-19,1,0,0,response5disk,1.2351,-16,6,1,0,0,rectangle,-126,58,1,0,0,-3,-3,"[33,31,42,72,127,8,129,72,75,66]",-21,-6,1,0,0,0,71,71,69,1,Pink,Pink.jpg,DarkGreen,DarkGreen.jpg,response7disk_3,rectangle
,,,,,,,,,,,,,,,,,,-3,,,,,,,,,,,,,,,,,,,,,,,,,,,5fa48cbe7b244412adf37bb1,001,2021-12-06_04h18.19.488,jm_natural_scene_simialrity_2-12-2021,2021.2.3,Win32,60.0024001,5fa48cbe7b244412adf37bb1,61ad71e11ddd29ccf7a27d5b,61ad72c34004b356baa028c6,,,,,,-60,27,1,0,0,response7disk,1.1036,-13,-13,1,0,0,rectangle,-13,-13,1,0,0,-3,-2,"[33,31,42,72,127,8,129,72,75,66]",-13,-13,1,0,0,0,72,72,56,1,LightBlue,LightBlue.jpg,Yellow,Yellow.jpg,,
,,,,,,,,,,,,,,,,,,-3,,,,,,,,,,,,,,,,,,,,,,,,,,,5fa48cbe7b244412adf37bb1,001,2021-12-06_04h18.19.488,jm_natural_scene_simialrity_2-12-2021,2021.2.3,Win32,60.0024001,5fa48cbe7b244412adf37bb1,61ad71e11ddd29ccf7a27d5b,61ad72c34004b356baa028c6,,,,,,-101,45,1,0,0,response7disk,1.0521,1,-11,1,0,0,rectangle,1,-11,1,0,0,-3,2,"[33,31,42,72,127,8,129,72,75,66]",1,-11,1,0,0,0,73,73,78,1,Pink,Pink.jpg,DarkBlue,DarkBlue.jpg,,
,,,,,,,,,,,,,,,,,,-3,,,,,,,,,,,,,,,,,,,,,,,,,,,5fa48cbe7b244412adf37bb1,001,2021-12-06_04h18.19.488,jm_natural_scene_simialrity_2-12-2021,2021.2.3,Win32,60.0024001,5fa48cbe7b244412adf37bb1,61ad71e11ddd29ccf7a27d5b,61ad72c34004b356baa028c6,,,,,,-82,43,1,0,0,response7disk,1.0156,12,-12,1,0,0,rectangle,52,-91,1,0,0,1,1,"[33,31,42,72,127,8,129,72,75,66]",-3,-2,1,0,0,0,74,74,70,1,Purple,Purple.jpg,DarkGreen,DarkGreen.jpg,response3disk_3,rectangle
,,,,,,,,,,,,,,,,,,2,,,,,,,,,,,,,,,,,,,,,,,,,,,5fa48cbe7b244412adf37bb1,001,2021-12-06_04h18.19.488,jm_natural_scene_simialrity_2-12-2021,2021.2.3,Win32,60.0024001,5fa48cbe7b244412adf37bb1,61ad71e11ddd29ccf7a27d5b,61ad72c34004b356baa028c6,,,,,,65,-32,1,0,0,response3disk,1.6538,5,1,1,0,0,rectangle,5,1,1,0,0,1,2,"[33,31,42,72,127,8,129,72,75,66]",5,1,1,0,0,0,75,75,34,1,Turquiose,Turquiose.jpg,Purple,Purple.jpg,,
,,,,,,,,,,,,,,,,,,-2,,,,,,,,,,,,,,,,,,,,,,,,,,,5fa48cbe7b244412adf37bb1,001,2021-12-06_04h18.19.488,jm_natural_scene_simialrity_2-12-2021,2021.2.3,Win32,60.0024001,5fa48cbe7b244412adf37bb1,61ad71e11ddd29ccf7a27d5b,61ad72c34004b356baa028c6,,,,,,-66,-66,1,0,0,response5disk,1.0691,14,11,1,0,0,rectangle,14,11,1,0,0,1,3,"[33,31,42,72,127,8,129,72,75,66]",14,11,1,0,0,0,76,76,23,1,LightGreen,LightGreen.jpg,Purple,Purple.jpg,,
,,,,,,,,,,,,,,,,,,3,,,,,,,,,,,,,,,,,,,,,,,,,,,5fa48cbe7b244412adf37bb1,001,2021-12-06_04h18.19.488,jm_natural_scene_simialrity_2-12-2021,2021.2.3,Win32,60.0024001,5fa48cbe7b244412adf37bb1,61ad71e11ddd29ccf7a27d5b,61ad72c34004b356baa028c6,,,,,,56,22,1,0,0,response1disk,1.2582,18,-9,1,0,0,rectangle,18,-9,1,0,0,1,2,"[33,31,42,72,127,8,129,72,75,66]",18,-9,1,0,0,0,77,77,41,1,DarkBlue,DarkBlue.jpg,Purple,Purple.jpg,,
,,,,,,,,,,,,,,,,,,2,,,,,,,,,,,,,,,,,,,,,,,,,,,5fa48cbe7b244412adf37bb1,001,2021-12-06_04h18.19.488,jm_natural_scene_simialrity_2-12-2021,2021.2.3,Win32,60.0024001,5fa48cbe7b244412adf37bb1,61ad71e11ddd29ccf7a27d5b,61ad72c34004b356baa028c6,,,,,,51,-29,1,0,0,response3disk,1.2339,-5,14,1,0,0,rectangle,-5,14,1,0,0,1,-4,"[33,31,42,72,127,8,129,72,75,66]",-5,14,1,0,0,0,78,78,51,1,Pink,Pink.jpg,Red,Red.jpg,,
,,,,,,,,,,,,,,,,,,-2,,,,,,,,,,,,,,,,,,,,,,,,,,,5fa48cbe7b244412adf37bb1,001,2021-12-06_04h18.19.488,jm_natural_scene_simialrity_2-12-2021,2021.2.3,Win32,60.0024001,5fa48cbe7b244412adf37bb1,61ad71e11ddd29ccf7a27d5b,61ad72c34004b356baa028c6,,,,,,-75,-32,1,0,0,response5disk,1.6916,-1,17,1,0,0,rectangle,-1,17,1,0,0,1,1,"[33,31,42,72,127,8,129,72,75,66]",-1,17,1,0,0,0,79,79,19,1,LightGreen,LightGreen.jpg,Turquiose,Turquiose.jpg,,
,,,,,,,,,,,,,,,,,,-3,,,,,,,,,,,,,,,,,,,,,,,,,,,5fa48cbe7b244412adf37bb1,001,2021-12-06_04h18.19.488,jm_natural_scene_simialrity_2-12-2021,2021.2.3,Win32,60.0024001,5fa48cbe7b244412adf37bb1,61ad71e11ddd29ccf7a27d5b,61ad72c34004b356baa028c6,,,,,,-59,35,1,0,0,response7disk,1.0586,1,0,1,0,0,rectangle,1,0,1,0,0,1,-2,"[33,31,42,72,127,8,129,72,75,66]",1,0,1,0,0,0,80,80,63,1,DarkBlue,DarkBlue.jpg,LightGreen,LightGreen.jpg,,
,,,,,,,,,,,,,,,,,,-3,,,,,,,,,,,,,,,,,,,,,,,,,,,5fa48cbe7b244412adf37bb1,001,2021-12-06_04h18.19.488,jm_natural_scene_simialrity_2-12-2021,2021.2.3,Win32,60.0024001,5fa48cbe7b244412adf37bb1,61ad71e11ddd29ccf7a27d5b,61ad72c34004b356baa028c6,,,,,,-68,28,1,0,0,response7disk,1.4306,-1,-1,1,0,0,rectangle,-1,-1,1,0,0,1,2,"[33,31,42,72,127,8,129,72,75,66]",-1,-1,1,0,0,1,0,81,1,1,Red,Red.jpg,Yellow,Yellow.jpg,,
,,,,,,,,,,,,,,,,,,4,,,,,,,,,,,,,,,,,,,,,,,,,,,5fa48cbe7b244412adf37bb1,001,2021-12-06_04h18.19.488,jm_natural_scene_simialrity_2-12-2021,2021.2.3,Win32,60.0024001,5fa48cbe7b244412adf37bb1,61ad71e11ddd29ccf7a27d5b,61ad72c34004b356baa028c6,,,,,,46,80,1,0,0,response1disk,1.0128,-2,7,1,0,0,rectangle,-2,7,1,0,0,1,-3,"[33,31,42,72,127,8,129,72,75,66]",-2,7,1,0,0,1,1,82,17,1,LightGreen,LightGreen.jpg,LightGreen,LightGreen.jpg,,
,,,,,,,,,,,,,,,,,,-2,,,,,,,,,,,,,,,,,,,,,,,,,,,5fa48cbe7b244412adf37bb1,001,2021-12-06_04h18.19.488,jm_natural_scene_simialrity_2-12-2021,2021.2.3,Win32,60.0024001,5fa48cbe7b244412adf37bb1,61ad71e11ddd29ccf7a27d5b,61ad72c34004b356baa028c6,,,,,,-120,-50,1,0,0,response5disk,3.3672,12,-9,1,0,0,rectangle,12,-9,1,0,0,1,3,"[33,31,42,72,127,8,129,72,75,66]",12,-9,1,0,0,1,2,83,59,1,Purple,Purple.jpg,Yellow,Yellow.jpg,,
,,,,,,,,,,,,,,,,,,-4,,,,,,,,,,,,,,,,,,,,,,,,,,,5fa48cbe7b244412adf37bb1,001,2021-12-06_04h18.19.488,jm_natural_scene_simialrity_2-12-2021,2021.2.3,Win32,60.0024001,5fa48cbe7b244412adf37bb1,61ad71e11ddd29ccf7a27d5b,61ad72c34004b356baa028c6,,,,,,-46,95,1,0,0,response7disk,1.709,4,5,1,0,0,rectangle,4,5,1,0,0,1,-2,"[33,31,42,72,127,8,129,72,75,66]",4,5,1,0,0,1,3,84,58,1,Pink,Pink.jpg,Yellow,Yellow.jpg,,
,,,,,,,,,,,,,,,,,,-3,,,,,,,,,,,,,,,,,,,,,,,,,,,5fa48cbe7b244412adf37bb1,001,2021-12-06_04h18.19.488,jm_natural_scene_simialrity_2-12-2021,2021.2.3,Win32,60.0024001,5fa48cbe7b244412adf37bb1,61ad71e11ddd29ccf7a27d5b,61ad72c34004b356baa028c6,,,,,,-60,42,1,0,0,response7disk,2.0092,-8,13,1,0,0,rectangle,-8,13,1,0,0,1,3,"[33,31,42,72,127,8,129,72,75,66]",-8,13,1,0,0,1,4,85,12,1,Yellow,Yellow.jpg,Turquiose,Turquiose.jpg,,
,,,,,,,,,,,,,,,,,,4,,,,,,,,,,,,,,,,,,,,,,,,,,,5fa48cbe7b244412adf37bb1,001,2021-12-06_04h18.19.488,jm_natural_scene_simialrity_2-12-2021,2021.2.3,Win32,60.0024001,5fa48cbe7b244412adf37bb1,61ad71e11ddd29ccf7a27d5b,61ad72c34004b356baa028c6,,,,,,85,137,1,0,0,response1disk,1.0577,1,9,1,0,0,rectangle,1,9,1,0,0,1,2,"[33,31,42,72,127,8,129,72,75,66]",1,9,1,0,0,1,5,86,0,1,Red,Red.jpg,Red,Red.jpg,,
,,,,,,,,,,,,,,,,,,-3,,,,,,,,,,,,,,,,,,,,,,,,,,,5fa48cbe7b244412adf37bb1,001,2021-12-06_04h18.19.488,jm_natural_scene_simialrity_2-12-2021,2021.2.3,Win32,60.0024001,5fa48cbe7b244412adf37bb1,61ad71e11ddd29ccf7a27d5b,61ad72c34004b356baa028c6,,,,,,-81,55,1,0,0,response7disk,1.074,21,4,1,0,0,rectangle,21,4,1,0,0,1,1,"[33,31,42,72,127,8,129,72,75,66]",21,4,1,0,0,1,6,87,13,1,Yellow,Yellow.jpg,LightBlue,LightBlue.jpg,,
,,,,,,,,,,,,,,,,,,-3,,,,,,,,,,,,,,,,,,,,,,,,,,,5fa48cbe7b244412adf37bb1,001,2021-12-06_04h18.19.488,jm_natural_scene_simialrity_2-12-2021,2021.2.3,Win32,60.0024001,5fa48cbe7b244412adf37bb1,61ad71e11ddd29ccf7a27d5b,61ad72c34004b356baa028c6,,,,,,-48,45,1,0,0,response7disk,1.0239,-9,13,1,0,0,rectangle,-9,13,1,0,0,1,1,"[33,31,42,72,127,8,129,72,75,66]",-9,13,1,0,0,1,7,88,66,1,Turquiose,Turquiose.jpg,DarkGreen,DarkGreen.jpg,,
,,,,,,,,,,,,,,,,,,-3,,,,,,,,,,,,,,,,,,,,,,,,,,,5fa48cbe7b244412adf37bb1,001,2021-12-06_04h18.19.488,jm_natural_scene_simialrity_2-12-2021,2021.2.3,Win32,60.0024001,5fa48cbe7b244412adf37bb1,61ad71e11ddd29ccf7a27d5b,61ad72c34004b356baa028c6,,,,,,-92,39,1,0,0,response7disk,1.736,-14,-1,1,0,0,rectangle,-14,-1,1,0,0,1,-4,"[33,31,42,72,127,8,129,72,75,66]",-14,-1,1,0,0,1,8,89,31,1,Turquiose,Turquiose.jpg,LightBlue,LightBlue.jpg,,
,,,,,,,,,,,,,,,,,,4,,,,,,,,,,,,,,,,,,,,,,,,,,,5fa48cbe7b244412adf37bb1,001,2021-12-06_04h18.19.488,jm_natural_scene_simialrity_2-12-2021,2021.2.3,Win32,60.0024001,5fa48cbe7b244412adf37bb1,61ad71e11ddd29ccf7a27d5b,61ad72c34004b356baa028c6,,,,,,64,105,1,0,0,response1disk,0.8283,16,20,1,0,0,rectangle,16,20,1,0,0,1,-2,"[33,31,42,72,127,8,129,72,75,66]",16,20,1,0,0,1,9,90,35,1,LightBlue,LightBlue.jpg,LightBlue,LightBlue.jpg,,
,,,,,,,,,,,,,,,,,,-3,,,,,,,,,,,,,,,,,,,,,,,,,,,5fa48cbe7b244412adf37bb1,001,2021-12-06_04h18.19.488,jm_natural_scene_simialrity_2-12-2021,2021.2.3,Win32,60.0024001,5fa48cbe7b244412adf37bb1,61ad71e11ddd29ccf7a27d5b,61ad72c34004b356baa028c6,,,,,,-78,42,1,0,0,response7disk,1.0074,12,-11,1,0,0,rectangle,12,-11,1,0,0,1,1,"[33,31,42,72,127,8,129,72,75,66]",12,-11,1,0,0,1,10,91,48,1,Turquiose,Turquiose.jpg,Red,Red.jpg,,
,,,,,,,,,,,,,,,,,,-4,,,,,,,,,,,,,,,,,,,,,,,,,,,5fa48cbe7b244412adf37bb1,001,2021-12-06_04h18.19.488,jm_natural_scene_simialrity_2-12-2021,2021.2.3,Win32,60.0024001,5fa48cbe7b244412adf37bb1,61ad71e11ddd29ccf7a27d5b,61ad72c34004b356baa028c6,,,,,,-42,92,1,0,0,response7disk,1.3572,-5,-3,1,0,0,rectangle,-5,-3,1,0,0,1,1,"[33,31,42,72,127,8,129,72,75,66]",-5,-3,1,0,0,1,11,92,6,1,Red,Red.jpg,DarkBlue,DarkBlue.jpg,,
,,,,,,,,,,,,,,,,,,3,,,,,,,,,,,,,,,,,,,,,,,,,,,5fa48cbe7b244412adf37bb1,001,2021-12-06_04h18.19.488,jm_natural_scene_simialrity_2-12-2021,2021.2.3,Win32,60.0024001,5fa48cbe7b244412adf37bb1,61ad71e11ddd29ccf7a27d5b,61ad72c34004b356baa028c6,,,,,,83,78,1,0,0,response1disk,2.0736,-4,-11,1,0,0,rectangle,-4,-11,1,0,0,1,-4,"[33,31,42,72,127,8,129,72,75,66]",-4,-11,1,0,0,1,12,93,18,1,LightGreen,LightGreen.jpg,DarkGreen,DarkGreen.jpg,,
,,,,,,,,,,,,,,,,,,-3,,,,,,,,,,,,,,,,,,,,,,,,,,,5fa48cbe7b244412adf37bb1,001,2021-12-06_04h18.19.488,jm_natural_scene_simialrity_2-12-2021,2021.2.3,Win32,60.0024001,5fa48cbe7b244412adf37bb1,61ad71e11ddd29ccf7a27d5b,61ad72c34004b356baa028c6,,,,,,-97,39,1,0,0,response7disk,1.2844,-14,-8,1,0,0,rectangle,-14,-8,1,0,0,1,-4,"[33,31,42,72,127,8,129,72,75,66]",-14,-8,1,0,0,1,13,94,22,1,LightGreen,LightGreen.jpg,Pink,Pink.jpg,,
,,,,,,,,,,,,,,,,,,-3,,,,,,,,,,,,,,,,,,,,,,,,,,,5fa48cbe7b244412adf37bb1,001,2021-12-06_04h18.19.488,jm_natural_scene_simialrity_2-12-2021,2021.2.3,Win32,60.0024001,5fa48cbe7b244412adf37bb1,61ad71e11ddd29ccf7a27d5b,61ad72c34004b356baa028c6,,,,,,-86,46,1,0,0,response7disk,1.6727,-24,4,1,0,0,rectangle,-24,4,1,0,0,1,2,"[33,31,42,72,127,8,129,72,75,66]",-24,4,1,0,0,1,14,95,47,1,DarkGreen,DarkGreen.jpg,Red,Red.jpg,,
,,,,,,,,,,,,,,,,,,-2,,,,,,,,,,,,,,,,,,,,,,,,,,,5fa48cbe7b244412adf37bb1,001,2021-12-06_04h18.19.488,jm_natural_scene_simialrity_2-12-2021,2021.2.3,Win32,60.0024001,5fa48cbe7b244412adf37bb1,61ad71e11ddd29ccf7a27d5b,61ad72c34004b356baa028c6,,,,,,-103,-39,1,0,0,response5disk,1.384,-14,1,1,0,0,rectangle,-14,1,1,0,0,1,-2,"[33,31,42,72,127,8,129,72,75,66]",-14,1,1,0,0,1,15,96,70,1,Purple,Purple.jpg,DarkGreen,DarkGreen.jpg,,
,,,,,,,,,,,,,,,,,,-2,,,,,,,,,,,,,,,,,,,,,,,,,,,5fa48cbe7b244412adf37bb1,001,2021-12-06_04h18.19.488,jm_natural_scene_simialrity_2-12-2021,2021.2.3,Win32,60.0024001,5fa48cbe7b244412adf37bb1,61ad71e11ddd29ccf7a27d5b,61ad72c34004b356baa028c6,,,,,,-90,-63,1,0,0,response5disk,1.4343,-22,-25,1,0,0,rectangle,-22,-25,1,0,0,-1,-1,"[33,31,42,72,127,8,129,72,75,66]",-22,-25,1,0,0,1,16,97,50,1,DarkBlue,DarkBlue.jpg,Red,Red.jpg,,
,,,,,,,,,,,,,,,,,,-2,,,,,,,,,,,,,,,,,,,,,,,,,,,5fa48cbe7b244412adf37bb1,001,2021-12-06_04h18.19.488,jm_natural_scene_simialrity_2-12-2021,2021.2.3,Win32,60.0024001,5fa48cbe7b244412adf37bb1,61ad71e11ddd29ccf7a27d5b,61ad72c34004b356baa028c6,,,,,,-72,-21,1,0,0,response5disk,1.115,-17,1,1,0,0,rectangle,-17,1,1,0,0,-1,3,"[33,31,42,72,127,8,129,72,75,66]",-17,1,1,0,0,1,17,98,40,1,DarkBlue,DarkBlue.jpg,Pink,Pink.jpg,,
,,,,,,,,,,,,,,,,,,2,,,,,,,,,,,,,,,,,,,,,,,,,,,5fa48cbe7b244412adf37bb1,001,2021-12-06_04h18.19.488,jm_natural_scene_simialrity_2-12-2021,2021.2.3,Win32,60.0024001,5fa48cbe7b244412adf37bb1,61ad71e11ddd29ccf7a27d5b,61ad72c34004b356baa028c6,,,,,,120,-44,1,0,0,response3disk,1.5507,-9,18,1,0,0,rectangle,-9,18,1,0,0,-1,-1,"[33,31,42,72,127,8,129,72,75,66]",-9,18,1,0,0,1,18,99,41,1,DarkBlue,DarkBlue.jpg,Purple,Purple.jpg,,
,,,,,,,,,,,,,,,,,,-2,,,,,,,,,,,,,,,,,,,,,,,,,,,5fa48cbe7b244412adf37bb1,001,2021-12-06_04h18.19.488,jm_natural_scene_simialrity_2-12-2021,2021.2.3,Win32,60.0024001,5fa48cbe7b244412adf37bb1,61ad71e11ddd29ccf7a27d5b,61ad72c34004b356baa028c6,,,,,,-93,-34,1,0,0,response5disk,1.3829,-9,-4,1,0,0,rectangle,-9,-4,1,0,0,-1,-4,"[33,31,42,72,127,8,129,72,75,66]",-9,-4,1,0,0,1,19,100,11,1,Yellow,Yellow.jpg,DarkGreen,DarkGreen.jpg,,
,,,,,,,,,,,,,,,,,,-2,,,,,,,,,,,,,,,,,,,,,,,,,,,5fa48cbe7b244412adf37bb1,001,2021-12-06_04h18.19.488,jm_natural_scene_simialrity_2-12-2021,2021.2.3,Win32,60.0024001,5fa48cbe7b244412adf37bb1,61ad71e11ddd29ccf7a27d5b,61ad72c34004b356baa028c6,,,,,,-77,-38,1,0,0,response5disk,0.9937,-2,2,1,0,0,rectangle,-2,2,1,0,0,-1,1,"[33,31,42,72,127,8,129,72,75,66]",-2,2,1,0,0,1,20,101,15,1,Yellow,Yellow.jpg,Pink,Pink.jpg,,
,,,,,,,,,,,,,,,,,,3,,,,,,,,,,,,,,,,,,,,,,,,,,,5fa48cbe7b244412adf37bb1,001,2021-12-06_04h18.19.488,jm_natural_scene_simialrity_2-12-2021,2021.2.3,Win32,60.0024001,5fa48cbe7b244412adf37bb1,61ad71e11ddd29ccf7a27d5b,61ad72c34004b356baa028c6,,,,,,90,38,1,0,0,response1disk,1.185,2,-12,1,0,0,rectangle,2,-12,1,0,0,-1,-4,"[33,31,42,72,127,8,129,72,75,66]",2,-12,1,0,0,1,21,102,74,1,Purple,Purple.jpg,Turquiose,Turquiose.jpg,,
,,,,,,,,,,,,,,,,,,-3,,,,,,,,,,,,,,,,,,,,,,,,,,,5fa48cbe7b244412adf37bb1,001,2021-12-06_04h18.19.488,jm_natural_scene_simialrity_2-12-2021,2021.2.3,Win32,60.0024001,5fa48cbe7b244412adf37bb1,61ad71e11ddd29ccf7a27d5b,61ad72c34004b356baa028c6,,,,,,-64,45,1,0,0,response7disk,1.1439,-22,14,1,0,0,rectangle,-22,14,1,0,0,-1,-2,"[33,31,42,72,127,8,129,72,75,66]",-22,14,1,0,0,1,22,103,10,1,Yellow,Yellow.jpg,LightGreen,LightGreen.jpg,,
,,,,,,,,,,,,,,,,,,-2,,,,,,,,,,,,,,,,,,,,,,,,,,,5fa48cbe7b244412adf37bb1,001,2021-12-06_04h18.19.488,jm_natural_scene_simialrity_2-12-2021,2021.2.3,Win32,60.0024001,5fa48cbe7b244412adf37bb1,61ad71e11ddd29ccf7a27d5b,61ad72c34004b356baa028c6,,,,,,-84,-24,1,0,0,response5disk,2.1774,9,-3,1,0,0,rectangle,9,-3,1,0,0,-1,-4,"[33,31,42,72,127,8,129,72,75,66]",9,-3,1,0,0,1,23,104,27,1,DarkGreen,DarkGreen.jpg,DarkBlue,DarkBlue.jpg,,
,,,,,,,,,,,,,,,,,,-3,,,,,,,,,,,,,,,,,,,,,,,,,,,5fa48cbe7b244412adf37bb1,001,2021-12-06_04h18.19.488,jm_natural_scene_simialrity_2-12-2021,2021.2.3,Win32,60.0024001,5fa48cbe7b244412adf37bb1,61ad71e11ddd29ccf7a27d5b,61ad72c34004b356baa028c6,,,,,,-132,72,1,0,0,response7disk,1.2783,-12,3,1,0,0,rectangle,-12,3,1,0,0,-1,3,"[33,31,42,72,127,8,129,72,75,66]",-12,3,1,0,0,1,24,105,2,1,Red,Red.jpg,LightGreen,LightGreen.jpg,,
,,,,,,,,,,,,,,,,,,4,,,,,,,,,,,,,,,,,,,,,,,,,,,5fa48cbe7b244412adf37bb1,001,2021-12-06_04h18.19.488,jm_natural_scene_simialrity_2-12-2021,2021.2.3,Win32,60.0024001,5fa48cbe7b244412adf37bb1,61ad71e11ddd29ccf7a27d5b,61ad72c34004b356baa028c6,,,,,,52,87,1,0,0,response1disk,1.1259,-14,11,1,0,0,rectangle,-14,11,1,0,0,-1,-1,"[33,31,42,72,127,8,129,72,75,66]",-14,11,1,0,0,1,25,106,44,1,Purple,Purple.jpg,Purple,Purple.jpg,,
,,,,,,,,,,,,,,,,,,3,,,,,,,,,,,,,,,,,,,,,,,,,,,5fa48cbe7b244412adf37bb1,001,2021-12-06_04h18.19.488,jm_natural_scene_simialrity_2-12-2021,2021.2.3,Win32,60.0024001,5fa48cbe7b244412adf37bb1,61ad71e11ddd29ccf7a27d5b,61ad72c34004b356baa028c6,,,,,,54,35,1,0,0,response1disk,1.8382,-9,-18,1,0,0,rectangle,-9,-18,1,0,0,-1,-2,"[33,31,42,72,127,8,129,72,75,66]",-9,-18,1,0,0,1,26,107,52,1,Purple,Purple.jpg,Red,Red.jpg,,
,,,,,,,,,,,,,,,,,,-3,,,,,,,,,,,,,,,,,,,,,,,,,,,5fa48cbe7b244412adf37bb1,001,2021-12-06_04h18.19.488,jm_natural_scene_simialrity_2-12-2021,2021.2.3,Win32,60.0024001,5fa48cbe7b244412adf37bb1,61ad71e11ddd29ccf7a27d5b,61ad72c34004b356baa028c6,,,,,,-66,39,1,0,0,response7disk,1.2281,-10,10,1,0,0,rectangle,-10,10,1,0,0,-1,2,"[33,31,42,72,127,8,129,72,75,66]",-10,10,1,0,0,1,27,108,57,1,DarkBlue,DarkBlue.jpg,Yellow,Yellow.jpg,,
,,,,,,,,,,,,,,,,,,-3,,,,,,,,,,,,,,,,,,,,,,,,,,,5fa48cbe7b244412adf37bb1,001,2021-12-06_04h18.19.488,jm_natural_scene_simialrity_2-12-2021,2021.2.3,Win32,60.0024001,5fa48cbe7b244412adf37bb1,61ad71e11ddd29ccf7a27d5b,61ad72c34004b356baa028c6,,,,,,-38,27,1,0,0,response7disk,1.0546,-1,3,1,0,0,rectangle,-1,3,1,0,0,-1,-1,"[33,31,42,72,127,8,129,72,75,66]",-1,3,1,0,0,1,28,109,69,1,Pink,Pink.jpg,DarkGreen,DarkGreen.jpg,,
,,,,,,,,,,,,,,,,,,-4,,,,,,,,,,,,,,,,,,,,,,,,,,,5fa48cbe7b244412adf37bb1,001,2021-12-06_04h18.19.488,jm_natural_scene_simialrity_2-12-2021,2021.2.3,Win32,60.0024001,5fa48cbe7b244412adf37bb1,61ad71e11ddd29ccf7a27d5b,61ad72c34004b356baa028c6,,,,,,-63,82,1,0,0,response7disk,2.0385,7,2,1,0,0,rectangle,7,2,1,0,0,-1,-3,"[33,31,42,72,127,8,129,72,75,66]",7,2,1,0,0,1,29,110,56,1,LightBlue,LightBlue.jpg,Yellow,Yellow.jpg,,
,,,,,,,,,,,,,,,,,,3,,,,,,,,,,,,,,,,,,,,,,,,,,,5fa48cbe7b244412adf37bb1,001,2021-12-06_04h18.19.488,jm_natural_scene_simialrity_2-12-2021,2021.2.3,Win32,60.0024001,5fa48cbe7b244412adf37bb1,61ad71e11ddd29ccf7a27d5b,61ad72c34004b356baa028c6,,,,,,107,58,1,0,0,response1disk,1.2033,20,2,1,0,0,rectangle,20,2,1,0,0,-1,-1,"[33,31,42,72,127,8,129,72,75,66]",20,2,1,0,0,1,30,111,38,1,LightBlue,LightBlue.jpg,Purple,Purple.jpg,,
,,,,,,,,,,,,,,,,,,-1,,,,,,,,,,,,,,,,,,,,,,,,,,,5fa48cbe7b244412adf37bb1,001,2021-12-06_04h18.19.488,jm_natural_scene_simialrity_2-12-2021,2021.2.3,Win32,60.0024001,5fa48cbe7b244412adf37bb1,61ad71e11ddd29ccf7a27d5b,61ad72c34004b356baa028c6,,,,,,-96,-112,1,0,0,response5disk,3.2518,-17,-19,1,0,0,rectangle,-17,-19,1,0,0,-1,-1,"[33,31,42,72,127,8,129,72,75,66]",-17,-19,1,0,0,1,31,112,68,1,DarkBlue,DarkBlue.jpg,DarkGreen,DarkGreen.jpg,,
,,,,,,,,,,,,,,,,,,4,,,,,,,,,,,,,,,,,,,,,,,,,,,5fa48cbe7b244412adf37bb1,001,2021-12-06_04h18.19.488,jm_natural_scene_simialrity_2-12-2021,2021.2.3,Win32,60.0024001,5fa48cbe7b244412adf37bb1,61ad71e11ddd29ccf7a27d5b,61ad72c34004b356baa028c6,,,,,,52,110,1,0,0,response1disk,1.002,-5,17,1,0,0,rectangle,-5,17,1,0,0,-1,1,"[33,31,42,72,127,8,129,72,75,66]",-5,17,1,0,0,1,32,113,39,1,DarkBlue,DarkBlue.jpg,DarkBlue,DarkBlue.jpg,,
,,,,,,,,,,,,,,,,,,-3,,,,,,,,,,,,,,,,,,,,,,,,,,,5fa48cbe7b244412adf37bb1,001,2021-12-06_04h18.19.488,jm_natural_scene_simialrity_2-12-2021,2021.2.3,Win32,60.0024001,5fa48cbe7b244412adf37bb1,61ad71e11ddd29ccf7a27d5b,61ad72c34004b356baa028c6,,,,,,-77,38,1,0,0,response7disk,0.9077,-4,-15,1,0,0,rectangle,-4,-15,1,0,0,-1,3,"[33,31,42,72,127,8,129,72,75,66]",-4,-15,1,0,0,1,33,114,45,1,Yellow,Yellow.jpg,Red,Red.jpg,,
,,,,,,,,,,,,,,,,,,-3,,,,,,,,,,,,,,,,,,,,,,,,,,,5fa48cbe7b244412adf37bb1,001,2021-12-06_04h18.19.488,jm_natural_scene_simialrity_2-12-2021,2021.2.3,Win32,60.0024001,5fa48cbe7b244412adf37bb1,61ad71e11ddd29ccf7a27d5b,61ad72c34004b356baa028c6,,,,,,-51,35,1,0,0,response7disk,0.9601,-9,7,1,0,0,rectangle,-9,7,1,0,0,-1,-4,"[33,31,42,72,127,8,129,72,75,66]",-9,7,1,0,0,1,34,115,29,1,DarkGreen,DarkGreen.jpg,Purple,Purple.jpg,,
,,,,,,,,,,,,,,,,,,-4,,,,,,,,,,,,,,,,,,,,,,,,,,,5fa48cbe7b244412adf37bb1,001,2021-12-06_04h18.19.488,jm_natural_scene_simialrity_2-12-2021,2021.2.3,Win32,60.0024001,5fa48cbe7b244412adf37bb1,61ad71e11ddd29ccf7a27d5b,61ad72c34004b356baa028c6,,,,,,-28,57,1,0,0,response7disk,0.9502,11,-12,1,0,0,rectangle,11,-12,1,0,0,-1,1,"[33,31,42,72,127,8,129,72,75,66]",11,-12,1,0,0,1,35,116,4,1,Red,Red.jpg,Turquiose,Turquiose.jpg,,
,,,,,,,,,,,,,,,,,,-4,,,,,,,,,,,,,,,,,,,,,,,,,,,5fa48cbe7b244412adf37bb1,001,2021-12-06_04h18.19.488,jm_natural_scene_simialrity_2-12-2021,2021.2.3,Win32,60.0024001,5fa48cbe7b244412adf37bb1,61ad71e11ddd29ccf7a27d5b,61ad72c34004b356baa028c6,,,,,,-36,83,1,0,0,response7disk,1.4014,-17,24,1,0,0,rectangle,-17,24,1,0,0,-4,-2,"[33,31,42,72,127,8,129,72,75,66]",-17,24,1,0,0,1,36,117,16,1,Yellow,Yellow.jpg,Purple,Purple.jpg,,
,,,,,,,,,,,,,,,,,,-4,,,,,,,,,,,,,,,,,,,,,,,,,,,5fa48cbe7b244412adf37bb1,001,2021-12-06_04h18.19.488,jm_natural_scene_simialrity_2-12-2021,2021.2.3,Win32,60.0024001,5fa48cbe7b244412adf37bb1,61ad71e11ddd29ccf7a27d5b,61ad72c34004b356baa028c6,,,,,,-56,93,1,0,0,response7disk,0.9731,-15,8,1,0,0,rectangle,-15,8,1,0,0,-4,-4,"[33,31,42,72,127,8,129,72,75,66]",-15,8,1,0,0,1,37,118,64,1,Pink,Pink.jpg,LightGreen,LightGreen.jpg,,
,,,,,,,,,,,,,,,,,,-4,,,,,,,,,,,,,,,,,,,,,,,,,,,5fa48cbe7b244412adf37bb1,001,2021-12-06_04h18.19.488,jm_natural_scene_simialrity_2-12-2021,2021.2.3,Win32,60.0024001,5fa48cbe7b244412adf37bb1,61ad71e11ddd29ccf7a27d5b,61ad72c34004b356baa028c6,,,,,,-44,73,1,0,0,response7disk,0.8463,-19,-2,1,0,0,rectangle,-19,-2,1,0,0,-4,3,"[33,31,42,72,127,8,129,72,75,66]",-19,-2,1,0,0,1,38,119,46,1,LightGreen,LightGreen.jpg,Red,Red.jpg,,
,,,,,,,,,,,,,,,,,,-2,,,,,,,,,,,,,,,,,,,,,,,,,,,5fa48cbe7b244412adf37bb1,001,2021-12-06_04h18.19.488,jm_natural_scene_simialrity_2-12-2021,2021.2.3,Win32,60.0024001,5fa48cbe7b244412adf37bb1,61ad71e11ddd29ccf7a27d5b,61ad72c34004b356baa028c6,,,,,,-103,-59,1,0,0,response5disk,3.7736,-14,-11,1,0,0,rectangle,-14,-11,1,0,0,-4,3,"[33,31,42,72,127,8,129,72,75,66]",-14,-11,1,0,0,1,39,120,8,1,Red,Red.jpg,Purple,Purple.jpg,,
,,,,,,,,,,,,,,,,,,-2,,,,,,,,,,,,,,,,,,,,,,,,,,,5fa48cbe7b244412adf37bb1,001,2021-12-06_04h18.19.488,jm_natural_scene_simialrity_2-12-2021,2021.2.3,Win32,60.0024001,5fa48cbe7b244412adf37bb1,61ad71e11ddd29ccf7a27d5b,61ad72c34004b356baa028c6,,,,,,-93,-33,1,0,0,response5disk,1.2972,17,2,1,0,0,rectangle,17,2,1,0,0,-4,3,"[33,31,42,72,127,8,129,72,75,66]",17,2,1,0,0,1,40,121,37,1,LightBlue,LightBlue.jpg,Pink,Pink.jpg,,
,,,,,,,,,,,,,,,,,,2,,,,,,,,,,,,,,,,,,,,,,,,,,,5fa48cbe7b244412adf37bb1,001,2021-12-06_04h18.19.488,jm_natural_scene_simialrity_2-12-2021,2021.2.3,Win32,60.0024001,5fa48cbe7b244412adf37bb1,61ad71e11ddd29ccf7a27d5b,61ad72c34004b356baa028c6,,,,,,80,-51,1,0,0,response3disk,1.3091,9,-7,1,0,0,rectangle,9,-7,1,0,0,-4,1,"[33,31,42,72,127,8,129,72,75,66]",9,-7,1,0,0,1,41,122,72,1,DarkBlue,DarkBlue.jpg,Turquiose,Turquiose.jpg,,
,,,,,,,,,,,,,,,,,,4,,,,,,,,,,,,,,,,,,,,,,,,,,,5fa48cbe7b244412adf37bb1,001,2021-12-06_04h18.19.488,jm_natural_scene_simialrity_2-12-2021,2021.2.3,Win32,60.0024001,5fa48cbe7b244412adf37bb1,61ad71e11ddd29ccf7a27d5b,61ad72c34004b356baa028c6,,,,,,54,140,1,0,0,response1disk,1.0203,9,5,1,0,0,rectangle,9,5,1,0,0,-4,3,"[33,31,42,72,127,8,129,72,75,66]",9,5,1,0,0,1,42,123,42,1,Pink,Pink.jpg,Pink,Pink.jpg,,
,,,,,,,,,,,,,,,,,,-2,,,,,,,,,,,,,,,,,,,,,,,,,,,5fa48cbe7b244412adf37bb1,001,2021-12-06_04h18.19.488,jm_natural_scene_simialrity_2-12-2021,2021.2.3,Win32,60.0024001,5fa48cbe7b244412adf37bb1,61ad71e11ddd29ccf7a27d5b,61ad72c34004b356baa028c6,,,,,,-65,-51,1,0,0,response5disk,1.3693,-4,-25,1,0,0,rectangle,-4,-25,1,0,0,-4,-1,"[33,31,42,72,127,8,129,72,75,66]",-4,-25,1,0,0,1,43,124,53,1,LightGreen,LightGreen.jpg,Yellow,Yellow.jpg,,
,,,,,,,,,,,,,,,,,,3,,,,,,,,,,,,,,,,,,,,,,,,,,,5fa48cbe7b244412adf37bb1,001,2021-12-06_04h18.19.488,jm_natural_scene_simialrity_2-12-2021,2021.2.3,Win32,60.0024001,5fa48cbe7b244412adf37bb1,61ad71e11ddd29ccf7a27d5b,61ad72c34004b356baa028c6,,,,,,114,38,1,0,0,response1disk,1.2001,-6,-14,1,0,0,rectangle,-6,-14,1,0,0,-4,-2,"[33,31,42,72,127,8,129,72,75,66]",-6,-14,1,0,0,1,44,125,77,1,Purple,Purple.jpg,LightBlue,LightBlue.jpg,,
,,,,,,,,,,,,,,,,,,3,,,,,,,,,,,,,,,,,,,,,,,,,,,5fa48cbe7b244412adf37bb1,001,2021-12-06_04h18.19.488,jm_natural_scene_simialrity_2-12-2021,2021.2.3,Win32,60.0024001,5fa48cbe7b244412adf37bb1,61ad71e11ddd29ccf7a27d5b,61ad72c34004b356baa028c6,,,,,,89,53,1,0,0,response1disk,1.2671,-7,2,1,0,0,rectangle,-51,35,1,0,0,-3,-3,"[33,31,42,72,127,8,129,72,75,66]",-6,-8,1,0,0,1,45,126,32,1,Turquiose,Turquiose.jpg,DarkBlue,DarkBlue.jpg,response7disk_3,rectangle
,,,,,,,,,,,,,,,,,,-3,,,,,,,,,,,,,,,,,,,,,,,,,,,5fa48cbe7b244412adf37bb1,001,2021-12-06_04h18.19.488,jm_natural_scene_simialrity_2-12-2021,2021.2.3,Win32,60.0024001,5fa48cbe7b244412adf37bb1,61ad71e11ddd29ccf7a27d5b,61ad72c34004b356baa028c6,,,,,,-80,30,1,0,0,response7disk,1.3118,12,-22,1,0,0,rectangle,12,-22,1,0,0,-3,-1,"[33,31,42,72,127,8,129,72,75,66]",12,-22,1,0,0,1,46,127,73,1,Pink,Pink.jpg,Turquiose,Turquiose.jpg,,
,,,,,,,,,,,,,,,,,,4,,,,,,,,,,,,,,,,,,,,,,,,,,,5fa48cbe7b244412adf37bb1,001,2021-12-06_04h18.19.488,jm_natural_scene_simialrity_2-12-2021,2021.2.3,Win32,60.0024001,5fa48cbe7b244412adf37bb1,61ad71e11ddd29ccf7a27d5b,61ad72c34004b356baa028c6,,,,,,39,77,1,0,0,response1disk,1.0842,1,14,1,0,0,rectangle,49,-76,1,0,0,1,1,"[33,31,42,72,127,8,129,72,75,66]",21,-1,1,0,0,1,47,128,30,1,Turquiose,Turquiose.jpg,Turquiose,Turquiose.jpg,response3disk_3,rectangle
,,,,,,,,,,,,,,,,,,-2,,,,,,,,,,,,,,,,,,,,,,,,,,,5fa48cbe7b244412adf37bb1,001,2021-12-06_04h18.19.488,jm_natural_scene_simialrity_2-12-2021,2021.2.3,Win32,60.0024001,5fa48cbe7b244412adf37bb1,61ad71e11ddd29ccf7a27d5b,61ad72c34004b356baa028c6,,,,,,-81,-30,1,0,0,response5disk,1.3207,-17,3,1,0,0,rectangle,-17,3,1,0,0,1,-2,"[33,31,42,72,127,8,129,72,75,66]",-17,3,1,0,0,1,48,129,78,1,Pink,Pink.jpg,DarkBlue,DarkBlue.jpg,,
,,,,,,,,,,,,,,,,,,-2,,,,,,,,,,,,,,,,,,,,,,,,,,,5fa48cbe7b244412adf37bb1,001,2021-12-06_04h18.19.488,jm_natural_scene_simialrity_2-12-2021,2021.2.3,Win32,60.0024001,5fa48cbe7b244412adf37bb1,61ad71e11ddd29ccf7a27d5b,61ad72c34004b356baa028c6,,,,,,-99,-63,1,0,0,response5disk,2.2513,-20,-4,1,0,0,rectangle,-20,-4,1,0,0,1,3,"[33,31,42,72,127,8,129,72,75,66]",-20,-4,1,0,0,1,49,130,76,1,Pink,Pink.jpg,LightBlue,LightBlue.jpg,,
,,,,,,,,,,,,,,,,,,-3,,,,,,,,,,,,,,,,,,,,,,,,,,,5fa48cbe7b244412adf37bb1,001,2021-12-06_04h18.19.488,jm_natural_scene_simialrity_2-12-2021,2021.2.3,Win32,60.0024001,5fa48cbe7b244412adf37bb1,61ad71e11ddd29ccf7a27d5b,61ad72c34004b356baa028c6,,,,,,-74,31,1,0,0,response7disk,0.8915,-9,-5,1,0,0,rectangle,-9,-5,1,0,0,1,2,"[33,31,42,72,127,8,129,72,75,66]",-9,-5,1,0,0,1,50,131,5,1,Red,Red.jpg,LightBlue,LightBlue.jpg,,
,,,,,,,,,,,,,,,,,,-3,,,,,,,,,,,,,,,,,,,,,,,,,,,5fa48cbe7b244412adf37bb1,001,2021-12-06_04h18.19.488,jm_natural_scene_simialrity_2-12-2021,2021.2.3,Win32,60.0024001,5fa48cbe7b244412adf37bb1,61ad71e11ddd29ccf7a27d5b,61ad72c34004b356baa028c6,,,,,,-93,45,1,0,0,response7disk,0.8866,-12,9,1,0,0,rectangle,-12,9,1,0,0,1,3,"[33,31,42,72,127,8,129,72,75,66]",-12,9,1,0,0,1,51,132,67,1,LightBlue,LightBlue.jpg,DarkGreen,DarkGreen.jpg,,
,,,,,,,,,,,,,,,,,,-3,,,,,,,,,,,,,,,,,,,,,,,,,,,5fa48cbe7b244412adf37bb1,001,2021-12-06_04h18.19.488,jm_natural_scene_simialrity_2-12-2021,2021.2.3,Win32,60.0024001,5fa48cbe7b244412adf37bb1,61ad71e11ddd29ccf7a27d5b,61ad72c34004b356baa028c6,,,,,,-60,54,1,0,0,response7disk,1.2133,-12,-3,1,0,0,rectangle,-12,-3,1,0,0,1,-1,"[33,31,42,72,127,8,129,72,75,66]",-12,-3,1,0,0,1,52,133,3,1,Red,Red.jpg,DarkGreen,DarkGreen.jpg,,
,,,,,,,,,,,,,,,,,,3,,,,,,,,,,,,,,,,,,,,,,,,,,,5fa48cbe7b244412adf37bb1,001,2021-12-06_04h18.19.488,jm_natural_scene_simialrity_2-12-2021,2021.2.3,Win32,60.0024001,5fa48cbe7b244412adf37bb1,61ad71e11ddd29ccf7a27d5b,61ad72c34004b356baa028c6,,,,,,52,42,1,0,0,response1disk,1.1426,1,-7,1,0,0,rectangle,1,-7,1,0,0,1,2,"[33,31,42,72,127,8,129,72,75,66]",1,-7,1,0,0,1,53,134,36,1,LightBlue,LightBlue.jpg,DarkBlue,DarkBlue.jpg,,
,,,,,,,,,,,,,,,,,,3,,,,,,,,,,,,,,,,,,,,,,,,,,,5fa48cbe7b244412adf37bb1,001,2021-12-06_04h18.19.488,jm_natural_scene_simialrity_2-12-2021,2021.2.3,Win32,60.0024001,5fa48cbe7b244412adf37bb1,61ad71e11ddd29ccf7a27d5b,61ad72c34004b356baa028c6,,,,,,75,25,1,0,0,response1disk,1.8008,17,8,1,0,0,rectangle,17,8,1,0,0,1,2,"[33,31,42,72,127,8,129,72,75,66]",17,8,1,0,0,1,54,135,75,1,DarkBlue,DarkBlue.jpg,LightBlue,LightBlue.jpg,,
,,,,,,,,,,,,,,,,,,-1,,,,,,,,,,,,,,,,,,,,,,,,,,,5fa48cbe7b244412adf37bb1,001,2021-12-06_04h18.19.488,jm_natural_scene_simialrity_2-12-2021,2021.2.3,Win32,60.0024001,5fa48cbe7b244412adf37bb1,61ad71e11ddd29ccf7a27d5b,61ad72c34004b356baa028c6,,,,,,-65,-77,0,0,1,response5disk,2.2108,1,2,1,0,0,rectangle,1,2,1,0,0,1,-1,"[33,31,42,72,127,8,129,72,75,66]",1,2,1,0,0,1,55,136,49,1,LightBlue,LightBlue.jpg,Red,Red.jpg,,
,,,,,,,,,,,,,,,,,,-4,,,,,,,,,,,,,,,,,,,,,,,,,,,5fa48cbe7b244412adf37bb1,001,2021-12-06_04h18.19.488,jm_natural_scene_simialrity_2-12-2021,2021.2.3,Win32,60.0024001,5fa48cbe7b244412adf37bb1,61ad71e11ddd29ccf7a27d5b,61ad72c34004b356baa028c6,,,,,,-54,95,1,0,0,response7disk,1.4848,-1,12,1,0,0,rectangle,-1,12,1,0,0,1,-1,"[33,31,42,72,127,8,129,72,75,66]",-1,12,1,0,0,1,56,137,14,1,Yellow,Yellow.jpg,DarkBlue,DarkBlue.jpg,,
,,,,,,,,,,,,,,,,,,-3,,,,,,,,,,,,,,,,,,,,,,,,,,,5fa48cbe7b244412adf37bb1,001,2021-12-06_04h18.19.488,jm_natural_scene_simialrity_2-12-2021,2021.2.3,Win32,60.0024001,5fa48cbe7b244412adf37bb1,61ad71e11ddd29ccf7a27d5b,61ad72c34004b356baa028c6,,,,,,-101,47,1,0,0,response7disk,1.4282,0,-4,1,0,0,rectangle,0,-4,1,0,0,1,-4,"[33,31,42,72,127,8,129,72,75,66]",0,-4,1,0,0,1,57,138,54,1,DarkGreen,DarkGreen.jpg,Yellow,Yellow.jpg,,
,,,,,,,,,,,,,,,,,,-4,,,,,,,,,,,,,,,,,,,,,,,,,,,5fa48cbe7b244412adf37bb1,001,2021-12-06_04h18.19.488,jm_natural_scene_simialrity_2-12-2021,2021.2.3,Win32,60.0024001,5fa48cbe7b244412adf37bb1,61ad71e11ddd29ccf7a27d5b,61ad72c34004b356baa028c6,,,,,,-66,120,1,0,0,response7disk,1.3595,6,8,1,0,0,rectangle,6,8,1,0,0,1,3,"[33,31,42,72,127,8,129,72,75,66]",6,8,1,0,0,1,58,139,28,1,DarkGreen,DarkGreen.jpg,Pink,Pink.jpg,,
,,,,,,,,,,,,,,,,,,-3,,,,,,,,,,,,,,,,,,,,,,,,,,,5fa48cbe7b244412adf37bb1,001,2021-12-06_04h18.19.488,jm_natural_scene_simialrity_2-12-2021,2021.2.3,Win32,60.0024001,5fa48cbe7b244412adf37bb1,61ad71e11ddd29ccf7a27d5b,61ad72c34004b356baa028c6,,,,,,-88,51,1,0,0,response7disk,1.7804,-16,3,1,0,0,rectangle,-16,3,1,0,0,1,-4,"[33,31,42,72,127,8,129,72,75,66]",-16,3,1,0,0,1,59,140,23,1,LightGreen,LightGreen.jpg,Purple,Purple.jpg,,
,,,,,,,,,,,,,,,,,,2,,,,,,,,,,,,,,,,,,,,,,,,,,,5fa48cbe7b244412adf37bb1,001,2021-12-06_04h18.19.488,jm_natural_scene_simialrity_2-12-2021,2021.2.3,Win32,60.0024001,5fa48cbe7b244412adf37bb1,61ad71e11ddd29ccf7a27d5b,61ad72c34004b356baa028c6,,,,,,66,-47,1,0,0,response3disk,2.1267,13,-9,1,0,0,rectangle,13,-9,1,0,0,1,-4,"[33,31,42,72,127,8,129,72,75,66]",13,-9,1,0,0,1,60,141,79,1,Purple,Purple.jpg,DarkBlue,DarkBlue.jpg,,
,,,,,,,,,,,,,,,,,,-3,,,,,,,,,,,,,,,,,,,,,,,,,,,5fa48cbe7b244412adf37bb1,001,2021-12-06_04h18.19.488,jm_natural_scene_simialrity_2-12-2021,2021.2.3,Win32,60.0024001,5fa48cbe7b244412adf37bb1,61ad71e11ddd29ccf7a27d5b,61ad72c34004b356baa028c6,,,,,,-93,51,1,0,0,response7disk,1.5206,-8,-19,1,0,0,rectangle,-8,-19,1,0,0,1,1,"[33,31,42,72,127,8,129,72,75,66]",-8,-19,1,0,0,1,61,142,55,1,Turquiose,Turquiose.jpg,Yellow,Yellow.jpg,,
,,,,,,,,,,,,,,,,,,4,,,,,,,,,,,,,,,,,,,,,,,,,,,5fa48cbe7b244412adf37bb1,001,2021-12-06_04h18.19.488,jm_natural_scene_simialrity_2-12-2021,2021.2.3,Win32,60.0024001,5fa48cbe7b244412adf37bb1,61ad71e11ddd29ccf7a27d5b,61ad72c34004b356baa028c6,,,,,,30,115,1,0,0,response1disk,1.3081,13,7,1,0,0,rectangle,13,7,1,0,0,1,-1,"[33,31,42,72,127,8,129,72,75,66]",13,7,1,0,0,1,62,143,24,1,DarkGreen,DarkGreen.jpg,DarkGreen,DarkGreen.jpg,,
,,,,,,,,,,,,,,,,,,3,,,,,,,,,,,,,,,,,,,,,,,,,,,5fa48cbe7b244412adf37bb1,001,2021-12-06_04h18.19.488,jm_natural_scene_simialrity_2-12-2021,2021.2.3,Win32,60.0024001,5fa48cbe7b244412adf37bb1,61ad71e11ddd29ccf7a27d5b,61ad72c34004b356baa028c6,,,,,,115,70,1,0,0,response1disk,1.1511,9,1,1,0,0,rectangle,9,1,1,0,0,1,-3,"[33,31,42,72,127,8,129,72,75,66]",9,1,1,0,0,1,63,144,60,1,DarkGreen,DarkGreen.jpg,LightGreen,LightGreen.jpg,,
,,,,,,,,,,,,,,,,,,3,,,,,,,,,,,,,,,,,,,,,,,,,,,5fa48cbe7b244412adf37bb1,001,2021-12-06_04h18.19.488,jm_natural_scene_simialrity_2-12-2021,2021.2.3,Win32,60.0024001,5fa48cbe7b244412adf37bb1,61ad71e11ddd29ccf7a27d5b,61ad72c34004b356baa028c6,,,,,,120,57,1,0,0,response1disk,1.1574,5,4,1,0,0,rectangle,5,4,1,0,0,1,1,"[33,31,42,72,127,8,129,72,75,66]",5,4,1,0,0,1,64,145,51,1,Pink,Pink.jpg,Red,Red.jpg,,
,,,,,,,,,,,,,,,,,,-1,,,,,,,,,,,,,,,,,,,,,,,,,,,5fa48cbe7b244412adf37bb1,001,2021-12-06_04h18.19.488,jm_natural_scene_simialrity_2-12-2021,2021.2.3,Win32,60.0024001,5fa48cbe7b244412adf37bb1,61ad71e11ddd29ccf7a27d5b,61ad72c34004b356baa028c6,,,,,,-28,-79,1,0,0,response5disk,1.6078,7,-25,1,0,0,rectangle,7,-25,1,0,0,1,3,"[33,31,42,72,127,8,129,72,75,66]",7,-25,1,0,0,1,65,146,21,1,LightGreen,LightGreen.jpg,DarkBlue,DarkBlue.jpg,,
,,,,,,,,,,,,,,,,,,-2,,,,,,,,,,,,,,,,,,,,,,,,,,,5fa48cbe7b244412adf37bb1,001,2021-12-06_04h18.19.488,jm_natural_scene_simialrity_2-12-2021,2021.2.3,Win32,60.0024001,5fa48cbe7b244412adf37bb1,61ad71e11ddd29ccf7a27d5b,61ad72c34004b356baa028c6,,,,,,-81,-29,1,0,0,response5disk,1.358,11,-6,1,0,0,rectangle,11,-6,1,0,0,1,2,"[33,31,42,72,127,8,129,72,75,66]",11,-6,1,0,0,1,66,147,62,1,LightBlue,LightBlue.jpg,LightGreen,LightGreen.jpg,,
,,,,,,,,,,,,,,,,,,-2,,,,,,,,,,,,,,,,,,,,,,,,,,,5fa48cbe7b244412adf37bb1,001,2021-12-06_04h18.19.488,jm_natural_scene_simialrity_2-12-2021,2021.2.3,Win32,60.0024001,5fa48cbe7b244412adf37bb1,61ad71e11ddd29ccf7a27d5b,61ad72c34004b356baa028c6,,,,,,-56,-43,1,0,0,response5disk,2.3248,4,-9,1,0,0,rectangle,4,-9,1,0,0,1,-3,"[33,31,42,72,127,8,129,72,75,66]",4,-9,1,0,0,1,67,148,63,1,DarkBlue,DarkBlue.jpg,LightGreen,LightGreen.jpg,,
,,,,,,,,,,,,,,,,,,-2,,,,,,,,,,,,,,,,,,,,,,,,,,,5fa48cbe7b244412adf37bb1,001,2021-12-06_04h18.19.488,jm_natural_scene_simialrity_2-12-2021,2021.2.3,Win32,60.0024001,5fa48cbe7b244412adf37bb1,61ad71e11ddd29ccf7a27d5b,61ad72c34004b356baa028c6,,,,,,-57,-17,1,0,0,response5disk,1.1267,-19,24,1,0,0,rectangle,-19,24,1,0,0,-4,-2,"[33,31,42,72,127,8,129,72,75,66]",-19,24,1,0,0,1,68,149,19,1,LightGreen,LightGreen.jpg,Turquiose,Turquiose.jpg,,
,,,,,,,,,,,,,,,,,,2,,,,,,,,,,,,,,,,,,,,,,,,,,,5fa48cbe7b244412adf37bb1,001,2021-12-06_04h18.19.488,jm_natural_scene_simialrity_2-12-2021,2021.2.3,Win32,60.0024001,5fa48cbe7b244412adf37bb1,61ad71e11ddd29ccf7a27d5b,61ad72c34004b356baa028c6,,,,,,124,-55,1,0,0,response3disk,1.8096,11,-5,1,0,0,rectangle,11,-5,1,0,0,-4,-1,"[33,31,42,72,127,8,129,72,75,66]",11,-5,1,0,0,1,69,150,7,1,Red,Red.jpg,Pink,Pink.jpg,,
,,,,,,,,,,,,,,,,,,1,,,,,,,,,,,,,,,,,,,,,,,,,,,5fa48cbe7b244412adf37bb1,001,2021-12-06_04h18.19.488,jm_natural_scene_simialrity_2-12-2021,2021.2.3,Win32,60.0024001,5fa48cbe7b244412adf37bb1,61ad71e11ddd29ccf7a27d5b,61ad72c34004b356baa028c6,,,,,,66,-109,1,0,0,response3disk,2.11,10,-17,1,0,0,rectangle,10,-17,1,0,0,-4,2,"[33,31,42,72,127,8,129,72,75,66]",10,-17,1,0,0,1,70,151,80,1,Purple,Purple.jpg,Pink,Pink.jpg,,
,,,,,,,,,,,,,,,,,,4,,,,,,,,,,,,,,,,,,,,,,,,,,,5fa48cbe7b244412adf37bb1,001,2021-12-06_04h18.19.488,jm_natural_scene_simialrity_2-12-2021,2021.2.3,Win32,60.0024001,5fa48cbe7b244412adf37bb1,61ad71e11ddd29ccf7a27d5b,61ad72c34004b356baa028c6,,,,,,68,124,1,0,0,response1disk,1.0462,-8,16,1,0,0,rectangle,-8,16,1,0,0,-4,1,"[33,31,42,72,127,8,129,72,75,66]",-8,16,1,0,0,1,71,152,9,1,Yellow,Yellow.jpg,Yellow,Yellow.jpg,,
,,,,,,,,,,,,,,,,,,2,,,,,,,,,,,,,,,,,,,,,,,,,,,5fa48cbe7b244412adf37bb1,001,2021-12-06_04h18.19.488,jm_natural_scene_simialrity_2-12-2021,2021.2.3,Win32,60.0024001,5fa48cbe7b244412adf37bb1,61ad71e11ddd29ccf7a27d5b,61ad72c34004b356baa028c6,,,,,,61,-18,1,0,0,response3disk,1.4219,7,-1,1,0,0,rectangle,7,-1,1,0,0,-4,-1,"[33,31,42,72,127,8,129,72,75,66]",7,-1,1,0,0,1,72,153,26,1,DarkGreen,DarkGreen.jpg,LightBlue,LightBlue.jpg,,
,,,,,,,,,,,,,,,,,,3,,,,,,,,,,,,,,,,,,,,,,,,,,,5fa48cbe7b244412adf37bb1,001,2021-12-06_04h18.19.488,jm_natural_scene_simialrity_2-12-2021,2021.2.3,Win32,60.0024001,5fa48cbe7b244412adf37bb1,61ad71e11ddd29ccf7a27d5b,61ad72c34004b356baa028c6,,,,,,101,47,1,0,0,response1disk,1.0582,-6,-6,1,0,0,rectangle,-6,-6,1,0,0,-4,-2,"[33,31,42,72,127,8,129,72,75,66]",-6,-6,1,0,0,1,73,154,34,1,Turquiose,Turquiose.jpg,Purple,Purple.jpg,,
,,,,,,,,,,,,,,,,,,-2,,,,,,,,,,,,,,,,,,,,,,,,,,,5fa48cbe7b244412adf37bb1,001,2021-12-06_04h18.19.488,jm_natural_scene_simialrity_2-12-2021,2021.2.3,Win32,60.0024001,5fa48cbe7b244412adf37bb1,61ad71e11ddd29ccf7a27d5b,61ad72c34004b356baa028c6,,,,,,-106,-41,1,0,0,response5disk,1.1811,-17,-3,1,0,0,rectangle,-17,-3,1,0,0,-4,-4,"[33,31,42,72,127,8,129,72,75,66]",-17,-3,1,0,0,1,74,155,20,1,LightGreen,LightGreen.jpg,LightBlue,LightBlue.jpg,,
,,,,,,,,,,,,,,,,,,-3,,,,,,,,,,,,,,,,,,,,,,,,,,,5fa48cbe7b244412adf37bb1,001,2021-12-06_04h18.19.488,jm_natural_scene_simialrity_2-12-2021,2021.2.3,Win32,60.0024001,5fa48cbe7b244412adf37bb1,61ad71e11ddd29ccf7a27d5b,61ad72c34004b356baa028c6,,,,,,-81,43,1,0,0,response7disk,1.9188,-5,6,1,0,0,rectangle,-5,6,1,0,0,-4,-1,"[33,31,42,72,127,8,129,72,75,66]",-5,6,1,0,0,1,75,156,65,1,Purple,Purple.jpg,LightGreen,LightGreen.jpg,,
,,,,,,,,,,,,,,,,,,-4,,,,,,,,,,,,,,,,,,,,,,,,,,,5fa48cbe7b244412adf37bb1,001,2021-12-06_04h18.19.488,jm_natural_scene_simialrity_2-12-2021,2021.2.3,Win32,60.0024001,5fa48cbe7b244412adf37bb1,61ad71e11ddd29ccf7a27d5b,61ad72c34004b356baa028c6,,,,,,-49,93,1,0,0,response7disk,1.0706,10,7,1,0,0,rectangle,10,7,1,0,0,-4,-4,"[33,31,42,72,127,8,129,72,75,66]",10,7,1,0,0,1,76,157,33,1,Turquiose,Turquiose.jpg,Pink,Pink.jpg,,
,,,,,,,,,,,,,,,,,,-4,,,,,,,,,,,,,,,,,,,,,,,,,,,5fa48cbe7b244412adf37bb1,001,2021-12-06_04h18.19.488,jm_natural_scene_simialrity_2-12-2021,2021.2.3,Win32,60.0024001,5fa48cbe7b244412adf37bb1,61ad71e11ddd29ccf7a27d5b,61ad72c34004b356baa028c6,,,,,,-41,94,1,0,0,response7disk,0.9873,-1,15,1,0,0,rectangle,-1,15,1,0,0,-4,-1,"[33,31,42,72,127,8,129,72,75,66]",-1,15,1,0,0,1,77,158,43,1,Pink,Pink.jpg,Purple,Purple.jpg,,
,,,,,,,,,,,,,,,,,,-4,,,,,,,,,,,,,,,,,,,,,,,,,,,5fa48cbe7b244412adf37bb1,001,2021-12-06_04h18.19.488,jm_natural_scene_simialrity_2-12-2021,2021.2.3,Win32,60.0024001,5fa48cbe7b244412adf37bb1,61ad71e11ddd29ccf7a27d5b,61ad72c34004b356baa028c6,,,,,,-40,73,1,0,0,response7disk,1.0716,1,-13,1,0,0,rectangle,1,-13,1,0,0,-4,1,"[33,31,42,72,127,8,129,72,75,66]",1,-13,1,0,0,1,78,159,25,1,DarkGreen,DarkGreen.jpg,Turquiose,Turquiose.jpg,,
,,,,,,,,,,,,,,,,,,-3,,,,,,,,,,,,,,,,,,,,,,,,,,,5fa48cbe7b244412adf37bb1,001,2021-12-06_04h18.19.488,jm_natural_scene_simialrity_2-12-2021,2021.2.3,Win32,60.0024001,5fa48cbe7b244412adf37bb1,61ad71e11ddd29ccf7a27d5b,61ad72c34004b356baa028c6,,,,,,-79,39,1,0,0,response7disk,1.105,-16,4,1,0,0,rectangle,-16,4,1,0,0,-4,-1,"[33,31,42,72,127,8,129,72,75,66]",-16,4,1,0,0,1,79,160,61,1,Turquiose,Turquiose.jpg,LightGreen,LightGreen.jpg,,
,,,,,,,,,,,,,,,,,,2,,,,,,,,,,,,,,,,,,,,,,,,,,,5fa48cbe7b244412adf37bb1,001,2021-12-06_04h18.19.488,jm_natural_scene_simialrity_2-12-2021,2021.2.3,Win32,60.0024001,5fa48cbe7b244412adf37bb1,61ad71e11ddd29ccf7a27d5b,61ad72c34004b356baa028c6,,,,,,76,-68,1,0,0,response3disk,1.7924,-4,2,1,0,0,rectangle,-4,2,1,0,0,-4,3,"[33,31,42,72,127,8,129,72,75,66]",-4,2,1,0,0,1,80,161,71,1,LightBlue,LightBlue.jpg,Turquiose,Turquiose.jpg,,
