key_resp.keys,key_resp.rt,key_resp_16.keys,key_resp_16.rt,key_resp_2.keys,key_resp_2.rt,key_resp_3.keys,key_resp_3.rt,key_resp_19.keys,key_resp_19.rt,key_resp_10.keys,key_resp_10.rt,mouse_prac.x,mouse_prac.y,mouse_prac.leftButton,mouse_prac.midButton,mouse_prac.rightButton,mouse_prac.clicked_name,similarity,mouse_10.x,mouse_10.y,mouse_10.leftButton,mouse_10.midButton,mouse_10.rightButton,mouse_10.clicked_name,mouse_catch_prac.x,mouse_catch_prac.y,mouse_catch_prac.leftButton,mouse_catch_prac.midButton,mouse_catch_prac.rightButton,mouse_catch_prac.clicked_name,catchprac,catchnumberprac,mouse_6.x,mouse_6.y,mouse_6.leftButton,mouse_6.midButton,mouse_6.rightButton,mouse_6.clicked_name,during_prac.thisRepN,during_prac.thisTrialN,during_prac.thisN,during_prac.thisIndex,during_prac.ran,trailimage1,trial1adress,trailimage2,trial2adress,participant,session,date,expName,psychopyVersion,OS,frameRate,PROLIFIC_PID,STUDY_ID,SESSION_ID,key_resp_22.keys,key_resp_22.rt,mouse.x,mouse.y,mouse.leftButton,mouse.midButton,mouse.rightButton,mouse.clicked_name,response_time,mouse_2.x,mouse_2.y,mouse_2.leftButton,mouse_2.midButton,mouse_2.rightButton,mouse_2.clicked_name,mouse_3.x,mouse_3.y,mouse_3.leftButton,mouse_3.midButton,mouse_3.rightButton,catchresponse,catchnumber,catchtrialorder,mouse_11.x,mouse_11.y,mouse_11.leftButton,mouse_11.midButton,mouse_11.rightButton,trials_2.thisRepN,trials_2.thisTrialN,trials_2.thisN,trials_2.thisIndex,trials_2.ran,image1,image1adress,image2,image2adress,mouse_3.clicked_name,mouse_11.clicked_name
space,2.45,space,3.4295,space,3.1566,space,6.9697,space,22.0478,space,9.4679,93,-39,1,0,0,response3disk_5,2,3,2,1,0,0,rectangle_8,-52,-114,1,0,0,response5disk_7,-1,-1,-7,-4,1,0,0,rectangle_4,0,0,0,0,1,trail1,trail1.jpg,trail1,trail1.jpg,609190b7869cb8cba8c18c04,001,2021-12-05_23h16.07.849,jm_natural_scene_simialrity_2-12-2021,2021.2.3,Win32,59.88382538,609190b7869cb8cba8c18c04,61ad71e11ddd29ccf7a27d5b,61ad7244cd739902d5c56436,,,,,,,,,,,,,,,,,,,,,,,,,,,,,,,,,,,,,,,
,,,,,,,,,,,,-102,34,1,0,0,response7disk_5,-3,-2,-6,1,0,0,rectangle_8,-63,-119,1,0,0,response5disk_7,-1,-1,8,2,1,0,0,rectangle_4,0,1,1,1,1,trail1,trail1.jpg,trail2,trail2.jpg,609190b7869cb8cba8c18c04,001,2021-12-05_23h16.07.849,jm_natural_scene_simialrity_2-12-2021,2021.2.3,Win32,59.88382538,609190b7869cb8cba8c18c04,61ad71e11ddd29ccf7a27d5b,61ad7244cd739902d5c56436,,,,,,,,,,,,,,,,,,,,,,,,,,,,,,,,,,,,,,,
,,,,,,,,,,,,39,84,1,0,0,response1disk_5,4,-5,6,1,0,0,rectangle_8,-5,6,1,0,0,,,-1,-5,6,1,0,0,,0,2,2,5,1,trail3,trail3.jpg,trail3,trail3.jpg,609190b7869cb8cba8c18c04,001,2021-12-05_23h16.07.849,jm_natural_scene_simialrity_2-12-2021,2021.2.3,Win32,59.88382538,609190b7869cb8cba8c18c04,61ad71e11ddd29ccf7a27d5b,61ad7244cd739902d5c56436,,,,,,,,,,,,,,,,,,,,,,,,,,,,,,,,,,,,,,,
,,,,,,,,,,,,117,42,1,0,0,response1disk_5,3,6,0,1,0,0,rectangle_8,6,0,1,0,0,,,-1,6,0,1,0,0,,0,3,3,3,1,trail2,trail2.jpg,trail2,trail2.jpg,609190b7869cb8cba8c18c04,001,2021-12-05_23h16.07.849,jm_natural_scene_simialrity_2-12-2021,2021.2.3,Win32,59.88382538,609190b7869cb8cba8c18c04,61ad71e11ddd29ccf7a27d5b,61ad7244cd739902d5c56436,,,,,,,,,,,,,,,,,,,,,,,,,,,,,,,,,,,,,,,
,,,,,,,,,,,,-92,69,1,0,0,response7disk_5,-3,5,4,1,0,0,rectangle_8,5,4,1,0,0,,,-1,5,4,1,0,0,,0,4,4,2,1,trail1,trail1.jpg,trail3,trail3.jpg,609190b7869cb8cba8c18c04,001,2021-12-05_23h16.07.849,jm_natural_scene_simialrity_2-12-2021,2021.2.3,Win32,59.88382538,609190b7869cb8cba8c18c04,61ad71e11ddd29ccf7a27d5b,61ad7244cd739902d5c56436,,,,,,,,,,,,,,,,,,,,,,,,,,,,,,,,,,,,,,,
,,,,,,,,,,,,-57,120,1,0,0,response7disk_5,-4,-9,-13,1,0,0,rectangle_8,-9,-13,1,0,0,,,-1,-9,-13,1,0,0,,0,5,5,4,1,trail2,trail2.jpg,trail3,trail3.jpg,609190b7869cb8cba8c18c04,001,2021-12-05_23h16.07.849,jm_natural_scene_simialrity_2-12-2021,2021.2.3,Win32,59.88382538,609190b7869cb8cba8c18c04,61ad71e11ddd29ccf7a27d5b,61ad7244cd739902d5c56436,,,,,,,,,,,,,,,,,,,,,,,,,,,,,,,,,,,,,,,
,,,,,,,,,,,,,,,,,,-4,,,,,,,,,,,,,,,,,,,,,,,,,,,,,,609190b7869cb8cba8c18c04,001,2021-12-05_23h16.07.849,jm_natural_scene_simialrity_2-12-2021,2021.2.3,Win32,59.88382538,609190b7869cb8cba8c18c04,61ad71e11ddd29ccf7a27d5b,61ad7244cd739902d5c56436,space,2.4248,-70,116,1,0,0,response7disk,2.2543,-4,9,1,0,0,rectangle,-4,9,1,0,0,,-4,"[84,91,153,133,124,149,64,23,43,95]",-4,9,1,0,0,0,0,0,61,1,Turquiose,Turquiose.jpg,LightGreen,LightGreen.jpg,,
,,,,,,,,,,,,,,,,,,-4,,,,,,,,,,,,,,,,,,,,,,,,,,,,,,609190b7869cb8cba8c18c04,001,2021-12-05_23h16.07.849,jm_natural_scene_simialrity_2-12-2021,2021.2.3,Win32,59.88382538,609190b7869cb8cba8c18c04,61ad71e11ddd29ccf7a27d5b,61ad7244cd739902d5c56436,,,-50,100,1,0,0,response7disk,1.0675,-3,3,1,0,0,rectangle,-3,3,1,0,0,,2,"[84,91,153,133,124,149,64,23,43,95]",-3,3,1,0,0,0,1,1,52,1,Purple,Purple.jpg,Red,Red.jpg,,
,,,,,,,,,,,,,,,,,,-4,,,,,,,,,,,,,,,,,,,,,,,,,,,,,,609190b7869cb8cba8c18c04,001,2021-12-05_23h16.07.849,jm_natural_scene_simialrity_2-12-2021,2021.2.3,Win32,59.88382538,609190b7869cb8cba8c18c04,61ad71e11ddd29ccf7a27d5b,61ad7244cd739902d5c56436,,,-56,102,1,0,0,response7disk,0.9841,-7,-5,1,0,0,rectangle,-7,-5,1,0,0,,2,"[84,91,153,133,124,149,64,23,43,95]",-7,-5,1,0,0,0,2,2,28,1,DarkGreen,DarkGreen.jpg,Pink,Pink.jpg,,
,,,,,,,,,,,,,,,,,,-4,,,,,,,,,,,,,,,,,,,,,,,,,,,,,,609190b7869cb8cba8c18c04,001,2021-12-05_23h16.07.849,jm_natural_scene_simialrity_2-12-2021,2021.2.3,Win32,59.88382538,609190b7869cb8cba8c18c04,61ad71e11ddd29ccf7a27d5b,61ad7244cd739902d5c56436,,,-66,107,1,0,0,response7disk,2.6742,-1,5,1,0,0,rectangle,-1,5,1,0,0,,-4,"[84,91,153,133,124,149,64,23,43,95]",-1,5,1,0,0,0,3,3,57,1,DarkBlue,DarkBlue.jpg,Yellow,Yellow.jpg,,
,,,,,,,,,,,,,,,,,,-4,,,,,,,,,,,,,,,,,,,,,,,,,,,,,,609190b7869cb8cba8c18c04,001,2021-12-05_23h16.07.849,jm_natural_scene_simialrity_2-12-2021,2021.2.3,Win32,59.88382538,609190b7869cb8cba8c18c04,61ad71e11ddd29ccf7a27d5b,61ad7244cd739902d5c56436,,,-43,83,1,0,0,response7disk,1.086,-4,7,1,0,0,rectangle,-4,7,1,0,0,,3,"[84,91,153,133,124,149,64,23,43,95]",-4,7,1,0,0,0,4,4,2,1,Red,Red.jpg,LightGreen,LightGreen.jpg,,
,,,,,,,,,,,,,,,,,,3,,,,,,,,,,,,,,,,,,,,,,,,,,,,,,609190b7869cb8cba8c18c04,001,2021-12-05_23h16.07.849,jm_natural_scene_simialrity_2-12-2021,2021.2.3,Win32,59.88382538,609190b7869cb8cba8c18c04,61ad71e11ddd29ccf7a27d5b,61ad7244cd739902d5c56436,,,99,68,1,0,0,response1disk,1.1796,-2,-2,1,0,0,rectangle,-2,-2,1,0,0,,-2,"[84,91,153,133,124,149,64,23,43,95]",-2,-2,1,0,0,0,5,5,60,1,DarkGreen,DarkGreen.jpg,LightGreen,LightGreen.jpg,,
,,,,,,,,,,,,,,,,,,-4,,,,,,,,,,,,,,,,,,,,,,,,,,,,,,609190b7869cb8cba8c18c04,001,2021-12-05_23h16.07.849,jm_natural_scene_simialrity_2-12-2021,2021.2.3,Win32,59.88382538,609190b7869cb8cba8c18c04,61ad71e11ddd29ccf7a27d5b,61ad7244cd739902d5c56436,,,-72,97,1,0,0,response7disk,2.9674,4,-6,1,0,0,rectangle,4,-6,1,0,0,,-3,"[84,91,153,133,124,149,64,23,43,95]",4,-6,1,0,0,0,6,6,69,1,Pink,Pink.jpg,DarkGreen,DarkGreen.jpg,,
,,,,,,,,,,,,,,,,,,2,,,,,,,,,,,,,,,,,,,,,,,,,,,,,,609190b7869cb8cba8c18c04,001,2021-12-05_23h16.07.849,jm_natural_scene_simialrity_2-12-2021,2021.2.3,Win32,59.88382538,609190b7869cb8cba8c18c04,61ad71e11ddd29ccf7a27d5b,61ad7244cd739902d5c56436,,,91,-58,1,0,0,response3disk,1.4003,-14,1,1,0,0,rectangle,-14,1,1,0,0,,3,"[84,91,153,133,124,149,64,23,43,95]",-14,1,1,0,0,0,7,7,77,1,Purple,Purple.jpg,LightBlue,LightBlue.jpg,,
,,,,,,,,,,,,,,,,,,4,,,,,,,,,,,,,,,,,,,,,,,,,,,,,,609190b7869cb8cba8c18c04,001,2021-12-05_23h16.07.849,jm_natural_scene_simialrity_2-12-2021,2021.2.3,Win32,59.88382538,609190b7869cb8cba8c18c04,61ad71e11ddd29ccf7a27d5b,61ad7244cd739902d5c56436,,,45,94,1,0,0,response1disk,1.1668,8,14,1,0,0,rectangle,8,14,1,0,0,,-3,"[84,91,153,133,124,149,64,23,43,95]",8,14,1,0,0,0,8,8,35,1,LightBlue,LightBlue.jpg,LightBlue,LightBlue.jpg,,
,,,,,,,,,,,,,,,,,,1,,,,,,,,,,,,,,,,,,,,,,,,,,,,,,609190b7869cb8cba8c18c04,001,2021-12-05_23h16.07.849,jm_natural_scene_simialrity_2-12-2021,2021.2.3,Win32,59.88382538,609190b7869cb8cba8c18c04,61ad71e11ddd29ccf7a27d5b,61ad7244cd739902d5c56436,,,55,-88,1,0,0,response3disk,1.6058,11,-4,1,0,0,rectangle,11,-4,1,0,0,,-3,"[84,91,153,133,124,149,64,23,43,95]",11,-4,1,0,0,0,9,9,75,1,DarkBlue,DarkBlue.jpg,LightBlue,LightBlue.jpg,,
,,,,,,,,,,,,,,,,,,-4,,,,,,,,,,,,,,,,,,,,,,,,,,,,,,609190b7869cb8cba8c18c04,001,2021-12-05_23h16.07.849,jm_natural_scene_simialrity_2-12-2021,2021.2.3,Win32,59.88382538,609190b7869cb8cba8c18c04,61ad71e11ddd29ccf7a27d5b,61ad7244cd739902d5c56436,,,-59,97,1,0,0,response7disk,0.8998,-3,8,1,0,0,rectangle,-3,8,1,0,0,,1,"[84,91,153,133,124,149,64,23,43,95]",-3,8,1,0,0,0,10,10,55,1,Turquiose,Turquiose.jpg,Yellow,Yellow.jpg,,
,,,,,,,,,,,,,,,,,,-4,,,,,,,,,,,,,,,,,,,,,,,,,,,,,,609190b7869cb8cba8c18c04,001,2021-12-05_23h16.07.849,jm_natural_scene_simialrity_2-12-2021,2021.2.3,Win32,59.88382538,609190b7869cb8cba8c18c04,61ad71e11ddd29ccf7a27d5b,61ad7244cd739902d5c56436,,,-54,96,1,0,0,response7disk,2.0008,0,0,1,0,0,rectangle,0,0,1,0,0,,2,"[84,91,153,133,124,149,64,23,43,95]",0,0,1,0,0,0,11,11,64,1,Pink,Pink.jpg,LightGreen,LightGreen.jpg,,
,,,,,,,,,,,,,,,,,,-3,,,,,,,,,,,,,,,,,,,,,,,,,,,,,,609190b7869cb8cba8c18c04,001,2021-12-05_23h16.07.849,jm_natural_scene_simialrity_2-12-2021,2021.2.3,Win32,59.88382538,609190b7869cb8cba8c18c04,61ad71e11ddd29ccf7a27d5b,61ad7244cd739902d5c56436,,,-109,54,1,0,0,response7disk,2.1682,-10,6,1,0,0,rectangle,-10,6,1,0,0,,2,"[84,91,153,133,124,149,64,23,43,95]",-10,6,1,0,0,0,12,12,20,1,LightGreen,LightGreen.jpg,LightBlue,LightBlue.jpg,,
,,,,,,,,,,,,,,,,,,-2,,,,,,,,,,,,,,,,,,,,,,,,,,,,,,609190b7869cb8cba8c18c04,001,2021-12-05_23h16.07.849,jm_natural_scene_simialrity_2-12-2021,2021.2.3,Win32,59.88382538,609190b7869cb8cba8c18c04,61ad71e11ddd29ccf7a27d5b,61ad7244cd739902d5c56436,,,-100,-49,1,0,0,response5disk,2.6535,1,-13,1,0,0,rectangle,1,-13,1,0,0,,-1,"[84,91,153,133,124,149,64,23,43,95]",1,-13,1,0,0,0,13,13,23,1,LightGreen,LightGreen.jpg,Purple,Purple.jpg,,
,,,,,,,,,,,,,,,,,,-2,,,,,,,,,,,,,,,,,,,,,,,,,,,,,,609190b7869cb8cba8c18c04,001,2021-12-05_23h16.07.849,jm_natural_scene_simialrity_2-12-2021,2021.2.3,Win32,59.88382538,609190b7869cb8cba8c18c04,61ad71e11ddd29ccf7a27d5b,61ad7244cd739902d5c56436,,,-103,-59,1,0,0,response5disk,1.2674,-16,2,1,0,0,rectangle,-16,2,1,0,0,,-4,"[84,91,153,133,124,149,64,23,43,95]",-16,2,1,0,0,0,14,14,65,1,Purple,Purple.jpg,LightGreen,LightGreen.jpg,,
,,,,,,,,,,,,,,,,,,1,,,,,,,,,,,,,,,,,,,,,,,,,,,,,,609190b7869cb8cba8c18c04,001,2021-12-05_23h16.07.849,jm_natural_scene_simialrity_2-12-2021,2021.2.3,Win32,59.88382538,609190b7869cb8cba8c18c04,61ad71e11ddd29ccf7a27d5b,61ad7244cd739902d5c56436,,,47,-81,1,0,0,response3disk,2.634,0,5,1,0,0,rectangle,0,5,1,0,0,,-3,"[84,91,153,133,124,149,64,23,43,95]",0,5,1,0,0,0,15,15,15,1,Yellow,Yellow.jpg,Pink,Pink.jpg,,
,,,,,,,,,,,,,,,,,,-4,,,,,,,,,,,,,,,,,,,,,,,,,,,,,,609190b7869cb8cba8c18c04,001,2021-12-05_23h16.07.849,jm_natural_scene_simialrity_2-12-2021,2021.2.3,Win32,59.88382538,609190b7869cb8cba8c18c04,61ad71e11ddd29ccf7a27d5b,61ad7244cd739902d5c56436,,,-48,84,1,0,0,response7disk,2.0002,1,16,1,0,0,rectangle,1,16,1,0,0,,3,"[84,91,153,133,124,149,64,23,43,95]",1,16,1,0,0,0,16,16,56,1,LightBlue,LightBlue.jpg,Yellow,Yellow.jpg,,
,,,,,,,,,,,,,,,,,,-4,,,,,,,,,,,,,,,,,,,,,,,,,,,,,,609190b7869cb8cba8c18c04,001,2021-12-05_23h16.07.849,jm_natural_scene_simialrity_2-12-2021,2021.2.3,Win32,59.88382538,609190b7869cb8cba8c18c04,61ad71e11ddd29ccf7a27d5b,61ad7244cd739902d5c56436,,,-49,87,1,0,0,response7disk,0.8484,-7,7,1,0,0,rectangle,-7,7,1,0,0,,1,"[84,91,153,133,124,149,64,23,43,95]",-7,7,1,0,0,0,17,17,13,1,Yellow,Yellow.jpg,LightBlue,LightBlue.jpg,,
,,,,,,,,,,,,,,,,,,3,,,,,,,,,,,,,,,,,,,,,,,,,,,,,,609190b7869cb8cba8c18c04,001,2021-12-05_23h16.07.849,jm_natural_scene_simialrity_2-12-2021,2021.2.3,Win32,59.88382538,609190b7869cb8cba8c18c04,61ad71e11ddd29ccf7a27d5b,61ad7244cd739902d5c56436,,,97,63,1,0,0,response1disk,1.4338,-4,7,1,0,0,rectangle,-4,7,1,0,0,,-3,"[84,91,153,133,124,149,64,23,43,95]",-4,7,1,0,0,0,18,18,7,1,Red,Red.jpg,Pink,Pink.jpg,,
,,,,,,,,,,,,,,,,,,-3,,,,,,,,,,,,,,,,,,,,,,,,,,,,,,609190b7869cb8cba8c18c04,001,2021-12-05_23h16.07.849,jm_natural_scene_simialrity_2-12-2021,2021.2.3,Win32,59.88382538,609190b7869cb8cba8c18c04,61ad71e11ddd29ccf7a27d5b,61ad7244cd739902d5c56436,,,-94,39,1,0,0,response7disk,1.6007,0,1,1,0,0,rectangle,0,1,1,0,0,,-1,"[84,91,153,133,124,149,64,23,43,95]",0,1,1,0,0,0,19,19,67,1,LightBlue,LightBlue.jpg,DarkGreen,DarkGreen.jpg,,
,,,,,,,,,,,,,,,,,,4,,,,,,,,,,,,,,,,,,,,,,,,,,,,,,609190b7869cb8cba8c18c04,001,2021-12-05_23h16.07.849,jm_natural_scene_simialrity_2-12-2021,2021.2.3,Win32,59.88382538,609190b7869cb8cba8c18c04,61ad71e11ddd29ccf7a27d5b,61ad7244cd739902d5c56436,,,36,105,1,0,0,response1disk,0.9011,4,12,1,0,0,rectangle,4,12,1,0,0,,-4,"[84,91,153,133,124,149,64,23,43,95]",4,12,1,0,0,0,20,20,0,1,Red,Red.jpg,Red,Red.jpg,,
,,,,,,,,,,,,,,,,,,-3,,,,,,,,,,,,,,,,,,,,,,,,,,,,,,609190b7869cb8cba8c18c04,001,2021-12-05_23h16.07.849,jm_natural_scene_simialrity_2-12-2021,2021.2.3,Win32,59.88382538,609190b7869cb8cba8c18c04,61ad71e11ddd29ccf7a27d5b,61ad7244cd739902d5c56436,,,-78,33,1,0,0,response7disk,3.6695,-8,13,1,0,0,rectangle,-8,13,1,0,0,,-2,"[84,91,153,133,124,149,64,23,43,95]",-8,13,1,0,0,0,21,21,62,1,LightBlue,LightBlue.jpg,LightGreen,LightGreen.jpg,,
,,,,,,,,,,,,,,,,,,1,,,,,,,,,,,,,,,,,,,,,,,,,,,,,,609190b7869cb8cba8c18c04,001,2021-12-05_23h16.07.849,jm_natural_scene_simialrity_2-12-2021,2021.2.3,Win32,59.88382538,609190b7869cb8cba8c18c04,61ad71e11ddd29ccf7a27d5b,61ad7244cd739902d5c56436,,,51,-100,1,0,0,response3disk,1.5311,-3,-11,1,0,0,rectangle,62,-116,1,0,0,1,1,"[84,91,153,133,124,149,64,23,43,95]",4,5,1,0,0,0,22,22,21,1,LightGreen,LightGreen.jpg,DarkBlue,DarkBlue.jpg,response3disk_3,rectangle
,,,,,,,,,,,,,,,,,,-3,,,,,,,,,,,,,,,,,,,,,,,,,,,,,,609190b7869cb8cba8c18c04,001,2021-12-05_23h16.07.849,jm_natural_scene_simialrity_2-12-2021,2021.2.3,Win32,59.88382538,609190b7869cb8cba8c18c04,61ad71e11ddd29ccf7a27d5b,61ad7244cd739902d5c56436,,,-109,47,1,0,0,response7disk,4.6331,-7,-5,1,0,0,rectangle,-7,-5,1,0,0,1,-4,"[84,91,153,133,124,149,64,23,43,95]",-7,-5,1,0,0,0,23,23,68,1,DarkBlue,DarkBlue.jpg,DarkGreen,DarkGreen.jpg,,
,,,,,,,,,,,,,,,,,,-3,,,,,,,,,,,,,,,,,,,,,,,,,,,,,,609190b7869cb8cba8c18c04,001,2021-12-05_23h16.07.849,jm_natural_scene_simialrity_2-12-2021,2021.2.3,Win32,59.88382538,609190b7869cb8cba8c18c04,61ad71e11ddd29ccf7a27d5b,61ad7244cd739902d5c56436,,,-97,45,1,0,0,response7disk,1.8675,-20,-4,1,0,0,rectangle,-20,-4,1,0,0,1,2,"[84,91,153,133,124,149,64,23,43,95]",-20,-4,1,0,0,0,24,24,76,1,Pink,Pink.jpg,LightBlue,LightBlue.jpg,,
,,,,,,,,,,,,,,,,,,1,,,,,,,,,,,,,,,,,,,,,,,,,,,,,,609190b7869cb8cba8c18c04,001,2021-12-05_23h16.07.849,jm_natural_scene_simialrity_2-12-2021,2021.2.3,Win32,59.88382538,609190b7869cb8cba8c18c04,61ad71e11ddd29ccf7a27d5b,61ad7244cd739902d5c56436,,,40,-104,1,0,0,response3disk,2.5159,-4,6,1,0,0,rectangle,-4,6,1,0,0,1,3,"[84,91,153,133,124,149,64,23,43,95]",-4,6,1,0,0,0,25,25,79,1,Purple,Purple.jpg,DarkBlue,DarkBlue.jpg,,
,,,,,,,,,,,,,,,,,,4,,,,,,,,,,,,,,,,,,,,,,,,,,,,,,609190b7869cb8cba8c18c04,001,2021-12-05_23h16.07.849,jm_natural_scene_simialrity_2-12-2021,2021.2.3,Win32,59.88382538,609190b7869cb8cba8c18c04,61ad71e11ddd29ccf7a27d5b,61ad7244cd739902d5c56436,,,22,104,1,0,0,response1disk,0.9181,5,4,1,0,0,rectangle,5,4,1,0,0,1,3,"[84,91,153,133,124,149,64,23,43,95]",5,4,1,0,0,0,26,26,24,1,DarkGreen,DarkGreen.jpg,DarkGreen,DarkGreen.jpg,,
,,,,,,,,,,,,,,,,,,-2,,,,,,,,,,,,,,,,,,,,,,,,,,,,,,609190b7869cb8cba8c18c04,001,2021-12-05_23h16.07.849,jm_natural_scene_simialrity_2-12-2021,2021.2.3,Win32,59.88382538,609190b7869cb8cba8c18c04,61ad71e11ddd29ccf7a27d5b,61ad7244cd739902d5c56436,,,-75,-34,1,0,0,response5disk,1.3176,-8,18,1,0,0,rectangle,-8,18,1,0,0,1,-3,"[84,91,153,133,124,149,64,23,43,95]",-8,18,1,0,0,0,27,27,70,1,Purple,Purple.jpg,DarkGreen,DarkGreen.jpg,,
,,,,,,,,,,,,,,,,,,-4,,,,,,,,,,,,,,,,,,,,,,,,,,,,,,609190b7869cb8cba8c18c04,001,2021-12-05_23h16.07.849,jm_natural_scene_simialrity_2-12-2021,2021.2.3,Win32,59.88382538,609190b7869cb8cba8c18c04,61ad71e11ddd29ccf7a27d5b,61ad7244cd739902d5c56436,,,-62,88,1,0,0,response7disk,1.1176,-10,-17,1,0,0,rectangle,-10,-17,1,0,0,1,-2,"[84,91,153,133,124,149,64,23,43,95]",-10,-17,1,0,0,0,28,28,4,1,Red,Red.jpg,Turquiose,Turquiose.jpg,,
,,,,,,,,,,,,,,,,,,-2,,,,,,,,,,,,,,,,,,,,,,,,,,,,,,609190b7869cb8cba8c18c04,001,2021-12-05_23h16.07.849,jm_natural_scene_simialrity_2-12-2021,2021.2.3,Win32,59.88382538,609190b7869cb8cba8c18c04,61ad71e11ddd29ccf7a27d5b,61ad7244cd739902d5c56436,,,-65,-44,1,0,0,response5disk,2.8334,-6,12,1,0,0,rectangle,-6,12,1,0,0,1,-4,"[84,91,153,133,124,149,64,23,43,95]",-6,12,1,0,0,0,29,29,71,1,LightBlue,LightBlue.jpg,Turquiose,Turquiose.jpg,,
,,,,,,,,,,,,,,,,,,-4,,,,,,,,,,,,,,,,,,,,,,,,,,,,,,609190b7869cb8cba8c18c04,001,2021-12-05_23h16.07.849,jm_natural_scene_simialrity_2-12-2021,2021.2.3,Win32,59.88382538,609190b7869cb8cba8c18c04,61ad71e11ddd29ccf7a27d5b,61ad7244cd739902d5c56436,,,-52,111,1,0,0,response7disk,0.9827,-8,0,1,0,0,rectangle,-8,0,1,0,0,1,-4,"[84,91,153,133,124,149,64,23,43,95]",-8,0,1,0,0,0,30,30,48,1,Turquiose,Turquiose.jpg,Red,Red.jpg,,
,,,,,,,,,,,,,,,,,,-2,,,,,,,,,,,,,,,,,,,,,,,,,,,,,,609190b7869cb8cba8c18c04,001,2021-12-05_23h16.07.849,jm_natural_scene_simialrity_2-12-2021,2021.2.3,Win32,59.88382538,609190b7869cb8cba8c18c04,61ad71e11ddd29ccf7a27d5b,61ad7244cd739902d5c56436,,,-88,-51,1,0,0,response5disk,1.7859,-22,0,1,0,0,rectangle,-22,0,1,0,0,1,-2,"[84,91,153,133,124,149,64,23,43,95]",-22,0,1,0,0,0,31,31,43,1,Pink,Pink.jpg,Purple,Purple.jpg,,
,,,,,,,,,,,,,,,,,,4,,,,,,,,,,,,,,,,,,,,,,,,,,,,,,609190b7869cb8cba8c18c04,001,2021-12-05_23h16.07.849,jm_natural_scene_simialrity_2-12-2021,2021.2.3,Win32,59.88382538,609190b7869cb8cba8c18c04,61ad71e11ddd29ccf7a27d5b,61ad7244cd739902d5c56436,,,46,106,1,0,0,response1disk,0.8497,-8,0,1,0,0,rectangle,-8,0,1,0,0,1,-1,"[84,91,153,133,124,149,64,23,43,95]",-8,0,1,0,0,0,32,32,42,1,Pink,Pink.jpg,Pink,Pink.jpg,,
,,,,,,,,,,,,,,,,,,1,,,,,,,,,,,,,,,,,,,,,,,,,,,,,,609190b7869cb8cba8c18c04,001,2021-12-05_23h16.07.849,jm_natural_scene_simialrity_2-12-2021,2021.2.3,Win32,59.88382538,609190b7869cb8cba8c18c04,61ad71e11ddd29ccf7a27d5b,61ad7244cd739902d5c56436,,,33,-105,1,0,0,response3disk,2.9668,-6,0,1,0,0,rectangle,-6,0,1,0,0,1,2,"[84,91,153,133,124,149,64,23,43,95]",-6,0,1,0,0,0,33,33,36,1,LightBlue,LightBlue.jpg,DarkBlue,DarkBlue.jpg,,
,,,,,,,,,,,,,,,,,,-3,,,,,,,,,,,,,,,,,,,,,,,,,,,,,,609190b7869cb8cba8c18c04,001,2021-12-05_23h16.07.849,jm_natural_scene_simialrity_2-12-2021,2021.2.3,Win32,59.88382538,609190b7869cb8cba8c18c04,61ad71e11ddd29ccf7a27d5b,61ad7244cd739902d5c56436,,,-85,50,1,0,0,response7disk,1.5038,-16,5,1,0,0,rectangle,-16,5,1,0,0,1,-1,"[84,91,153,133,124,149,64,23,43,95]",-16,5,1,0,0,0,34,34,27,1,DarkGreen,DarkGreen.jpg,DarkBlue,DarkBlue.jpg,,
,,,,,,,,,,,,,,,,,,-2,,,,,,,,,,,,,,,,,,,,,,,,,,,,,,609190b7869cb8cba8c18c04,001,2021-12-05_23h16.07.849,jm_natural_scene_simialrity_2-12-2021,2021.2.3,Win32,59.88382538,609190b7869cb8cba8c18c04,61ad71e11ddd29ccf7a27d5b,61ad7244cd739902d5c56436,,,-91,-49,1,0,0,response5disk,1.7723,-4,-9,1,0,0,rectangle,-4,-9,1,0,0,1,-1,"[84,91,153,133,124,149,64,23,43,95]",-4,-9,1,0,0,0,35,35,74,1,Purple,Purple.jpg,Turquiose,Turquiose.jpg,,
,,,,,,,,,,,,,,,,,,-3,,,,,,,,,,,,,,,,,,,,,,,,,,,,,,609190b7869cb8cba8c18c04,001,2021-12-05_23h16.07.849,jm_natural_scene_simialrity_2-12-2021,2021.2.3,Win32,59.88382538,609190b7869cb8cba8c18c04,61ad71e11ddd29ccf7a27d5b,61ad7244cd739902d5c56436,,,-85,49,1,0,0,response7disk,1.2485,6,-3,1,0,0,rectangle,6,-3,1,0,0,1,-4,"[84,91,153,133,124,149,64,23,43,95]",6,-3,1,0,0,0,36,36,26,1,DarkGreen,DarkGreen.jpg,LightBlue,LightBlue.jpg,,
,,,,,,,,,,,,,,,,,,2,,,,,,,,,,,,,,,,,,,,,,,,,,,,,,609190b7869cb8cba8c18c04,001,2021-12-05_23h16.07.849,jm_natural_scene_simialrity_2-12-2021,2021.2.3,Win32,59.88382538,609190b7869cb8cba8c18c04,61ad71e11ddd29ccf7a27d5b,61ad7244cd739902d5c56436,,,99,-49,1,0,0,response3disk,2.1735,6,6,1,0,0,rectangle,6,6,1,0,0,1,-4,"[84,91,153,133,124,149,64,23,43,95]",6,6,1,0,0,0,37,37,58,1,Pink,Pink.jpg,Yellow,Yellow.jpg,,
,,,,,,,,,,,,,,,,,,-4,,,,,,,,,,,,,,,,,,,,,,,,,,,,,,609190b7869cb8cba8c18c04,001,2021-12-05_23h16.07.849,jm_natural_scene_simialrity_2-12-2021,2021.2.3,Win32,59.88382538,609190b7869cb8cba8c18c04,61ad71e11ddd29ccf7a27d5b,61ad7244cd739902d5c56436,,,-45,87,1,0,0,response7disk,1.1166,3,-15,1,0,0,rectangle,3,-15,1,0,0,1,-3,"[84,91,153,133,124,149,64,23,43,95]",3,-15,1,0,0,0,38,38,6,1,Red,Red.jpg,DarkBlue,DarkBlue.jpg,,
,,,,,,,,,,,,,,,,,,-2,,,,,,,,,,,,,,,,,,,,,,,,,,,,,,609190b7869cb8cba8c18c04,001,2021-12-05_23h16.07.849,jm_natural_scene_simialrity_2-12-2021,2021.2.3,Win32,59.88382538,609190b7869cb8cba8c18c04,61ad71e11ddd29ccf7a27d5b,61ad7244cd739902d5c56436,,,-105,-46,1,0,0,response5disk,1.2676,-18,-2,1,0,0,rectangle,-18,-2,1,0,0,1,3,"[84,91,153,133,124,149,64,23,43,95]",-18,-2,1,0,0,0,39,39,46,1,LightGreen,LightGreen.jpg,Red,Red.jpg,,
,,,,,,,,,,,,,,,,,,-3,,,,,,,,,,,,,,,,,,,,,,,,,,,,,,609190b7869cb8cba8c18c04,001,2021-12-05_23h16.07.849,jm_natural_scene_simialrity_2-12-2021,2021.2.3,Win32,59.88382538,609190b7869cb8cba8c18c04,61ad71e11ddd29ccf7a27d5b,61ad7244cd739902d5c56436,,,-90,61,1,0,0,response7disk,1.852,-19,4,1,0,0,rectangle,-19,4,1,0,0,1,-3,"[84,91,153,133,124,149,64,23,43,95]",-19,4,1,0,0,0,40,40,31,1,Turquiose,Turquiose.jpg,LightBlue,LightBlue.jpg,,
,,,,,,,,,,,,,,,,,,-1,,,,,,,,,,,,,,,,,,,,,,,,,,,,,,609190b7869cb8cba8c18c04,001,2021-12-05_23h16.07.849,jm_natural_scene_simialrity_2-12-2021,2021.2.3,Win32,59.88382538,609190b7869cb8cba8c18c04,61ad71e11ddd29ccf7a27d5b,61ad7244cd739902d5c56436,,,-64,-90,1,0,0,response5disk,2.217,5,-4,1,0,0,rectangle,5,-4,1,0,0,1,3,"[84,91,153,133,124,149,64,23,43,95]",5,-4,1,0,0,0,41,41,66,1,Turquiose,Turquiose.jpg,DarkGreen,DarkGreen.jpg,,
,,,,,,,,,,,,,,,,,,-4,,,,,,,,,,,,,,,,,,,,,,,,,,,,,,609190b7869cb8cba8c18c04,001,2021-12-05_23h16.07.849,jm_natural_scene_simialrity_2-12-2021,2021.2.3,Win32,59.88382538,609190b7869cb8cba8c18c04,61ad71e11ddd29ccf7a27d5b,61ad7244cd739902d5c56436,,,-50,82,1,0,0,response7disk,1.2494,-14,18,1,0,0,rectangle,-37,-111,1,0,0,-1,-1,"[84,91,153,133,124,149,64,23,43,95]",2,5,1,0,0,0,42,42,59,1,Purple,Purple.jpg,Yellow,Yellow.jpg,response5disk_3,rectangle
,,,,,,,,,,,,,,,,,,-3,,,,,,,,,,,,,,,,,,,,,,,,,,,,,,609190b7869cb8cba8c18c04,001,2021-12-05_23h16.07.849,jm_natural_scene_simialrity_2-12-2021,2021.2.3,Win32,59.88382538,609190b7869cb8cba8c18c04,61ad71e11ddd29ccf7a27d5b,61ad7244cd739902d5c56436,,,-93,34,1,0,0,response7disk,3.7347,-17,6,1,0,0,rectangle,-17,6,1,0,0,-1,-4,"[84,91,153,133,124,149,64,23,43,95]",-17,6,1,0,0,0,43,43,5,1,Red,Red.jpg,LightBlue,LightBlue.jpg,,
,,,,,,,,,,,,,,,,,,-4,,,,,,,,,,,,,,,,,,,,,,,,,,,,,,609190b7869cb8cba8c18c04,001,2021-12-05_23h16.07.849,jm_natural_scene_simialrity_2-12-2021,2021.2.3,Win32,59.88382538,609190b7869cb8cba8c18c04,61ad71e11ddd29ccf7a27d5b,61ad7244cd739902d5c56436,,,-64,90,1,0,0,response7disk,2.3007,1,-11,1,0,0,rectangle,1,-11,1,0,0,-1,3,"[84,91,153,133,124,149,64,23,43,95]",1,-11,1,0,0,0,44,44,53,1,LightGreen,LightGreen.jpg,Yellow,Yellow.jpg,,
,,,,,,,,,,,,,,,,,,-2,,,,,,,,,,,,,,,,,,,,,,,,,,,,,,609190b7869cb8cba8c18c04,001,2021-12-05_23h16.07.849,jm_natural_scene_simialrity_2-12-2021,2021.2.3,Win32,59.88382538,609190b7869cb8cba8c18c04,61ad71e11ddd29ccf7a27d5b,61ad7244cd739902d5c56436,,,-115,-72,1,0,0,response5disk,1.8031,5,7,1,0,0,rectangle,5,7,1,0,0,-1,2,"[84,91,153,133,124,149,64,23,43,95]",5,7,1,0,0,0,45,45,34,1,Turquiose,Turquiose.jpg,Purple,Purple.jpg,,
,,,,,,,,,,,,,,,,,,2,,,,,,,,,,,,,,,,,,,,,,,,,,,,,,609190b7869cb8cba8c18c04,001,2021-12-05_23h16.07.849,jm_natural_scene_simialrity_2-12-2021,2021.2.3,Win32,59.88382538,609190b7869cb8cba8c18c04,61ad71e11ddd29ccf7a27d5b,61ad7244cd739902d5c56436,,,69,-47,1,0,0,response3disk,3.1867,14,8,1,0,0,rectangle,14,8,1,0,0,-1,-2,"[84,91,153,133,124,149,64,23,43,95]",14,8,1,0,0,0,46,46,45,1,Yellow,Yellow.jpg,Red,Red.jpg,,
,,,,,,,,,,,,,,,,,,2,,,,,,,,,,,,,,,,,,,,,,,,,,,,,,609190b7869cb8cba8c18c04,001,2021-12-05_23h16.07.849,jm_natural_scene_simialrity_2-12-2021,2021.2.3,Win32,59.88382538,609190b7869cb8cba8c18c04,61ad71e11ddd29ccf7a27d5b,61ad7244cd739902d5c56436,,,107,-42,1,0,0,response3disk,1.1998,14,6,1,0,0,rectangle,14,6,1,0,0,-1,-2,"[84,91,153,133,124,149,64,23,43,95]",14,6,1,0,0,0,47,47,1,1,Red,Red.jpg,Yellow,Yellow.jpg,,
,,,,,,,,,,,,,,,,,,-4,,,,,,,,,,,,,,,,,,,,,,,,,,,,,,609190b7869cb8cba8c18c04,001,2021-12-05_23h16.07.849,jm_natural_scene_simialrity_2-12-2021,2021.2.3,Win32,59.88382538,609190b7869cb8cba8c18c04,61ad71e11ddd29ccf7a27d5b,61ad7244cd739902d5c56436,,,-91,111,1,0,0,response7disk,1.6834,-16,4,1,0,0,rectangle,-16,4,1,0,0,-1,-3,"[84,91,153,133,124,149,64,23,43,95]",-16,4,1,0,0,0,48,48,54,1,DarkGreen,DarkGreen.jpg,Yellow,Yellow.jpg,,
,,,,,,,,,,,,,,,,,,4,,,,,,,,,,,,,,,,,,,,,,,,,,,,,,609190b7869cb8cba8c18c04,001,2021-12-05_23h16.07.849,jm_natural_scene_simialrity_2-12-2021,2021.2.3,Win32,59.88382538,609190b7869cb8cba8c18c04,61ad71e11ddd29ccf7a27d5b,61ad7244cd739902d5c56436,,,50,111,1,0,0,response1disk,0.901,5,18,1,0,0,rectangle,5,18,1,0,0,-1,3,"[84,91,153,133,124,149,64,23,43,95]",5,18,1,0,0,0,49,49,9,1,Yellow,Yellow.jpg,Yellow,Yellow.jpg,,
,,,,,,,,,,,,,,,,,,4,,,,,,,,,,,,,,,,,,,,,,,,,,,,,,609190b7869cb8cba8c18c04,001,2021-12-05_23h16.07.849,jm_natural_scene_simialrity_2-12-2021,2021.2.3,Win32,59.88382538,609190b7869cb8cba8c18c04,61ad71e11ddd29ccf7a27d5b,61ad7244cd739902d5c56436,,,37,103,1,0,0,response1disk,0.9179,-3,1,1,0,0,rectangle,-3,1,1,0,0,-1,-1,"[84,91,153,133,124,149,64,23,43,95]",-3,1,1,0,0,0,50,50,30,1,Turquiose,Turquiose.jpg,Turquiose,Turquiose.jpg,,
,,,,,,,,,,,,,,,,,,-4,,,,,,,,,,,,,,,,,,,,,,,,,,,,,,609190b7869cb8cba8c18c04,001,2021-12-05_23h16.07.849,jm_natural_scene_simialrity_2-12-2021,2021.2.3,Win32,59.88382538,609190b7869cb8cba8c18c04,61ad71e11ddd29ccf7a27d5b,61ad7244cd739902d5c56436,,,-42,123,1,0,0,response7disk,1.1844,-2,17,1,0,0,rectangle,-2,17,1,0,0,-1,-1,"[84,91,153,133,124,149,64,23,43,95]",-2,17,1,0,0,0,51,51,14,1,Yellow,Yellow.jpg,DarkBlue,DarkBlue.jpg,,
,,,,,,,,,,,,,,,,,,4,,,,,,,,,,,,,,,,,,,,,,,,,,,,,,609190b7869cb8cba8c18c04,001,2021-12-05_23h16.07.849,jm_natural_scene_simialrity_2-12-2021,2021.2.3,Win32,59.88382538,609190b7869cb8cba8c18c04,61ad71e11ddd29ccf7a27d5b,61ad7244cd739902d5c56436,,,43,116,1,0,0,response1disk,0.9166,3,2,1,0,0,rectangle,3,2,1,0,0,-1,-1,"[84,91,153,133,124,149,64,23,43,95]",3,2,1,0,0,0,52,52,17,1,LightGreen,LightGreen.jpg,LightGreen,LightGreen.jpg,,
,,,,,,,,,,,,,,,,,,-4,,,,,,,,,,,,,,,,,,,,,,,,,,,,,,609190b7869cb8cba8c18c04,001,2021-12-05_23h16.07.849,jm_natural_scene_simialrity_2-12-2021,2021.2.3,Win32,59.88382538,609190b7869cb8cba8c18c04,61ad71e11ddd29ccf7a27d5b,61ad7244cd739902d5c56436,,,-63,105,1,0,0,response7disk,1.8833,3,0,1,0,0,rectangle,3,0,1,0,0,-1,-3,"[84,91,153,133,124,149,64,23,43,95]",3,0,1,0,0,0,53,53,11,1,Yellow,Yellow.jpg,DarkGreen,DarkGreen.jpg,,
,,,,,,,,,,,,,,,,,,2,,,,,,,,,,,,,,,,,,,,,,,,,,,,,,609190b7869cb8cba8c18c04,001,2021-12-05_23h16.07.849,jm_natural_scene_simialrity_2-12-2021,2021.2.3,Win32,59.88382538,609190b7869cb8cba8c18c04,61ad71e11ddd29ccf7a27d5b,61ad7244cd739902d5c56436,,,82,-48,1,0,0,response3disk,1.6844,7,-2,1,0,0,rectangle,7,-2,1,0,0,-1,-2,"[84,91,153,133,124,149,64,23,43,95]",7,-2,1,0,0,0,54,54,32,1,Turquiose,Turquiose.jpg,DarkBlue,DarkBlue.jpg,,
,,,,,,,,,,,,,,,,,,-3,,,,,,,,,,,,,,,,,,,,,,,,,,,,,,609190b7869cb8cba8c18c04,001,2021-12-05_23h16.07.849,jm_natural_scene_simialrity_2-12-2021,2021.2.3,Win32,59.88382538,609190b7869cb8cba8c18c04,61ad71e11ddd29ccf7a27d5b,61ad7244cd739902d5c56436,,,-89,48,1,0,0,response7disk,1.4162,-8,-7,1,0,0,rectangle,-8,-7,1,0,0,-1,2,"[84,91,153,133,124,149,64,23,43,95]",-8,-7,1,0,0,0,55,55,37,1,LightBlue,LightBlue.jpg,Pink,Pink.jpg,,
,,,,,,,,,,,,,,,,,,3,,,,,,,,,,,,,,,,,,,,,,,,,,,,,,609190b7869cb8cba8c18c04,001,2021-12-05_23h16.07.849,jm_natural_scene_simialrity_2-12-2021,2021.2.3,Win32,59.88382538,609190b7869cb8cba8c18c04,61ad71e11ddd29ccf7a27d5b,61ad7244cd739902d5c56436,,,103,69,1,0,0,response1disk,2.434,-6,-3,1,0,0,rectangle,-6,-3,1,0,0,-1,-1,"[84,91,153,133,124,149,64,23,43,95]",-6,-3,1,0,0,0,56,56,18,1,LightGreen,LightGreen.jpg,DarkGreen,DarkGreen.jpg,,
,,,,,,,,,,,,,,,,,,3,,,,,,,,,,,,,,,,,,,,,,,,,,,,,,609190b7869cb8cba8c18c04,001,2021-12-05_23h16.07.849,jm_natural_scene_simialrity_2-12-2021,2021.2.3,Win32,59.88382538,609190b7869cb8cba8c18c04,61ad71e11ddd29ccf7a27d5b,61ad7244cd739902d5c56436,,,98,66,1,0,0,response1disk,1.8512,7,15,1,0,0,rectangle,7,15,1,0,0,-1,-3,"[84,91,153,133,124,149,64,23,43,95]",7,15,1,0,0,0,57,57,51,1,Pink,Pink.jpg,Red,Red.jpg,,
,,,,,,,,,,,,,,,,,,-3,,,,,,,,,,,,,,,,,,,,,,,,,,,,,,609190b7869cb8cba8c18c04,001,2021-12-05_23h16.07.849,jm_natural_scene_simialrity_2-12-2021,2021.2.3,Win32,59.88382538,609190b7869cb8cba8c18c04,61ad71e11ddd29ccf7a27d5b,61ad7244cd739902d5c56436,,,-90,55,1,0,0,response7disk,2.1995,-13,-1,1,0,0,rectangle,-13,-1,1,0,0,-1,3,"[84,91,153,133,124,149,64,23,43,95]",-13,-1,1,0,0,0,58,58,47,1,DarkGreen,DarkGreen.jpg,Red,Red.jpg,,
,,,,,,,,,,,,,,,,,,-2,,,,,,,,,,,,,,,,,,,,,,,,,,,,,,609190b7869cb8cba8c18c04,001,2021-12-05_23h16.07.849,jm_natural_scene_simialrity_2-12-2021,2021.2.3,Win32,59.88382538,609190b7869cb8cba8c18c04,61ad71e11ddd29ccf7a27d5b,61ad7244cd739902d5c56436,,,-99,-37,1,0,0,response5disk,2.7171,4,-8,1,0,0,rectangle,4,-8,1,0,0,-1,-4,"[84,91,153,133,124,149,64,23,43,95]",4,-8,1,0,0,0,59,59,16,1,Yellow,Yellow.jpg,Purple,Purple.jpg,,
,,,,,,,,,,,,,,,,,,-4,,,,,,,,,,,,,,,,,,,,,,,,,,,,,,609190b7869cb8cba8c18c04,001,2021-12-05_23h16.07.849,jm_natural_scene_simialrity_2-12-2021,2021.2.3,Win32,59.88382538,609190b7869cb8cba8c18c04,61ad71e11ddd29ccf7a27d5b,61ad7244cd739902d5c56436,,,-64,100,1,0,0,response7disk,2.2857,2,15,1,0,0,rectangle,2,15,1,0,0,-1,-3,"[84,91,153,133,124,149,64,23,43,95]",2,15,1,0,0,0,60,60,22,1,LightGreen,LightGreen.jpg,Pink,Pink.jpg,,
,,,,,,,,,,,,,,,,,,-1,,,,,,,,,,,,,,,,,,,,,,,,,,,,,,609190b7869cb8cba8c18c04,001,2021-12-05_23h16.07.849,jm_natural_scene_simialrity_2-12-2021,2021.2.3,Win32,59.88382538,609190b7869cb8cba8c18c04,61ad71e11ddd29ccf7a27d5b,61ad7244cd739902d5c56436,,,-87,-136,1,0,0,response5disk,1.5668,-22,-2,1,0,0,rectangle,-22,-2,1,0,0,-1,2,"[84,91,153,133,124,149,64,23,43,95]",-22,-2,1,0,0,0,61,61,38,1,LightBlue,LightBlue.jpg,Purple,Purple.jpg,,
,,,,,,,,,,,,,,,,,,-4,,,,,,,,,,,,,,,,,,,,,,,,,,,,,,609190b7869cb8cba8c18c04,001,2021-12-05_23h16.07.849,jm_natural_scene_simialrity_2-12-2021,2021.2.3,Win32,59.88382538,609190b7869cb8cba8c18c04,61ad71e11ddd29ccf7a27d5b,61ad7244cd739902d5c56436,,,-61,94,1,0,0,response7disk,1.3159,-2,9,1,0,0,rectangle,-2,9,1,0,0,-1,-2,"[84,91,153,133,124,149,64,23,43,95]",-2,9,1,0,0,0,62,62,78,1,Pink,Pink.jpg,DarkBlue,DarkBlue.jpg,,
,,,,,,,,,,,,,,,,,,-1,,,,,,,,,,,,,,,,,,,,,,,,,,,,,,609190b7869cb8cba8c18c04,001,2021-12-05_23h16.07.849,jm_natural_scene_simialrity_2-12-2021,2021.2.3,Win32,59.88382538,609190b7869cb8cba8c18c04,61ad71e11ddd29ccf7a27d5b,61ad7244cd739902d5c56436,,,-58,-82,1,0,0,response5disk,1.4492,-15,-4,1,0,0,rectangle,33,-109,1,0,0,1,1,"[84,91,153,133,124,149,64,23,43,95]",3,16,1,0,0,0,63,63,63,1,DarkBlue,DarkBlue.jpg,LightGreen,LightGreen.jpg,response3disk_3,rectangle
,,,,,,,,,,,,,,,,,,-2,,,,,,,,,,,,,,,,,,,,,,,,,,,,,,609190b7869cb8cba8c18c04,001,2021-12-05_23h16.07.849,jm_natural_scene_simialrity_2-12-2021,2021.2.3,Win32,59.88382538,609190b7869cb8cba8c18c04,61ad71e11ddd29ccf7a27d5b,61ad7244cd739902d5c56436,,,-99,-30,1,0,0,response5disk,3.1334,-21,1,1,0,0,rectangle,-21,1,1,0,0,1,-1,"[84,91,153,133,124,149,64,23,43,95]",-21,1,1,0,0,0,64,64,19,1,LightGreen,LightGreen.jpg,Turquiose,Turquiose.jpg,,
,,,,,,,,,,,,,,,,,,-4,,,,,,,,,,,,,,,,,,,,,,,,,,,,,,609190b7869cb8cba8c18c04,001,2021-12-05_23h16.07.849,jm_natural_scene_simialrity_2-12-2021,2021.2.3,Win32,59.88382538,609190b7869cb8cba8c18c04,61ad71e11ddd29ccf7a27d5b,61ad7244cd739902d5c56436,,,-57,84,1,0,0,response7disk,1.314,-13,3,1,0,0,rectangle,-13,3,1,0,0,1,1,"[84,91,153,133,124,149,64,23,43,95]",-13,3,1,0,0,0,65,65,40,1,DarkBlue,DarkBlue.jpg,Pink,Pink.jpg,,
,,,,,,,,,,,,,,,,,,-4,,,,,,,,,,,,,,,,,,,,,,,,,,,,,,609190b7869cb8cba8c18c04,001,2021-12-05_23h16.07.849,jm_natural_scene_simialrity_2-12-2021,2021.2.3,Win32,59.88382538,609190b7869cb8cba8c18c04,61ad71e11ddd29ccf7a27d5b,61ad7244cd739902d5c56436,,,-50,94,1,0,0,response7disk,0.8513,-9,15,1,0,0,rectangle,-9,15,1,0,0,1,-4,"[84,91,153,133,124,149,64,23,43,95]",-9,15,1,0,0,0,66,66,3,1,Red,Red.jpg,DarkGreen,DarkGreen.jpg,,
,,,,,,,,,,,,,,,,,,4,,,,,,,,,,,,,,,,,,,,,,,,,,,,,,609190b7869cb8cba8c18c04,001,2021-12-05_23h16.07.849,jm_natural_scene_simialrity_2-12-2021,2021.2.3,Win32,59.88382538,609190b7869cb8cba8c18c04,61ad71e11ddd29ccf7a27d5b,61ad7244cd739902d5c56436,,,38,101,1,0,0,response1disk,0.8397,6,12,1,0,0,rectangle,6,12,1,0,0,1,2,"[84,91,153,133,124,149,64,23,43,95]",6,12,1,0,0,0,67,67,39,1,DarkBlue,DarkBlue.jpg,DarkBlue,DarkBlue.jpg,,
,,,,,,,,,,,,,,,,,,-4,,,,,,,,,,,,,,,,,,,,,,,,,,,,,,609190b7869cb8cba8c18c04,001,2021-12-05_23h16.07.849,jm_natural_scene_simialrity_2-12-2021,2021.2.3,Win32,59.88382538,609190b7869cb8cba8c18c04,61ad71e11ddd29ccf7a27d5b,61ad7244cd739902d5c56436,,,-61,125,1,0,0,response7disk,1.8685,6,-14,1,0,0,rectangle,6,-14,1,0,0,1,3,"[84,91,153,133,124,149,64,23,43,95]",6,-14,1,0,0,0,68,68,73,1,Pink,Pink.jpg,Turquiose,Turquiose.jpg,,
,,,,,,,,,,,,,,,,,,-4,,,,,,,,,,,,,,,,,,,,,,,,,,,,,,609190b7869cb8cba8c18c04,001,2021-12-05_23h16.07.849,jm_natural_scene_simialrity_2-12-2021,2021.2.3,Win32,59.88382538,609190b7869cb8cba8c18c04,61ad71e11ddd29ccf7a27d5b,61ad7244cd739902d5c56436,,,-51,83,1,0,0,response7disk,1.0655,-15,9,1,0,0,rectangle,-15,9,1,0,0,1,-2,"[84,91,153,133,124,149,64,23,43,95]",-15,9,1,0,0,0,69,69,12,1,Yellow,Yellow.jpg,Turquiose,Turquiose.jpg,,
,,,,,,,,,,,,,,,,,,-2,,,,,,,,,,,,,,,,,,,,,,,,,,,,,,609190b7869cb8cba8c18c04,001,2021-12-05_23h16.07.849,jm_natural_scene_simialrity_2-12-2021,2021.2.3,Win32,59.88382538,609190b7869cb8cba8c18c04,61ad71e11ddd29ccf7a27d5b,61ad7244cd739902d5c56436,,,-113,-39,1,0,0,response5disk,3.0518,4,0,1,0,0,rectangle,4,0,1,0,0,1,2,"[84,91,153,133,124,149,64,23,43,95]",4,0,1,0,0,0,70,70,29,1,DarkGreen,DarkGreen.jpg,Purple,Purple.jpg,,
,,,,,,,,,,,,,,,,,,-1,,,,,,,,,,,,,,,,,,,,,,,,,,,,,,609190b7869cb8cba8c18c04,001,2021-12-05_23h16.07.849,jm_natural_scene_simialrity_2-12-2021,2021.2.3,Win32,59.88382538,609190b7869cb8cba8c18c04,61ad71e11ddd29ccf7a27d5b,61ad7244cd739902d5c56436,,,-57,-100,1,0,0,response5disk,1.3845,-20,-11,1,0,0,rectangle,-20,-11,1,0,0,1,2,"[84,91,153,133,124,149,64,23,43,95]",-20,-11,1,0,0,0,71,71,72,1,DarkBlue,DarkBlue.jpg,Turquiose,Turquiose.jpg,,
,,,,,,,,,,,,,,,,,,-1,,,,,,,,,,,,,,,,,,,,,,,,,,,,,,609190b7869cb8cba8c18c04,001,2021-12-05_23h16.07.849,jm_natural_scene_simialrity_2-12-2021,2021.2.3,Win32,59.88382538,609190b7869cb8cba8c18c04,61ad71e11ddd29ccf7a27d5b,61ad7244cd739902d5c56436,,,-59,-89,1,0,0,response5disk,2.1494,6,1,1,0,0,rectangle,6,1,1,0,0,1,-1,"[84,91,153,133,124,149,64,23,43,95]",6,1,1,0,0,0,72,72,41,1,DarkBlue,DarkBlue.jpg,Purple,Purple.jpg,,
,,,,,,,,,,,,,,,,,,-2,,,,,,,,,,,,,,,,,,,,,,,,,,,,,,609190b7869cb8cba8c18c04,001,2021-12-05_23h16.07.849,jm_natural_scene_simialrity_2-12-2021,2021.2.3,Win32,59.88382538,609190b7869cb8cba8c18c04,61ad71e11ddd29ccf7a27d5b,61ad7244cd739902d5c56436,,,-105,-39,1,0,0,response5disk,2.2499,14,-13,1,0,0,rectangle,14,-13,1,0,0,1,2,"[84,91,153,133,124,149,64,23,43,95]",14,-13,1,0,0,0,73,73,25,1,DarkGreen,DarkGreen.jpg,Turquiose,Turquiose.jpg,,
,,,,,,,,,,,,,,,,,,-4,,,,,,,,,,,,,,,,,,,,,,,,,,,,,,609190b7869cb8cba8c18c04,001,2021-12-05_23h16.07.849,jm_natural_scene_simialrity_2-12-2021,2021.2.3,Win32,59.88382538,609190b7869cb8cba8c18c04,61ad71e11ddd29ccf7a27d5b,61ad7244cd739902d5c56436,,,-64,92,1,0,0,response7disk,2.3495,-13,-10,1,0,0,rectangle,-13,-10,1,0,0,1,-3,"[84,91,153,133,124,149,64,23,43,95]",-13,-10,1,0,0,0,74,74,50,1,DarkBlue,DarkBlue.jpg,Red,Red.jpg,,
,,,,,,,,,,,,,,,,,,1,,,,,,,,,,,,,,,,,,,,,,,,,,,,,,609190b7869cb8cba8c18c04,001,2021-12-05_23h16.07.849,jm_natural_scene_simialrity_2-12-2021,2021.2.3,Win32,59.88382538,609190b7869cb8cba8c18c04,61ad71e11ddd29ccf7a27d5b,61ad7244cd739902d5c56436,,,54,-109,1,0,0,response3disk,2.0361,6,-19,1,0,0,rectangle,6,-19,1,0,0,1,-3,"[84,91,153,133,124,149,64,23,43,95]",6,-19,1,0,0,0,75,75,80,1,Purple,Purple.jpg,Pink,Pink.jpg,,
,,,,,,,,,,,,,,,,,,1,,,,,,,,,,,,,,,,,,,,,,,,,,,,,,609190b7869cb8cba8c18c04,001,2021-12-05_23h16.07.849,jm_natural_scene_simialrity_2-12-2021,2021.2.3,Win32,59.88382538,609190b7869cb8cba8c18c04,61ad71e11ddd29ccf7a27d5b,61ad7244cd739902d5c56436,,,38,-96,1,0,0,response3disk,0.8337,8,-13,1,0,0,rectangle,8,-13,1,0,0,1,-4,"[84,91,153,133,124,149,64,23,43,95]",8,-13,1,0,0,0,76,76,8,1,Red,Red.jpg,Purple,Purple.jpg,,
,,,,,,,,,,,,,,,,,,4,,,,,,,,,,,,,,,,,,,,,,,,,,,,,,609190b7869cb8cba8c18c04,001,2021-12-05_23h16.07.849,jm_natural_scene_simialrity_2-12-2021,2021.2.3,Win32,59.88382538,609190b7869cb8cba8c18c04,61ad71e11ddd29ccf7a27d5b,61ad7244cd739902d5c56436,,,48,96,1,0,0,response1disk,0.8999,-9,7,1,0,0,rectangle,-9,7,1,0,0,1,-1,"[84,91,153,133,124,149,64,23,43,95]",-9,7,1,0,0,0,77,77,44,1,Purple,Purple.jpg,Purple,Purple.jpg,,
,,,,,,,,,,,,,,,,,,-4,,,,,,,,,,,,,,,,,,,,,,,,,,,,,,609190b7869cb8cba8c18c04,001,2021-12-05_23h16.07.849,jm_natural_scene_simialrity_2-12-2021,2021.2.3,Win32,59.88382538,609190b7869cb8cba8c18c04,61ad71e11ddd29ccf7a27d5b,61ad7244cd739902d5c56436,,,-62,124,1,0,0,response7disk,1.8343,-2,10,1,0,0,rectangle,-2,10,1,0,0,1,-2,"[84,91,153,133,124,149,64,23,43,95]",-2,10,1,0,0,0,78,78,33,1,Turquiose,Turquiose.jpg,Pink,Pink.jpg,,
,,,,,,,,,,,,,,,,,,-4,,,,,,,,,,,,,,,,,,,,,,,,,,,,,,609190b7869cb8cba8c18c04,001,2021-12-05_23h16.07.849,jm_natural_scene_simialrity_2-12-2021,2021.2.3,Win32,59.88382538,609190b7869cb8cba8c18c04,61ad71e11ddd29ccf7a27d5b,61ad7244cd739902d5c56436,,,-39,89,1,0,0,response7disk,1.0817,-2,3,1,0,0,rectangle,-2,3,1,0,0,1,-1,"[84,91,153,133,124,149,64,23,43,95]",-2,3,1,0,0,0,79,79,49,1,LightBlue,LightBlue.jpg,Red,Red.jpg,,
,,,,,,,,,,,,,,,,,,-4,,,,,,,,,,,,,,,,,,,,,,,,,,,,,,609190b7869cb8cba8c18c04,001,2021-12-05_23h16.07.849,jm_natural_scene_simialrity_2-12-2021,2021.2.3,Win32,59.88382538,609190b7869cb8cba8c18c04,61ad71e11ddd29ccf7a27d5b,61ad7244cd739902d5c56436,,,-48,90,1,0,0,response7disk,0.8023,-13,8,1,0,0,rectangle,-13,8,1,0,0,1,-3,"[84,91,153,133,124,149,64,23,43,95]",-13,8,1,0,0,0,80,80,10,1,Yellow,Yellow.jpg,LightGreen,LightGreen.jpg,,
,,,,,,,,,,,,,,,,,,-2,,,,,,,,,,,,,,,,,,,,,,,,,,,,,,609190b7869cb8cba8c18c04,001,2021-12-05_23h16.07.849,jm_natural_scene_simialrity_2-12-2021,2021.2.3,Win32,59.88382538,609190b7869cb8cba8c18c04,61ad71e11ddd29ccf7a27d5b,61ad7244cd739902d5c56436,,,-88,-49,1,0,0,response5disk,1.2665,-6,2,1,0,0,rectangle,-6,2,1,0,0,1,-1,"[84,91,153,133,124,149,64,23,43,95]",-6,2,1,0,0,1,0,81,20,1,LightGreen,LightGreen.jpg,LightBlue,LightBlue.jpg,,
,,,,,,,,,,,,,,,,,,4,,,,,,,,,,,,,,,,,,,,,,,,,,,,,,609190b7869cb8cba8c18c04,001,2021-12-05_23h16.07.849,jm_natural_scene_simialrity_2-12-2021,2021.2.3,Win32,59.88382538,609190b7869cb8cba8c18c04,61ad71e11ddd29ccf7a27d5b,61ad7244cd739902d5c56436,,,48,138,1,0,0,response1disk,0.8354,1,0,1,0,0,rectangle,1,0,1,0,0,1,-3,"[84,91,153,133,124,149,64,23,43,95]",1,0,1,0,0,1,1,82,9,1,Yellow,Yellow.jpg,Yellow,Yellow.jpg,,
,,,,,,,,,,,,,,,,,,1,,,,,,,,,,,,,,,,,,,,,,,,,,,,,,609190b7869cb8cba8c18c04,001,2021-12-05_23h16.07.849,jm_natural_scene_simialrity_2-12-2021,2021.2.3,Win32,59.88382538,609190b7869cb8cba8c18c04,61ad71e11ddd29ccf7a27d5b,61ad7244cd739902d5c56436,,,38,-86,1,0,0,response3disk,2.1174,-1,6,1,0,0,rectangle,101,-49,1,0,0,2,2,"[84,91,153,133,124,149,64,23,43,95]",4,6,1,0,0,1,2,83,80,1,Purple,Purple.jpg,Pink,Pink.jpg,response3disk_3,rectangle
,,,,,,,,,,,,,,,,,,3,,,,,,,,,,,,,,,,,,,,,,,,,,,,,,609190b7869cb8cba8c18c04,001,2021-12-05_23h16.07.849,jm_natural_scene_simialrity_2-12-2021,2021.2.3,Win32,59.88382538,609190b7869cb8cba8c18c04,61ad71e11ddd29ccf7a27d5b,61ad7244cd739902d5c56436,,,73,45,1,0,0,response1disk,1.4493,3,2,1,0,0,rectangle,3,2,1,0,0,2,-4,"[84,91,153,133,124,149,64,23,43,95]",3,2,1,0,0,1,3,84,60,1,DarkGreen,DarkGreen.jpg,LightGreen,LightGreen.jpg,,
,,,,,,,,,,,,,,,,,,3,,,,,,,,,,,,,,,,,,,,,,,,,,,,,,609190b7869cb8cba8c18c04,001,2021-12-05_23h16.07.849,jm_natural_scene_simialrity_2-12-2021,2021.2.3,Win32,59.88382538,609190b7869cb8cba8c18c04,61ad71e11ddd29ccf7a27d5b,61ad7244cd739902d5c56436,,,100,63,1,0,0,response1disk,0.768,-6,9,1,0,0,rectangle,-6,9,1,0,0,2,-4,"[84,91,153,133,124,149,64,23,43,95]",-6,9,1,0,0,1,4,85,18,1,LightGreen,LightGreen.jpg,DarkGreen,DarkGreen.jpg,,
,,,,,,,,,,,,,,,,,,-4,,,,,,,,,,,,,,,,,,,,,,,,,,,,,,609190b7869cb8cba8c18c04,001,2021-12-05_23h16.07.849,jm_natural_scene_simialrity_2-12-2021,2021.2.3,Win32,59.88382538,609190b7869cb8cba8c18c04,61ad71e11ddd29ccf7a27d5b,61ad7244cd739902d5c56436,,,-44,73,1,0,0,response7disk,0.9846,-1,-9,1,0,0,rectangle,-1,-9,1,0,0,2,-2,"[84,91,153,133,124,149,64,23,43,95]",-1,-9,1,0,0,1,5,86,28,1,DarkGreen,DarkGreen.jpg,Pink,Pink.jpg,,
,,,,,,,,,,,,,,,,,,-2,,,,,,,,,,,,,,,,,,,,,,,,,,,,,,609190b7869cb8cba8c18c04,001,2021-12-05_23h16.07.849,jm_natural_scene_simialrity_2-12-2021,2021.2.3,Win32,59.88382538,609190b7869cb8cba8c18c04,61ad71e11ddd29ccf7a27d5b,61ad7244cd739902d5c56436,,,-85,-51,1,0,0,response5disk,1.2504,0,5,1,0,0,rectangle,0,5,1,0,0,2,-4,"[84,91,153,133,124,149,64,23,43,95]",0,5,1,0,0,1,6,87,71,1,LightBlue,LightBlue.jpg,Turquiose,Turquiose.jpg,,
,,,,,,,,,,,,,,,,,,-1,,,,,,,,,,,,,,,,,,,,,,,,,,,,,,609190b7869cb8cba8c18c04,001,2021-12-05_23h16.07.849,jm_natural_scene_simialrity_2-12-2021,2021.2.3,Win32,59.88382538,609190b7869cb8cba8c18c04,61ad71e11ddd29ccf7a27d5b,61ad7244cd739902d5c56436,,,-44,-71,1,0,0,response5disk,1.5489,-10,-20,1,0,0,rectangle,-10,-20,1,0,0,2,-4,"[84,91,153,133,124,149,64,23,43,95]",-10,-20,1,0,0,1,7,88,34,1,Turquiose,Turquiose.jpg,Purple,Purple.jpg,,
,,,,,,,,,,,,,,,,,,-4,,,,,,,,,,,,,,,,,,,,,,,,,,,,,,609190b7869cb8cba8c18c04,001,2021-12-05_23h16.07.849,jm_natural_scene_simialrity_2-12-2021,2021.2.3,Win32,59.88382538,609190b7869cb8cba8c18c04,61ad71e11ddd29ccf7a27d5b,61ad7244cd739902d5c56436,,,-36,112,1,0,0,response7disk,0.9514,-7,13,1,0,0,rectangle,-7,13,1,0,0,2,2,"[84,91,153,133,124,149,64,23,43,95]",-7,13,1,0,0,1,8,89,2,1,Red,Red.jpg,LightGreen,LightGreen.jpg,,
,,,,,,,,,,,,,,,,,,-4,,,,,,,,,,,,,,,,,,,,,,,,,,,,,,609190b7869cb8cba8c18c04,001,2021-12-05_23h16.07.849,jm_natural_scene_simialrity_2-12-2021,2021.2.3,Win32,59.88382538,609190b7869cb8cba8c18c04,61ad71e11ddd29ccf7a27d5b,61ad7244cd739902d5c56436,,,-55,101,1,0,0,response7disk,1.3845,-13,11,1,0,0,rectangle,89,-46,1,0,0,2,2,"[84,91,153,133,124,149,64,23,43,95]",16,-10,1,0,0,1,9,90,22,1,LightGreen,LightGreen.jpg,Pink,Pink.jpg,response3disk_3,rectangle
,,,,,,,,,,,,,,,,,,-4,,,,,,,,,,,,,,,,,,,,,,,,,,,,,,609190b7869cb8cba8c18c04,001,2021-12-05_23h16.07.849,jm_natural_scene_simialrity_2-12-2021,2021.2.3,Win32,59.88382538,609190b7869cb8cba8c18c04,61ad71e11ddd29ccf7a27d5b,61ad7244cd739902d5c56436,,,-55,98,1,0,0,response7disk,1.3509,-24,8,1,0,0,rectangle,-24,8,1,0,0,2,1,"[84,91,153,133,124,149,64,23,43,95]",-24,8,1,0,0,1,10,91,29,1,DarkGreen,DarkGreen.jpg,Purple,Purple.jpg,,
,,,,,,,,,,,,,,,,,,-2,,,,,,,,,,,,,,,,,,,,,,,,,,,,,,609190b7869cb8cba8c18c04,001,2021-12-05_23h16.07.849,jm_natural_scene_simialrity_2-12-2021,2021.2.3,Win32,59.88382538,609190b7869cb8cba8c18c04,61ad71e11ddd29ccf7a27d5b,61ad7244cd739902d5c56436,,,-93,-59,1,0,0,response5disk,2.0002,3,5,1,0,0,rectangle,3,5,1,0,0,2,-4,"[84,91,153,133,124,149,64,23,43,95]",3,5,1,0,0,1,11,92,66,1,Turquiose,Turquiose.jpg,DarkGreen,DarkGreen.jpg,,
,,,,,,,,,,,,,,,,,,-4,,,,,,,,,,,,,,,,,,,,,,,,,,,,,,609190b7869cb8cba8c18c04,001,2021-12-05_23h16.07.849,jm_natural_scene_simialrity_2-12-2021,2021.2.3,Win32,59.88382538,609190b7869cb8cba8c18c04,61ad71e11ddd29ccf7a27d5b,61ad7244cd739902d5c56436,,,-39,88,1,0,0,response7disk,1.0003,5,5,1,0,0,rectangle,5,5,1,0,0,2,-4,"[84,91,153,133,124,149,64,23,43,95]",5,5,1,0,0,1,12,93,6,1,Red,Red.jpg,DarkBlue,DarkBlue.jpg,,
,,,,,,,,,,,,,,,,,,-1,,,,,,,,,,,,,,,,,,,,,,,,,,,,,,609190b7869cb8cba8c18c04,001,2021-12-05_23h16.07.849,jm_natural_scene_simialrity_2-12-2021,2021.2.3,Win32,59.88382538,609190b7869cb8cba8c18c04,61ad71e11ddd29ccf7a27d5b,61ad7244cd739902d5c56436,,,-39,-91,1,0,0,response5disk,2.4003,-13,-11,1,0,0,rectangle,-43,96,1,0,0,-4,-4,"[84,91,153,133,124,149,64,23,43,95]",4,4,1,0,0,1,13,94,21,1,LightGreen,LightGreen.jpg,DarkBlue,DarkBlue.jpg,response7disk_3,rectangle
,,,,,,,,,,,,,,,,,,-3,,,,,,,,,,,,,,,,,,,,,,,,,,,,,,609190b7869cb8cba8c18c04,001,2021-12-05_23h16.07.849,jm_natural_scene_simialrity_2-12-2021,2021.2.3,Win32,59.88382538,609190b7869cb8cba8c18c04,61ad71e11ddd29ccf7a27d5b,61ad7244cd739902d5c56436,,,-90,43,1,0,0,response7disk,1.3827,-22,3,1,0,0,rectangle,-22,3,1,0,0,-4,1,"[84,91,153,133,124,149,64,23,43,95]",-22,3,1,0,0,1,14,95,63,1,DarkBlue,DarkBlue.jpg,LightGreen,LightGreen.jpg,,
,,,,,,,,,,,,,,,,,,2,,,,,,,,,,,,,,,,,,,,,,,,,,,,,,609190b7869cb8cba8c18c04,001,2021-12-05_23h16.07.849,jm_natural_scene_simialrity_2-12-2021,2021.2.3,Win32,59.88382538,609190b7869cb8cba8c18c04,61ad71e11ddd29ccf7a27d5b,61ad7244cd739902d5c56436,,,108,-38,1,0,0,response3disk,1.5823,8,11,1,0,0,rectangle,8,11,1,0,0,-4,1,"[84,91,153,133,124,149,64,23,43,95]",8,11,1,0,0,1,15,96,51,1,Pink,Pink.jpg,Red,Red.jpg,,
,,,,,,,,,,,,,,,,,,2,,,,,,,,,,,,,,,,,,,,,,,,,,,,,,609190b7869cb8cba8c18c04,001,2021-12-05_23h16.07.849,jm_natural_scene_simialrity_2-12-2021,2021.2.3,Win32,59.88382538,609190b7869cb8cba8c18c04,61ad71e11ddd29ccf7a27d5b,61ad7244cd739902d5c56436,,,95,-34,1,0,0,response3disk,2.4657,6,-11,1,0,0,rectangle,6,-11,1,0,0,-4,-2,"[84,91,153,133,124,149,64,23,43,95]",6,-11,1,0,0,1,16,97,58,1,Pink,Pink.jpg,Yellow,Yellow.jpg,,
,,,,,,,,,,,,,,,,,,2,,,,,,,,,,,,,,,,,,,,,,,,,,,,,,609190b7869cb8cba8c18c04,001,2021-12-05_23h16.07.849,jm_natural_scene_simialrity_2-12-2021,2021.2.3,Win32,59.88382538,609190b7869cb8cba8c18c04,61ad71e11ddd29ccf7a27d5b,61ad7244cd739902d5c56436,,,99,-32,1,0,0,response3disk,0.8502,-6,6,1,0,0,rectangle,-6,6,1,0,0,-4,2,"[84,91,153,133,124,149,64,23,43,95]",-6,6,1,0,0,1,17,98,15,1,Yellow,Yellow.jpg,Pink,Pink.jpg,,
,,,,,,,,,,,,,,,,,,-2,,,,,,,,,,,,,,,,,,,,,,,,,,,,,,609190b7869cb8cba8c18c04,001,2021-12-05_23h16.07.849,jm_natural_scene_simialrity_2-12-2021,2021.2.3,Win32,59.88382538,609190b7869cb8cba8c18c04,61ad71e11ddd29ccf7a27d5b,61ad7244cd739902d5c56436,,,-94,-46,1,0,0,response5disk,1.7153,-19,1,1,0,0,rectangle,-19,1,1,0,0,-4,-1,"[84,91,153,133,124,149,64,23,43,95]",-19,1,1,0,0,1,18,99,5,1,Red,Red.jpg,LightBlue,LightBlue.jpg,,
,,,,,,,,,,,,,,,,,,-4,,,,,,,,,,,,,,,,,,,,,,,,,,,,,,609190b7869cb8cba8c18c04,001,2021-12-05_23h16.07.849,jm_natural_scene_simialrity_2-12-2021,2021.2.3,Win32,59.88382538,609190b7869cb8cba8c18c04,61ad71e11ddd29ccf7a27d5b,61ad7244cd739902d5c56436,,,-64,99,1,0,0,response7disk,1.0835,-1,-2,1,0,0,rectangle,-1,-2,1,0,0,-4,3,"[84,91,153,133,124,149,64,23,43,95]",-1,-2,1,0,0,1,19,100,69,1,Pink,Pink.jpg,DarkGreen,DarkGreen.jpg,,
,,,,,,,,,,,,,,,,,,-2,,,,,,,,,,,,,,,,,,,,,,,,,,,,,,609190b7869cb8cba8c18c04,001,2021-12-05_23h16.07.849,jm_natural_scene_simialrity_2-12-2021,2021.2.3,Win32,59.88382538,609190b7869cb8cba8c18c04,61ad71e11ddd29ccf7a27d5b,61ad7244cd739902d5c56436,,,-83,-47,1,0,0,response5disk,1.1331,-14,-6,1,0,0,rectangle,-14,-6,1,0,0,-4,-4,"[84,91,153,133,124,149,64,23,43,95]",-14,-6,1,0,0,1,20,101,72,1,DarkBlue,DarkBlue.jpg,Turquiose,Turquiose.jpg,,
,,,,,,,,,,,,,,,,,,-1,,,,,,,,,,,,,,,,,,,,,,,,,,,,,,609190b7869cb8cba8c18c04,001,2021-12-05_23h16.07.849,jm_natural_scene_simialrity_2-12-2021,2021.2.3,Win32,59.88382538,609190b7869cb8cba8c18c04,61ad71e11ddd29ccf7a27d5b,61ad7244cd739902d5c56436,,,-44,-61,1,0,0,response5disk,1.6006,-16,6,1,0,0,rectangle,-16,6,1,0,0,-4,-1,"[84,91,153,133,124,149,64,23,43,95]",-16,6,1,0,0,1,21,102,67,1,LightBlue,LightBlue.jpg,DarkGreen,DarkGreen.jpg,,
,,,,,,,,,,,,,,,,,,-4,,,,,,,,,,,,,,,,,,,,,,,,,,,,,,609190b7869cb8cba8c18c04,001,2021-12-05_23h16.07.849,jm_natural_scene_simialrity_2-12-2021,2021.2.3,Win32,59.88382538,609190b7869cb8cba8c18c04,61ad71e11ddd29ccf7a27d5b,61ad7244cd739902d5c56436,,,-48,140,1,0,0,response7disk,1.2998,7,-16,1,0,0,rectangle,7,-16,1,0,0,-4,-1,"[84,91,153,133,124,149,64,23,43,95]",7,-16,1,0,0,1,22,103,40,1,DarkBlue,DarkBlue.jpg,Pink,Pink.jpg,,
,,,,,,,,,,,,,,,,,,3,,,,,,,,,,,,,,,,,,,,,,,,,,,,,,609190b7869cb8cba8c18c04,001,2021-12-05_23h16.07.849,jm_natural_scene_simialrity_2-12-2021,2021.2.3,Win32,59.88382538,609190b7869cb8cba8c18c04,61ad71e11ddd29ccf7a27d5b,61ad7244cd739902d5c56436,,,92,41,1,0,0,response1disk,1.1159,7,1,1,0,0,rectangle,7,1,1,0,0,-4,-3,"[84,91,153,133,124,149,64,23,43,95]",7,1,1,0,0,1,23,104,45,1,Yellow,Yellow.jpg,Red,Red.jpg,,
,,,,,,,,,,,,,,,,,,3,,,,,,,,,,,,,,,,,,,,,,,,,,,,,,609190b7869cb8cba8c18c04,001,2021-12-05_23h16.07.849,jm_natural_scene_simialrity_2-12-2021,2021.2.3,Win32,59.88382538,609190b7869cb8cba8c18c04,61ad71e11ddd29ccf7a27d5b,61ad7244cd739902d5c56436,,,100,62,1,0,0,response1disk,1.3169,1,10,1,0,0,rectangle,1,10,1,0,0,-4,-4,"[84,91,153,133,124,149,64,23,43,95]",1,10,1,0,0,1,24,105,77,1,Purple,Purple.jpg,LightBlue,LightBlue.jpg,,
,,,,,,,,,,,,,,,,,,2,,,,,,,,,,,,,,,,,,,,,,,,,,,,,,609190b7869cb8cba8c18c04,001,2021-12-05_23h16.07.849,jm_natural_scene_simialrity_2-12-2021,2021.2.3,Win32,59.88382538,609190b7869cb8cba8c18c04,61ad71e11ddd29ccf7a27d5b,61ad7244cd739902d5c56436,,,89,-48,1,0,0,response3disk,1.2675,16,-15,1,0,0,rectangle,16,-15,1,0,0,-4,-1,"[84,91,153,133,124,149,64,23,43,95]",16,-15,1,0,0,1,25,106,31,1,Turquiose,Turquiose.jpg,LightBlue,LightBlue.jpg,,
,,,,,,,,,,,,,,,,,,-4,,,,,,,,,,,,,,,,,,,,,,,,,,,,,,609190b7869cb8cba8c18c04,001,2021-12-05_23h16.07.849,jm_natural_scene_simialrity_2-12-2021,2021.2.3,Win32,59.88382538,609190b7869cb8cba8c18c04,61ad71e11ddd29ccf7a27d5b,61ad7244cd739902d5c56436,,,-54,111,1,0,0,response7disk,1.4171,-1,4,1,0,0,rectangle,-1,4,1,0,0,-4,-4,"[84,91,153,133,124,149,64,23,43,95]",-1,4,1,0,0,1,26,107,11,1,Yellow,Yellow.jpg,DarkGreen,DarkGreen.jpg,,
,,,,,,,,,,,,,,,,,,-1,,,,,,,,,,,,,,,,,,,,,,,,,,,,,,609190b7869cb8cba8c18c04,001,2021-12-05_23h16.07.849,jm_natural_scene_simialrity_2-12-2021,2021.2.3,Win32,59.88382538,609190b7869cb8cba8c18c04,61ad71e11ddd29ccf7a27d5b,61ad7244cd739902d5c56436,,,-52,-112,1,0,0,response5disk,1.9816,8,-18,1,0,0,rectangle,8,-18,1,0,0,-4,-3,"[84,91,153,133,124,149,64,23,43,95]",8,-18,1,0,0,1,27,108,79,1,Purple,Purple.jpg,DarkBlue,DarkBlue.jpg,,
,,,,,,,,,,,,,,,,,,-4,,,,,,,,,,,,,,,,,,,,,,,,,,,,,,609190b7869cb8cba8c18c04,001,2021-12-05_23h16.07.849,jm_natural_scene_simialrity_2-12-2021,2021.2.3,Win32,59.88382538,609190b7869cb8cba8c18c04,61ad71e11ddd29ccf7a27d5b,61ad7244cd739902d5c56436,,,-39,112,1,0,0,response7disk,0.9551,-1,11,1,0,0,rectangle,-1,11,1,0,0,-4,3,"[84,91,153,133,124,149,64,23,43,95]",-1,11,1,0,0,1,28,109,56,1,LightBlue,LightBlue.jpg,Yellow,Yellow.jpg,,
,,,,,,,,,,,,,,,,,,-1,,,,,,,,,,,,,,,,,,,,,,,,,,,,,,609190b7869cb8cba8c18c04,001,2021-12-05_23h16.07.849,jm_natural_scene_simialrity_2-12-2021,2021.2.3,Win32,59.88382538,609190b7869cb8cba8c18c04,61ad71e11ddd29ccf7a27d5b,61ad7244cd739902d5c56436,,,-39,-77,1,0,0,response5disk,1.0832,7,-5,1,0,0,rectangle,7,-5,1,0,0,-4,-3,"[84,91,153,133,124,149,64,23,43,95]",7,-5,1,0,0,1,29,110,68,1,DarkBlue,DarkBlue.jpg,DarkGreen,DarkGreen.jpg,,
,,,,,,,,,,,,,,,,,,-1,,,,,,,,,,,,,,,,,,,,,,,,,,,,,,609190b7869cb8cba8c18c04,001,2021-12-05_23h16.07.849,jm_natural_scene_simialrity_2-12-2021,2021.2.3,Win32,59.88382538,609190b7869cb8cba8c18c04,61ad71e11ddd29ccf7a27d5b,61ad7244cd739902d5c56436,,,-59,-107,1,0,0,response5disk,1.4665,-20,2,1,0,0,rectangle,-20,2,1,0,0,-4,-2,"[84,91,153,133,124,149,64,23,43,95]",-20,2,1,0,0,1,30,111,38,1,LightBlue,LightBlue.jpg,Purple,Purple.jpg,,
,,,,,,,,,,,,,,,,,,-2,,,,,,,,,,,,,,,,,,,,,,,,,,,,,,609190b7869cb8cba8c18c04,001,2021-12-05_23h16.07.849,jm_natural_scene_simialrity_2-12-2021,2021.2.3,Win32,59.88382538,609190b7869cb8cba8c18c04,61ad71e11ddd29ccf7a27d5b,61ad7244cd739902d5c56436,,,-99,-47,1,0,0,response5disk,1.7852,-4,-3,1,0,0,rectangle,-4,-3,1,0,0,-4,-3,"[84,91,153,133,124,149,64,23,43,95]",-4,-3,1,0,0,1,31,112,25,1,DarkGreen,DarkGreen.jpg,Turquiose,Turquiose.jpg,,
,,,,,,,,,,,,,,,,,,-4,,,,,,,,,,,,,,,,,,,,,,,,,,,,,,609190b7869cb8cba8c18c04,001,2021-12-05_23h16.07.849,jm_natural_scene_simialrity_2-12-2021,2021.2.3,Win32,59.88382538,609190b7869cb8cba8c18c04,61ad71e11ddd29ccf7a27d5b,61ad7244cd739902d5c56436,,,-36,103,1,0,0,response7disk,0.8328,4,12,1,0,0,rectangle,4,12,1,0,0,-4,-3,"[84,91,153,133,124,149,64,23,43,95]",4,12,1,0,0,1,32,113,55,1,Turquiose,Turquiose.jpg,Yellow,Yellow.jpg,,
,,,,,,,,,,,,,,,,,,-2,,,,,,,,,,,,,,,,,,,,,,,,,,,,,,609190b7869cb8cba8c18c04,001,2021-12-05_23h16.07.849,jm_natural_scene_simialrity_2-12-2021,2021.2.3,Win32,59.88382538,609190b7869cb8cba8c18c04,61ad71e11ddd29ccf7a27d5b,61ad7244cd739902d5c56436,,,-82,-49,1,0,0,response5disk,2.6505,-7,-7,1,0,0,rectangle,-7,-7,1,0,0,-4,3,"[84,91,153,133,124,149,64,23,43,95]",-7,-7,1,0,0,1,33,114,62,1,LightBlue,LightBlue.jpg,LightGreen,LightGreen.jpg,,
,,,,,,,,,,,,,,,,,,4,,,,,,,,,,,,,,,,,,,,,,,,,,,,,,609190b7869cb8cba8c18c04,001,2021-12-05_23h16.07.849,jm_natural_scene_simialrity_2-12-2021,2021.2.3,Win32,59.88382538,609190b7869cb8cba8c18c04,61ad71e11ddd29ccf7a27d5b,61ad7244cd739902d5c56436,,,43,115,1,0,0,response1disk,0.8329,6,2,1,0,0,rectangle,6,2,1,0,0,-4,3,"[84,91,153,133,124,149,64,23,43,95]",6,2,1,0,0,1,34,115,44,1,Purple,Purple.jpg,Purple,Purple.jpg,,
,,,,,,,,,,,,,,,,,,-4,,,,,,,,,,,,,,,,,,,,,,,,,,,,,,609190b7869cb8cba8c18c04,001,2021-12-05_23h16.07.849,jm_natural_scene_simialrity_2-12-2021,2021.2.3,Win32,59.88382538,609190b7869cb8cba8c18c04,61ad71e11ddd29ccf7a27d5b,61ad7244cd739902d5c56436,,,-64,108,1,0,0,response7disk,1.2345,3,-12,1,0,0,rectangle,3,-12,1,0,0,-4,2,"[84,91,153,133,124,149,64,23,43,95]",3,-12,1,0,0,1,35,116,13,1,Yellow,Yellow.jpg,LightBlue,LightBlue.jpg,,
,,,,,,,,,,,,,,,,,,-4,,,,,,,,,,,,,,,,,,,,,,,,,,,,,,609190b7869cb8cba8c18c04,001,2021-12-05_23h16.07.849,jm_natural_scene_simialrity_2-12-2021,2021.2.3,Win32,59.88382538,609190b7869cb8cba8c18c04,61ad71e11ddd29ccf7a27d5b,61ad7244cd739902d5c56436,,,-53,90,1,0,0,response7disk,1.2673,-5,-5,1,0,0,rectangle,-5,-5,1,0,0,-4,-4,"[84,91,153,133,124,149,64,23,43,95]",-5,-5,1,0,0,1,36,117,65,1,Purple,Purple.jpg,LightGreen,LightGreen.jpg,,
,,,,,,,,,,,,,,,,,,-4,,,,,,,,,,,,,,,,,,,,,,,,,,,,,,609190b7869cb8cba8c18c04,001,2021-12-05_23h16.07.849,jm_natural_scene_simialrity_2-12-2021,2021.2.3,Win32,59.88382538,609190b7869cb8cba8c18c04,61ad71e11ddd29ccf7a27d5b,61ad7244cd739902d5c56436,,,-48,97,1,0,0,response7disk,0.8668,-2,4,1,0,0,rectangle,-2,4,1,0,0,-4,-4,"[84,91,153,133,124,149,64,23,43,95]",-2,4,1,0,0,1,37,118,37,1,LightBlue,LightBlue.jpg,Pink,Pink.jpg,,
,,,,,,,,,,,,,,,,,,4,,,,,,,,,,,,,,,,,,,,,,,,,,,,,,609190b7869cb8cba8c18c04,001,2021-12-05_23h16.07.849,jm_natural_scene_simialrity_2-12-2021,2021.2.3,Win32,59.88382538,609190b7869cb8cba8c18c04,61ad71e11ddd29ccf7a27d5b,61ad7244cd739902d5c56436,,,36,96,1,0,0,response1disk,0.7518,-1,6,1,0,0,rectangle,-1,6,1,0,0,-4,1,"[84,91,153,133,124,149,64,23,43,95]",-1,6,1,0,0,1,38,119,35,1,LightBlue,LightBlue.jpg,LightBlue,LightBlue.jpg,,
,,,,,,,,,,,,,,,,,,-4,,,,,,,,,,,,,,,,,,,,,,,,,,,,,,609190b7869cb8cba8c18c04,001,2021-12-05_23h16.07.849,jm_natural_scene_simialrity_2-12-2021,2021.2.3,Win32,59.88382538,609190b7869cb8cba8c18c04,61ad71e11ddd29ccf7a27d5b,61ad7244cd739902d5c56436,,,-60,86,1,0,0,response7disk,1.0016,-9,5,1,0,0,rectangle,-9,5,1,0,0,-4,-2,"[84,91,153,133,124,149,64,23,43,95]",-9,5,1,0,0,1,39,120,73,1,Pink,Pink.jpg,Turquiose,Turquiose.jpg,,
,,,,,,,,,,,,,,,,,,-4,,,,,,,,,,,,,,,,,,,,,,,,,,,,,,609190b7869cb8cba8c18c04,001,2021-12-05_23h16.07.849,jm_natural_scene_simialrity_2-12-2021,2021.2.3,Win32,59.88382538,609190b7869cb8cba8c18c04,61ad71e11ddd29ccf7a27d5b,61ad7244cd739902d5c56436,,,-56,97,1,0,0,response7disk,1.1319,-22,10,1,0,0,rectangle,-22,10,1,0,0,-4,-2,"[84,91,153,133,124,149,64,23,43,95]",-22,10,1,0,0,1,40,121,3,1,Red,Red.jpg,DarkGreen,DarkGreen.jpg,,
,,,,,,,,,,,,,,,,,,-4,,,,,,,,,,,,,,,,,,,,,,,,,,,,,,609190b7869cb8cba8c18c04,001,2021-12-05_23h16.07.849,jm_natural_scene_simialrity_2-12-2021,2021.2.3,Win32,59.88382538,609190b7869cb8cba8c18c04,61ad71e11ddd29ccf7a27d5b,61ad7244cd739902d5c56436,,,-50,140,1,0,0,response7disk,0.8673,-12,-6,1,0,0,rectangle,-12,-6,1,0,0,-4,-1,"[84,91,153,133,124,149,64,23,43,95]",-12,-6,1,0,0,1,41,122,54,1,DarkGreen,DarkGreen.jpg,Yellow,Yellow.jpg,,
,,,,,,,,,,,,,,,,,,4,,,,,,,,,,,,,,,,,,,,,,,,,,,,,,609190b7869cb8cba8c18c04,001,2021-12-05_23h16.07.849,jm_natural_scene_simialrity_2-12-2021,2021.2.3,Win32,59.88382538,609190b7869cb8cba8c18c04,61ad71e11ddd29ccf7a27d5b,61ad7244cd739902d5c56436,,,41,96,1,0,0,response1disk,0.7172,5,-3,1,0,0,rectangle,82,-50,1,0,0,2,2,"[84,91,153,133,124,149,64,23,43,95]",3,-3,1,0,0,1,42,123,39,1,DarkBlue,DarkBlue.jpg,DarkBlue,DarkBlue.jpg,response3disk_3,rectangle
,,,,,,,,,,,,,,,,,,-4,,,,,,,,,,,,,,,,,,,,,,,,,,,,,,609190b7869cb8cba8c18c04,001,2021-12-05_23h16.07.849,jm_natural_scene_simialrity_2-12-2021,2021.2.3,Win32,59.88382538,609190b7869cb8cba8c18c04,61ad71e11ddd29ccf7a27d5b,61ad7244cd739902d5c56436,,,-62,99,1,0,0,response7disk,3.1162,8,0,1,0,0,rectangle,8,0,1,0,0,2,-2,"[84,91,153,133,124,149,64,23,43,95]",8,0,1,0,0,1,43,124,23,1,LightGreen,LightGreen.jpg,Purple,Purple.jpg,,
,,,,,,,,,,,,,,,,,,-3,,,,,,,,,,,,,,,,,,,,,,,,,,,,,,609190b7869cb8cba8c18c04,001,2021-12-05_23h16.07.849,jm_natural_scene_simialrity_2-12-2021,2021.2.3,Win32,59.88382538,609190b7869cb8cba8c18c04,61ad71e11ddd29ccf7a27d5b,61ad7244cd739902d5c56436,,,-68,63,1,0,0,response7disk,2.0492,-20,7,1,0,0,rectangle,-20,7,1,0,0,2,-2,"[84,91,153,133,124,149,64,23,43,95]",-20,7,1,0,0,1,44,125,74,1,Purple,Purple.jpg,Turquiose,Turquiose.jpg,,
,,,,,,,,,,,,,,,,,,-3,,,,,,,,,,,,,,,,,,,,,,,,,,,,,,609190b7869cb8cba8c18c04,001,2021-12-05_23h16.07.849,jm_natural_scene_simialrity_2-12-2021,2021.2.3,Win32,59.88382538,609190b7869cb8cba8c18c04,61ad71e11ddd29ccf7a27d5b,61ad7244cd739902d5c56436,,,-83,45,1,0,0,response7disk,1.0001,-8,-10,1,0,0,rectangle,-8,-10,1,0,0,2,-1,"[84,91,153,133,124,149,64,23,43,95]",-8,-10,1,0,0,1,45,126,26,1,DarkGreen,DarkGreen.jpg,LightBlue,LightBlue.jpg,,
,,,,,,,,,,,,,,,,,,4,,,,,,,,,,,,,,,,,,,,,,,,,,,,,,609190b7869cb8cba8c18c04,001,2021-12-05_23h16.07.849,jm_natural_scene_simialrity_2-12-2021,2021.2.3,Win32,59.88382538,609190b7869cb8cba8c18c04,61ad71e11ddd29ccf7a27d5b,61ad7244cd739902d5c56436,,,59,108,1,0,0,response1disk,0.7838,4,-12,1,0,0,rectangle,4,-12,1,0,0,2,3,"[84,91,153,133,124,149,64,23,43,95]",4,-12,1,0,0,1,46,127,24,1,DarkGreen,DarkGreen.jpg,DarkGreen,DarkGreen.jpg,,
,,,,,,,,,,,,,,,,,,-3,,,,,,,,,,,,,,,,,,,,,,,,,,,,,,609190b7869cb8cba8c18c04,001,2021-12-05_23h16.07.849,jm_natural_scene_simialrity_2-12-2021,2021.2.3,Win32,59.88382538,609190b7869cb8cba8c18c04,61ad71e11ddd29ccf7a27d5b,61ad7244cd739902d5c56436,,,-93,54,1,0,0,response7disk,2.0499,-13,-5,1,0,0,rectangle,-13,-5,1,0,0,2,1,"[84,91,153,133,124,149,64,23,43,95]",-13,-5,1,0,0,1,47,128,48,1,Turquiose,Turquiose.jpg,Red,Red.jpg,,
,,,,,,,,,,,,,,,,,,-4,,,,,,,,,,,,,,,,,,,,,,,,,,,,,,609190b7869cb8cba8c18c04,001,2021-12-05_23h16.07.849,jm_natural_scene_simialrity_2-12-2021,2021.2.3,Win32,59.88382538,609190b7869cb8cba8c18c04,61ad71e11ddd29ccf7a27d5b,61ad7244cd739902d5c56436,,,-52,82,1,0,0,response7disk,1.2677,-7,10,1,0,0,rectangle,-7,10,1,0,0,2,3,"[84,91,153,133,124,149,64,23,43,95]",-7,10,1,0,0,1,48,129,59,1,Purple,Purple.jpg,Yellow,Yellow.jpg,,
,,,,,,,,,,,,,,,,,,4,,,,,,,,,,,,,,,,,,,,,,,,,,,,,,609190b7869cb8cba8c18c04,001,2021-12-05_23h16.07.849,jm_natural_scene_simialrity_2-12-2021,2021.2.3,Win32,59.88382538,609190b7869cb8cba8c18c04,61ad71e11ddd29ccf7a27d5b,61ad7244cd739902d5c56436,,,37,103,1,0,0,response1disk,0.7339,-14,0,1,0,0,rectangle,-14,0,1,0,0,2,2,"[84,91,153,133,124,149,64,23,43,95]",-14,0,1,0,0,1,49,130,42,1,Pink,Pink.jpg,Pink,Pink.jpg,,
,,,,,,,,,,,,,,,,,,-3,,,,,,,,,,,,,,,,,,,,,,,,,,,,,,609190b7869cb8cba8c18c04,001,2021-12-05_23h16.07.849,jm_natural_scene_simialrity_2-12-2021,2021.2.3,Win32,59.88382538,609190b7869cb8cba8c18c04,61ad71e11ddd29ccf7a27d5b,61ad7244cd739902d5c56436,,,-98,33,1,0,0,response7disk,1.4487,-13,5,1,0,0,rectangle,-13,5,1,0,0,2,1,"[84,91,153,133,124,149,64,23,43,95]",-13,5,1,0,0,1,50,131,61,1,Turquiose,Turquiose.jpg,LightGreen,LightGreen.jpg,,
,,,,,,,,,,,,,,,,,,-4,,,,,,,,,,,,,,,,,,,,,,,,,,,,,,609190b7869cb8cba8c18c04,001,2021-12-05_23h16.07.849,jm_natural_scene_simialrity_2-12-2021,2021.2.3,Win32,59.88382538,609190b7869cb8cba8c18c04,61ad71e11ddd29ccf7a27d5b,61ad7244cd739902d5c56436,,,-55,89,1,0,0,response7disk,0.8998,-19,15,1,0,0,rectangle,95,41,1,0,0,3,3,"[84,91,153,133,124,149,64,23,43,95]",7,6,1,0,0,1,51,132,78,1,Pink,Pink.jpg,DarkBlue,DarkBlue.jpg,response1disk_3,rectangle
,,,,,,,,,,,,,,,,,,4,,,,,,,,,,,,,,,,,,,,,,,,,,,,,,609190b7869cb8cba8c18c04,001,2021-12-05_23h16.07.849,jm_natural_scene_simialrity_2-12-2021,2021.2.3,Win32,59.88382538,609190b7869cb8cba8c18c04,61ad71e11ddd29ccf7a27d5b,61ad7244cd739902d5c56436,,,50,109,1,0,0,response1disk,0.7316,5,-2,1,0,0,rectangle,5,-2,1,0,0,3,-3,"[84,91,153,133,124,149,64,23,43,95]",5,-2,1,0,0,1,52,133,0,1,Red,Red.jpg,Red,Red.jpg,,
,,,,,,,,,,,,,,,,,,1,,,,,,,,,,,,,,,,,,,,,,,,,,,,,,609190b7869cb8cba8c18c04,001,2021-12-05_23h16.07.849,jm_natural_scene_simialrity_2-12-2021,2021.2.3,Win32,59.88382538,609190b7869cb8cba8c18c04,61ad71e11ddd29ccf7a27d5b,61ad7244cd739902d5c56436,,,60,-98,1,0,0,response3disk,4.7832,-1,9,1,0,0,rectangle,-1,9,1,0,0,3,3,"[84,91,153,133,124,149,64,23,43,95]",-1,9,1,0,0,1,53,134,32,1,Turquiose,Turquiose.jpg,DarkBlue,DarkBlue.jpg,,
,,,,,,,,,,,,,,,,,,-4,,,,,,,,,,,,,,,,,,,,,,,,,,,,,,609190b7869cb8cba8c18c04,001,2021-12-05_23h16.07.849,jm_natural_scene_simialrity_2-12-2021,2021.2.3,Win32,59.88382538,609190b7869cb8cba8c18c04,61ad71e11ddd29ccf7a27d5b,61ad7244cd739902d5c56436,,,-57,89,1,0,0,response7disk,1.8666,-11,-3,1,0,0,rectangle,-11,-3,1,0,0,3,-4,"[84,91,153,133,124,149,64,23,43,95]",-11,-3,1,0,0,1,54,135,50,1,DarkBlue,DarkBlue.jpg,Red,Red.jpg,,
,,,,,,,,,,,,,,,,,,-2,,,,,,,,,,,,,,,,,,,,,,,,,,,,,,609190b7869cb8cba8c18c04,001,2021-12-05_23h16.07.849,jm_natural_scene_simialrity_2-12-2021,2021.2.3,Win32,59.88382538,609190b7869cb8cba8c18c04,61ad71e11ddd29ccf7a27d5b,61ad7244cd739902d5c56436,,,-70,-38,1,0,0,response5disk,5.3994,-7,-9,1,0,0,rectangle,-7,-9,1,0,0,3,-2,"[84,91,153,133,124,149,64,23,43,95]",-7,-9,1,0,0,1,55,136,36,1,LightBlue,LightBlue.jpg,DarkBlue,DarkBlue.jpg,,
,,,,,,,,,,,,,,,,,,-4,,,,,,,,,,,,,,,,,,,,,,,,,,,,,,609190b7869cb8cba8c18c04,001,2021-12-05_23h16.07.849,jm_natural_scene_simialrity_2-12-2021,2021.2.3,Win32,59.88382538,609190b7869cb8cba8c18c04,61ad71e11ddd29ccf7a27d5b,61ad7244cd739902d5c56436,,,-45,83,1,0,0,response7disk,0.8196,-5,-3,1,0,0,rectangle,-5,-3,1,0,0,3,1,"[84,91,153,133,124,149,64,23,43,95]",-5,-3,1,0,0,1,56,137,47,1,DarkGreen,DarkGreen.jpg,Red,Red.jpg,,
,,,,,,,,,,,,,,,,,,-4,,,,,,,,,,,,,,,,,,,,,,,,,,,,,,609190b7869cb8cba8c18c04,001,2021-12-05_23h16.07.849,jm_natural_scene_simialrity_2-12-2021,2021.2.3,Win32,59.88382538,609190b7869cb8cba8c18c04,61ad71e11ddd29ccf7a27d5b,61ad7244cd739902d5c56436,,,-38,83,1,0,0,response7disk,0.8497,-3,3,1,0,0,rectangle,-3,3,1,0,0,3,-4,"[84,91,153,133,124,149,64,23,43,95]",-3,3,1,0,0,1,57,138,4,1,Red,Red.jpg,Turquiose,Turquiose.jpg,,
,,,,,,,,,,,,,,,,,,-4,,,,,,,,,,,,,,,,,,,,,,,,,,,,,,609190b7869cb8cba8c18c04,001,2021-12-05_23h16.07.849,jm_natural_scene_simialrity_2-12-2021,2021.2.3,Win32,59.88382538,609190b7869cb8cba8c18c04,61ad71e11ddd29ccf7a27d5b,61ad7244cd739902d5c56436,,,-43,105,1,0,0,response7disk,0.7511,-10,11,1,0,0,rectangle,-10,11,1,0,0,3,-3,"[84,91,153,133,124,149,64,23,43,95]",-10,11,1,0,0,1,58,139,14,1,Yellow,Yellow.jpg,DarkBlue,DarkBlue.jpg,,
,,,,,,,,,,,,,,,,,,-4,,,,,,,,,,,,,,,,,,,,,,,,,,,,,,609190b7869cb8cba8c18c04,001,2021-12-05_23h16.07.849,jm_natural_scene_simialrity_2-12-2021,2021.2.3,Win32,59.88382538,609190b7869cb8cba8c18c04,61ad71e11ddd29ccf7a27d5b,61ad7244cd739902d5c56436,,,-31,90,1,0,0,response7disk,0.5501,-7,14,1,0,0,rectangle,-7,14,1,0,0,3,3,"[84,91,153,133,124,149,64,23,43,95]",-7,14,1,0,0,1,59,140,33,1,Turquiose,Turquiose.jpg,Pink,Pink.jpg,,
,,,,,,,,,,,,,,,,,,-3,,,,,,,,,,,,,,,,,,,,,,,,,,,,,,609190b7869cb8cba8c18c04,001,2021-12-05_23h16.07.849,jm_natural_scene_simialrity_2-12-2021,2021.2.3,Win32,59.88382538,609190b7869cb8cba8c18c04,61ad71e11ddd29ccf7a27d5b,61ad7244cd739902d5c56436,,,-91,46,1,0,0,response7disk,1.1664,-15,5,1,0,0,rectangle,-15,5,1,0,0,3,2,"[84,91,153,133,124,149,64,23,43,95]",-15,5,1,0,0,1,60,141,46,1,LightGreen,LightGreen.jpg,Red,Red.jpg,,
,,,,,,,,,,,,,,,,,,4,,,,,,,,,,,,,,,,,,,,,,,,,,,,,,609190b7869cb8cba8c18c04,001,2021-12-05_23h16.07.849,jm_natural_scene_simialrity_2-12-2021,2021.2.3,Win32,59.88382538,609190b7869cb8cba8c18c04,61ad71e11ddd29ccf7a27d5b,61ad7244cd739902d5c56436,,,55,141,1,0,0,response1disk,0.7837,-14,-9,1,0,0,rectangle,-14,-9,1,0,0,3,-2,"[84,91,153,133,124,149,64,23,43,95]",-14,-9,1,0,0,1,61,142,17,1,LightGreen,LightGreen.jpg,LightGreen,LightGreen.jpg,,
,,,,,,,,,,,,,,,,,,3,,,,,,,,,,,,,,,,,,,,,,,,,,,,,,609190b7869cb8cba8c18c04,001,2021-12-05_23h16.07.849,jm_natural_scene_simialrity_2-12-2021,2021.2.3,Win32,59.88382538,609190b7869cb8cba8c18c04,61ad71e11ddd29ccf7a27d5b,61ad7244cd739902d5c56436,,,87,32,1,0,0,response1disk,1.9684,10,-2,1,0,0,rectangle,10,-2,1,0,0,3,1,"[84,91,153,133,124,149,64,23,43,95]",10,-2,1,0,0,1,62,143,1,1,Red,Red.jpg,Yellow,Yellow.jpg,,
,,,,,,,,,,,,,,,,,,-4,,,,,,,,,,,,,,,,,,,,,,,,,,,,,,609190b7869cb8cba8c18c04,001,2021-12-05_23h16.07.849,jm_natural_scene_simialrity_2-12-2021,2021.2.3,Win32,59.88382538,609190b7869cb8cba8c18c04,61ad71e11ddd29ccf7a27d5b,61ad7244cd739902d5c56436,,,-52,91,1,0,0,response7disk,1.6857,-11,19,1,0,0,rectangle,-11,19,1,0,0,3,3,"[84,91,153,133,124,149,64,23,43,95]",-11,19,1,0,0,1,63,144,49,1,LightBlue,LightBlue.jpg,Red,Red.jpg,,
,,,,,,,,,,,,,,,,,,-4,,,,,,,,,,,,,,,,,,,,,,,,,,,,,,609190b7869cb8cba8c18c04,001,2021-12-05_23h16.07.849,jm_natural_scene_simialrity_2-12-2021,2021.2.3,Win32,59.88382538,609190b7869cb8cba8c18c04,61ad71e11ddd29ccf7a27d5b,61ad7244cd739902d5c56436,,,-50,97,1,0,0,response7disk,1.0998,-5,9,1,0,0,rectangle,-5,9,1,0,0,3,2,"[84,91,153,133,124,149,64,23,43,95]",-5,9,1,0,0,1,64,145,10,1,Yellow,Yellow.jpg,LightGreen,LightGreen.jpg,,
,,,,,,,,,,,,,,,,,,-1,,,,,,,,,,,,,,,,,,,,,,,,,,,,,,609190b7869cb8cba8c18c04,001,2021-12-05_23h16.07.849,jm_natural_scene_simialrity_2-12-2021,2021.2.3,Win32,59.88382538,609190b7869cb8cba8c18c04,61ad71e11ddd29ccf7a27d5b,61ad7244cd739902d5c56436,,,-31,-72,1,0,0,response5disk,1.6011,-10,-5,1,0,0,rectangle,-10,-5,1,0,0,3,-4,"[84,91,153,133,124,149,64,23,43,95]",-10,-5,1,0,0,1,65,146,75,1,DarkBlue,DarkBlue.jpg,LightBlue,LightBlue.jpg,,
,,,,,,,,,,,,,,,,,,-3,,,,,,,,,,,,,,,,,,,,,,,,,,,,,,609190b7869cb8cba8c18c04,001,2021-12-05_23h16.07.849,jm_natural_scene_simialrity_2-12-2021,2021.2.3,Win32,59.88382538,609190b7869cb8cba8c18c04,61ad71e11ddd29ccf7a27d5b,61ad7244cd739902d5c56436,,,-91,83,1,0,0,response7disk,1.9332,-12,4,1,0,0,rectangle,-12,4,1,0,0,3,-2,"[84,91,153,133,124,149,64,23,43,95]",-12,4,1,0,0,1,66,147,19,1,LightGreen,LightGreen.jpg,Turquiose,Turquiose.jpg,,
,,,,,,,,,,,,,,,,,,-3,,,,,,,,,,,,,,,,,,,,,,,,,,,,,,609190b7869cb8cba8c18c04,001,2021-12-05_23h16.07.849,jm_natural_scene_simialrity_2-12-2021,2021.2.3,Win32,59.88382538,609190b7869cb8cba8c18c04,61ad71e11ddd29ccf7a27d5b,61ad7244cd739902d5c56436,,,-80,37,1,0,0,response7disk,1.2171,-9,2,1,0,0,rectangle,101,39,1,0,0,3,3,"[84,91,153,133,124,149,64,23,43,95]",14,-1,1,0,0,1,67,148,16,1,Yellow,Yellow.jpg,Purple,Purple.jpg,response1disk_3,rectangle
,,,,,,,,,,,,,,,,,,-3,,,,,,,,,,,,,,,,,,,,,,,,,,,,,,609190b7869cb8cba8c18c04,001,2021-12-05_23h16.07.849,jm_natural_scene_simialrity_2-12-2021,2021.2.3,Win32,59.88382538,609190b7869cb8cba8c18c04,61ad71e11ddd29ccf7a27d5b,61ad7244cd739902d5c56436,,,-85,43,1,0,0,response7disk,2.1529,-17,-6,1,0,0,rectangle,-17,-6,1,0,0,3,2,"[84,91,153,133,124,149,64,23,43,95]",-17,-6,1,0,0,1,68,149,53,1,LightGreen,LightGreen.jpg,Yellow,Yellow.jpg,,
,,,,,,,,,,,,,,,,,,-3,,,,,,,,,,,,,,,,,,,,,,,,,,,,,,609190b7869cb8cba8c18c04,001,2021-12-05_23h16.07.849,jm_natural_scene_simialrity_2-12-2021,2021.2.3,Win32,59.88382538,609190b7869cb8cba8c18c04,61ad71e11ddd29ccf7a27d5b,61ad7244cd739902d5c56436,,,-93,63,1,0,0,response7disk,0.8987,-17,21,1,0,0,rectangle,-17,21,1,0,0,-4,1,"[84,91,153,133,124,149,64,23,43,95]",-17,21,1,0,0,1,69,150,57,1,DarkBlue,DarkBlue.jpg,Yellow,Yellow.jpg,,
,,,,,,,,,,,,,,,,,,-1,,,,,,,,,,,,,,,,,,,,,,,,,,,,,,609190b7869cb8cba8c18c04,001,2021-12-05_23h16.07.849,jm_natural_scene_simialrity_2-12-2021,2021.2.3,Win32,59.88382538,609190b7869cb8cba8c18c04,61ad71e11ddd29ccf7a27d5b,61ad7244cd739902d5c56436,,,-41,-63,1,0,0,response5disk,1.4204,7,-7,1,0,0,rectangle,7,-7,1,0,0,-4,1,"[84,91,153,133,124,149,64,23,43,95]",7,-7,1,0,0,1,70,151,52,1,Purple,Purple.jpg,Red,Red.jpg,,
,,,,,,,,,,,,,,,,,,-2,,,,,,,,,,,,,,,,,,,,,,,,,,,,,,609190b7869cb8cba8c18c04,001,2021-12-05_23h16.07.849,jm_natural_scene_simialrity_2-12-2021,2021.2.3,Win32,59.88382538,609190b7869cb8cba8c18c04,61ad71e11ddd29ccf7a27d5b,61ad7244cd739902d5c56436,,,-102,-65,1,0,0,response5disk,3.1156,-21,-16,1,0,0,rectangle,-32,-95,1,0,0,-1,-1,"[84,91,153,133,124,149,64,23,43,95]",-4,-1,1,0,0,1,71,152,8,1,Red,Red.jpg,Purple,Purple.jpg,response5disk_3,rectangle
,,,,,,,,,,,,,,,,,,-3,,,,,,,,,,,,,,,,,,,,,,,,,,,,,,609190b7869cb8cba8c18c04,001,2021-12-05_23h16.07.849,jm_natural_scene_simialrity_2-12-2021,2021.2.3,Win32,59.88382538,609190b7869cb8cba8c18c04,61ad71e11ddd29ccf7a27d5b,61ad7244cd739902d5c56436,,,-81,52,1,0,0,response7disk,1.5683,-5,-8,1,0,0,rectangle,-5,-8,1,0,0,-1,-4,"[84,91,153,133,124,149,64,23,43,95]",-5,-8,1,0,0,1,72,153,70,1,Purple,Purple.jpg,DarkGreen,DarkGreen.jpg,,
,,,,,,,,,,,,,,,,,,-1,,,,,,,,,,,,,,,,,,,,,,,,,,,,,,609190b7869cb8cba8c18c04,001,2021-12-05_23h16.07.849,jm_natural_scene_simialrity_2-12-2021,2021.2.3,Win32,59.88382538,609190b7869cb8cba8c18c04,61ad71e11ddd29ccf7a27d5b,61ad7244cd739902d5c56436,,,-62,-87,1,0,0,response5disk,2.7847,-15,-5,1,0,0,rectangle,-15,-5,1,0,0,-1,-4,"[84,91,153,133,124,149,64,23,43,95]",-15,-5,1,0,0,1,73,154,41,1,DarkBlue,DarkBlue.jpg,Purple,Purple.jpg,,
,,,,,,,,,,,,,,,,,,-4,,,,,,,,,,,,,,,,,,,,,,,,,,,,,,609190b7869cb8cba8c18c04,001,2021-12-05_23h16.07.849,jm_natural_scene_simialrity_2-12-2021,2021.2.3,Win32,59.88382538,609190b7869cb8cba8c18c04,61ad71e11ddd29ccf7a27d5b,61ad7244cd739902d5c56436,,,-56,83,1,0,0,response7disk,0.9167,3,8,1,0,0,rectangle,3,8,1,0,0,-1,-4,"[84,91,153,133,124,149,64,23,43,95]",3,8,1,0,0,1,74,155,12,1,Yellow,Yellow.jpg,Turquiose,Turquiose.jpg,,
,,,,,,,,,,,,,,,,,,1,,,,,,,,,,,,,,,,,,,,,,,,,,,,,,609190b7869cb8cba8c18c04,001,2021-12-05_23h16.07.849,jm_natural_scene_simialrity_2-12-2021,2021.2.3,Win32,59.88382538,609190b7869cb8cba8c18c04,61ad71e11ddd29ccf7a27d5b,61ad7244cd739902d5c56436,,,57,-80,1,0,0,response3disk,1.9339,11,7,1,0,0,rectangle,11,7,1,0,0,-1,1,"[84,91,153,133,124,149,64,23,43,95]",11,7,1,0,0,1,75,156,76,1,Pink,Pink.jpg,LightBlue,LightBlue.jpg,,
,,,,,,,,,,,,,,,,,,1,,,,,,,,,,,,,,,,,,,,,,,,,,,,,,609190b7869cb8cba8c18c04,001,2021-12-05_23h16.07.849,jm_natural_scene_simialrity_2-12-2021,2021.2.3,Win32,59.88382538,609190b7869cb8cba8c18c04,61ad71e11ddd29ccf7a27d5b,61ad7244cd739902d5c56436,,,50,-104,1,0,0,response3disk,0.7836,-6,-4,1,0,0,rectangle,-6,-4,1,0,0,-1,-2,"[84,91,153,133,124,149,64,23,43,95]",-6,-4,1,0,0,1,76,157,43,1,Pink,Pink.jpg,Purple,Purple.jpg,,
,,,,,,,,,,,,,,,,,,-3,,,,,,,,,,,,,,,,,,,,,,,,,,,,,,609190b7869cb8cba8c18c04,001,2021-12-05_23h16.07.849,jm_natural_scene_simialrity_2-12-2021,2021.2.3,Win32,59.88382538,609190b7869cb8cba8c18c04,61ad71e11ddd29ccf7a27d5b,61ad7244cd739902d5c56436,,,-85,39,1,0,0,response7disk,1.6337,11,2,1,0,0,rectangle,11,2,1,0,0,-1,3,"[84,91,153,133,124,149,64,23,43,95]",11,2,1,0,0,1,77,158,27,1,DarkGreen,DarkGreen.jpg,DarkBlue,DarkBlue.jpg,,
,,,,,,,,,,,,,,,,,,-3,,,,,,,,,,,,,,,,,,,,,,,,,,,,,,609190b7869cb8cba8c18c04,001,2021-12-05_23h16.07.849,jm_natural_scene_simialrity_2-12-2021,2021.2.3,Win32,59.88382538,609190b7869cb8cba8c18c04,61ad71e11ddd29ccf7a27d5b,61ad7244cd739902d5c56436,,,-88,43,1,0,0,response7disk,1.0514,-14,-3,1,0,0,rectangle,-14,-3,1,0,0,-1,2,"[84,91,153,133,124,149,64,23,43,95]",-14,-3,1,0,0,1,78,159,64,1,Pink,Pink.jpg,LightGreen,LightGreen.jpg,,
,,,,,,,,,,,,,,,,,,2,,,,,,,,,,,,,,,,,,,,,,,,,,,,,,609190b7869cb8cba8c18c04,001,2021-12-05_23h16.07.849,jm_natural_scene_simialrity_2-12-2021,2021.2.3,Win32,59.88382538,609190b7869cb8cba8c18c04,61ad71e11ddd29ccf7a27d5b,61ad7244cd739902d5c56436,,,77,-42,1,0,0,response3disk,1.3175,-5,2,1,0,0,rectangle,-5,2,1,0,0,-1,1,"[84,91,153,133,124,149,64,23,43,95]",-5,2,1,0,0,1,79,160,7,1,Red,Red.jpg,Pink,Pink.jpg,,
,,,,,,,,,,,,,,,,,,4,,,,,,,,,,,,,,,,,,,,,,,,,,,,,,609190b7869cb8cba8c18c04,001,2021-12-05_23h16.07.849,jm_natural_scene_simialrity_2-12-2021,2021.2.3,Win32,59.88382538,609190b7869cb8cba8c18c04,61ad71e11ddd29ccf7a27d5b,61ad7244cd739902d5c56436,,,33,89,1,0,0,response1disk,0.9169,-4,5,1,0,0,rectangle,-4,5,1,0,0,-1,1,"[84,91,153,133,124,149,64,23,43,95]",-4,5,1,0,0,1,80,161,30,1,Turquiose,Turquiose.jpg,Turquiose,Turquiose.jpg,,
