key_resp.keys,key_resp.rt,key_resp_16.keys,key_resp_16.rt,key_resp_2.keys,key_resp_2.rt,key_resp_3.keys,key_resp_3.rt,key_resp_19.keys,key_resp_19.rt,key_resp_10.keys,key_resp_10.rt,mouse_prac.x,mouse_prac.y,mouse_prac.leftButton,mouse_prac.midButton,mouse_prac.rightButton,mouse_prac.clicked_name,similarity,mouse_10.x,mouse_10.y,mouse_10.leftButton,mouse_10.midButton,mouse_10.rightButton,mouse_10.clicked_name,mouse_catch_prac.x,mouse_catch_prac.y,mouse_catch_prac.leftButton,mouse_catch_prac.midButton,mouse_catch_prac.rightButton,catchnumberprac,mouse_6.x,mouse_6.y,mouse_6.leftButton,mouse_6.midButton,mouse_6.rightButton,during_prac.thisRepN,during_prac.thisTrialN,during_prac.thisN,during_prac.thisIndex,during_prac.ran,trailimage1,trial1adress,trailimage2,trial2adress,participant,session,date,expName,psychopyVersion,OS,frameRate,PROLIFIC_PID,STUDY_ID,SESSION_ID,mouse_catch_prac.clicked_name,catchprac,mouse_6.clicked_name,key_resp_22.keys,key_resp_22.rt,mouse.x,mouse.y,mouse.leftButton,mouse.midButton,mouse.rightButton,mouse.clicked_name,response_time,mouse_2.x,mouse_2.y,mouse_2.leftButton,mouse_2.midButton,mouse_2.rightButton,mouse_2.clicked_name,mouse_3.x,mouse_3.y,mouse_3.leftButton,mouse_3.midButton,mouse_3.rightButton,catchresponse,catchnumber,catchtrialorder,mouse_11.x,mouse_11.y,mouse_11.leftButton,mouse_11.midButton,mouse_11.rightButton,trials_2.thisRepN,trials_2.thisTrialN,trials_2.thisN,trials_2.thisIndex,trials_2.ran,image1,image1adress,image2,image2adress,mouse_3.clicked_name,mouse_11.clicked_name
space,1.0898,space,5.5162,space,2.6019,space,3.1466,space,18.8214,space,3.4347,113.6000131,-46.40000713,1,0,0,response3disk_5,2,-3.999988616,6.399993658,1,0,0,rectangle_8,-3.999988616,6.399993658,1,0,0,3,-3.999988616,6.399993658,1,0,0,0,0,0,0,1,trail1,trail1.jpg,trail1,trail1.jpg,60c1b64299f3731fc4f54169,001,2021-12-05_20h17.37.534,jm_natural_scene_simialrity_2-12-2021,2021.2.3,Win32,59.99520038,60c1b64299f3731fc4f54169,61ad71e11ddd29ccf7a27d5b,61ad7274bf929dea56137875,,,,,,,,,,,,,,,,,,,,,,,,,,,,,,,,,,,,,,,,,,
,,,,,,,,,,,,112.0000131,-52.80000722,1,0,0,response3disk_5,2,8.800011575,2.399993598,1,0,0,rectangle_8,114.4000131,45.59999424,1,0,0,3,-11.19998872,7.999993682,1,0,0,0,1,1,5,1,trail3,trail3.jpg,trail3,trail3.jpg,60c1b64299f3731fc4f54169,001,2021-12-05_20h17.37.534,jm_natural_scene_simialrity_2-12-2021,2021.2.3,Win32,59.99520038,60c1b64299f3731fc4f54169,61ad71e11ddd29ccf7a27d5b,61ad7274bf929dea56137875,response1disk_7,3,rectangle_4,,,,,,,,,,,,,,,,,,,,,,,,,,,,,,,,,,,,,,,
,,,,,,,,,,,,-108.7999902,-56.00000727,1,0,0,response5disk_5,-2,-8.799988687,-7.200006545,1,0,0,rectangle_8,-8.799988687,-7.200006545,1,0,0,3,-8.799988687,-7.200006545,1,0,0,0,2,2,1,1,trail1,trail1.jpg,trail2,trail2.jpg,60c1b64299f3731fc4f54169,001,2021-12-05_20h17.37.534,jm_natural_scene_simialrity_2-12-2021,2021.2.3,Win32,59.99520038,60c1b64299f3731fc4f54169,61ad71e11ddd29ccf7a27d5b,61ad7274bf929dea56137875,,,,,,,,,,,,,,,,,,,,,,,,,,,,,,,,,,,,,,,,,,
,,,,,,,,,,,,-105.5999901,-34.40000695,1,0,0,response5disk_5,-2,12.80001163,11.19999373,1,0,0,rectangle_8,12.80001163,11.19999373,1,0,0,3,12.80001163,11.19999373,1,0,0,0,3,3,4,1,trail2,trail2.jpg,trail3,trail3.jpg,60c1b64299f3731fc4f54169,001,2021-12-05_20h17.37.534,jm_natural_scene_simialrity_2-12-2021,2021.2.3,Win32,59.99520038,60c1b64299f3731fc4f54169,61ad71e11ddd29ccf7a27d5b,61ad7274bf929dea56137875,,,,,,,,,,,,,,,,,,,,,,,,,,,,,,,,,,,,,,,,,,
,,,,,,,,,,,,68.80001247,-136.0000085,1,0,0,response3disk_5,1,-19.19998884,-0.800006449,1,0,0,rectangle_8,113.6000131,44.79999423,1,0,0,3,-9.599988699,7.19999367,1,0,0,0,4,4,2,1,trail1,trail1.jpg,trail3,trail3.jpg,60c1b64299f3731fc4f54169,001,2021-12-05_20h17.37.534,jm_natural_scene_simialrity_2-12-2021,2021.2.3,Win32,59.99520038,60c1b64299f3731fc4f54169,61ad71e11ddd29ccf7a27d5b,61ad7274bf929dea56137875,response1disk_7,3,rectangle_4,,,,,,,,,,,,,,,,,,,,,,,,,,,,,,,,,,,,,,,
,,,,,,,,,,,,52.80001223,123.9999954,1,0,0,response1disk_5,4,0.800011456,9.599993706,1,0,0,rectangle_8,0.800011456,9.599993706,1,0,0,3,0.800011456,9.599993706,1,0,0,0,5,5,3,1,trail2,trail2.jpg,trail2,trail2.jpg,60c1b64299f3731fc4f54169,001,2021-12-05_20h17.37.534,jm_natural_scene_simialrity_2-12-2021,2021.2.3,Win32,59.99520038,60c1b64299f3731fc4f54169,61ad71e11ddd29ccf7a27d5b,61ad7274bf929dea56137875,,,,,,,,,,,,,,,,,,,,,,,,,,,,,,,,,,,,,,,,,,
,,,,,,,,,,,,,,,,,,-3,,,,,,,,,,,,,,,,,,,,,,,,,,,60c1b64299f3731fc4f54169,001,2021-12-05_20h17.37.534,jm_natural_scene_simialrity_2-12-2021,2021.2.3,Win32,59.99520038,60c1b64299f3731fc4f54169,61ad71e11ddd29ccf7a27d5b,61ad7274bf929dea56137875,,,,space,0.9644,-88.79998988,43.99999422,1,0,0,response7disk,1.6169,-3.199988604,-0.800006449,1,0,0,rectangle,-3.199988604,-0.800006449,1,0,0,,-1,"[38,23,77,4,60,42,89,64,135,15]",-3.199988604,-0.800006449,1,0,0,0,0,0,64,1,Pink,Pink.jpg,LightGreen,LightGreen.jpg,,
,,,,,,,,,,,,,,,,,,-2,,,,,,,,,,,,,,,,,,,,,,,,,,,60c1b64299f3731fc4f54169,001,2021-12-05_20h17.37.534,jm_natural_scene_simialrity_2-12-2021,2021.2.3,Win32,59.99520038,60c1b64299f3731fc4f54169,61ad71e11ddd29ccf7a27d5b,61ad7274bf929dea56137875,,,,,,-98.39994119,-56.80000728,1,0,0,response5disk,1.6499,-1.59998858,-5.600006521,1,0,0,rectangle,-1.59998858,-5.600006521,1,0,0,,1,"[38,23,77,4,60,42,89,64,135,15]",-1.59998858,-5.600006521,1,0,0,0,1,1,38,1,LightBlue,LightBlue.jpg,Purple,Purple.jpg,,
,,,,,,,,,,,,,,,,,,-2,,,,,,,,,,,,,,,,,,,,,,,,,,,60c1b64299f3731fc4f54169,001,2021-12-05_20h17.37.534,jm_natural_scene_simialrity_2-12-2021,2021.2.3,Win32,59.99520038,60c1b64299f3731fc4f54169,61ad71e11ddd29ccf7a27d5b,61ad7274bf929dea56137875,,,,,,-104.7999901,-37.600007,1,0,0,response5disk,1.7669,0.800011456,4.799993634,1,0,0,rectangle,0.800011456,4.799993634,1,0,0,,-1,"[38,23,77,4,60,42,89,64,135,15]",0.800011456,4.799993634,1,0,0,0,2,2,10,1,Yellow,Yellow.jpg,LightGreen,LightGreen.jpg,,
,,,,,,,,,,,,,,,,,,-1,,,,,,,,,,,,,,,,,,,,,,,,,,,60c1b64299f3731fc4f54169,001,2021-12-05_20h17.37.534,jm_natural_scene_simialrity_2-12-2021,2021.2.3,Win32,59.99520038,60c1b64299f3731fc4f54169,61ad71e11ddd29ccf7a27d5b,61ad7274bf929dea56137875,,,,,,-56.7999894,-95.20000786,1,0,0,response5disk,2.7169,-5.599988639,3.999993622,1,0,0,rectangle,-43.99998921,95.99999499,1,0,0,-4,-4,"[38,23,77,4,60,42,89,64,135,15]",15.20001167,-5.600006521,1,0,0,0,3,3,47,1,DarkGreen,DarkGreen.jpg,Red,Red.jpg,response7disk_3,rectangle
,,,,,,,,,,,,,,,,,,-3,,,,,,,,,,,,,,,,,,,,,,,,,,,60c1b64299f3731fc4f54169,001,2021-12-05_20h17.37.534,jm_natural_scene_simialrity_2-12-2021,2021.2.3,Win32,59.99520038,60c1b64299f3731fc4f54169,61ad71e11ddd29ccf7a27d5b,61ad7274bf929dea56137875,,,,,,-105.5999901,47.99999428,1,0,0,response7disk,1.5502,-23.1999889,4.799993634,1,0,0,rectangle,-23.1999889,4.799993634,1,0,0,-4,-4,"[38,23,77,4,60,42,89,64,135,15]",-23.1999889,4.799993634,1,0,0,0,4,4,69,1,Pink,Pink.jpg,DarkGreen,DarkGreen.jpg,,
,,,,,,,,,,,,,,,,,,1,,,,,,,,,,,,,,,,,,,,,,,,,,,60c1b64299f3731fc4f54169,001,2021-12-05_20h17.37.534,jm_natural_scene_simialrity_2-12-2021,2021.2.3,Win32,59.99520038,60c1b64299f3731fc4f54169,61ad71e11ddd29ccf7a27d5b,61ad7274bf929dea56137875,,,,,,44.0000121,-97.60005672,1,0,0,response3disk,1.9331,-4.799988627,15.19999379,1,0,0,rectangle,-4.799988627,15.19999379,1,0,0,-4,-2,"[38,23,77,4,60,42,89,64,135,15]",-4.799988627,15.19999379,1,0,0,0,5,5,72,1,DarkBlue,DarkBlue.jpg,Turquiose,Turquiose.jpg,,
,,,,,,,,,,,,,,,,,,3,,,,,,,,,,,,,,,,,,,,,,,,,,,60c1b64299f3731fc4f54169,001,2021-12-05_20h17.37.534,jm_natural_scene_simialrity_2-12-2021,2021.2.3,Win32,59.99520038,60c1b64299f3731fc4f54169,61ad71e11ddd29ccf7a27d5b,61ad7274bf929dea56137875,,,,,,132.0000134,43.19996979,1,0,0,response1disk,1.5002,-9.599988699,-12.00000662,1,0,0,rectangle,-9.599988699,-12.00000662,1,0,0,-4,-2,"[38,23,77,4,60,42,89,64,135,15]",-9.599988699,-12.00000662,1,0,0,0,6,6,7,1,Red,Red.jpg,Pink,Pink.jpg,,
,,,,,,,,,,,,,,,,,,-2,,,,,,,,,,,,,,,,,,,,,,,,,,,60c1b64299f3731fc4f54169,001,2021-12-05_20h17.37.534,jm_natural_scene_simialrity_2-12-2021,2021.2.3,Win32,59.99520038,60c1b64299f3731fc4f54169,61ad71e11ddd29ccf7a27d5b,61ad7274bf929dea56137875,,,,,,-90.39994107,-43.20000708,1,0,0,response5disk,1.5503,6.400011539,-8.800006568,1,0,0,rectangle,6.400011539,-8.800006568,1,0,0,-4,1,"[38,23,77,4,60,42,89,64,135,15]",6.400011539,-8.800006568,1,0,0,0,7,7,26,1,DarkGreen,DarkGreen.jpg,LightBlue,LightBlue.jpg,,
,,,,,,,,,,,,,,,,,,-3,,,,,,,,,,,,,,,,,,,,,,,,,,,60c1b64299f3731fc4f54169,001,2021-12-05_20h17.37.534,jm_natural_scene_simialrity_2-12-2021,2021.2.3,Win32,59.99520038,60c1b64299f3731fc4f54169,61ad71e11ddd29ccf7a27d5b,61ad7274bf929dea56137875,,,,,,-86.39994102,51.19996991,1,0,0,response7disk,1.0327,1.600060296,14.39999378,1,0,0,rectangle,1.600060296,14.39999378,1,0,0,-4,-4,"[38,23,77,4,60,42,89,64,135,15]",1.600060296,14.39999378,1,0,0,0,8,8,37,1,LightBlue,LightBlue.jpg,Pink,Pink.jpg,,
,,,,,,,,,,,,,,,,,,-4,,,,,,,,,,,,,,,,,,,,,,,,,,,60c1b64299f3731fc4f54169,001,2021-12-05_20h17.37.534,jm_natural_scene_simialrity_2-12-2021,2021.2.3,Win32,59.99520038,60c1b64299f3731fc4f54169,61ad71e11ddd29ccf7a27d5b,61ad7274bf929dea56137875,,,,,,-43.99998921,100.7999951,1,0,0,response7disk,0.9834,5.600060356,4.799993634,1,0,0,rectangle,5.600060356,4.799993634,1,0,0,-4,3,"[38,23,77,4,60,42,89,64,135,15]",5.600060356,4.799993634,1,0,0,0,9,9,79,1,Purple,Purple.jpg,DarkBlue,DarkBlue.jpg,,
,,,,,,,,,,,,,,,,,,-2,,,,,,,,,,,,,,,,,,,,,,,,,,,60c1b64299f3731fc4f54169,001,2021-12-05_20h17.37.534,jm_natural_scene_simialrity_2-12-2021,2021.2.3,Win32,59.99520038,60c1b64299f3731fc4f54169,61ad71e11ddd29ccf7a27d5b,61ad7274bf929dea56137875,,,,,,-87.99998987,-31.2000069,1,0,0,response5disk,3.3335,-11.19998872,-4.000006497,1,0,0,rectangle,-11.19998872,-4.000006497,1,0,0,-4,-1,"[38,23,77,4,60,42,89,64,135,15]",-11.19998872,-4.000006497,1,0,0,0,10,10,13,1,Yellow,Yellow.jpg,LightBlue,LightBlue.jpg,,
,,,,,,,,,,,,,,,,,,-3,,,,,,,,,,,,,,,,,,,,,,,,,,,60c1b64299f3731fc4f54169,001,2021-12-05_20h17.37.534,jm_natural_scene_simialrity_2-12-2021,2021.2.3,Win32,59.99520038,60c1b64299f3731fc4f54169,61ad71e11ddd29ccf7a27d5b,61ad7274bf929dea56137875,,,,,,-104.7999901,39.19996973,1,0,0,response7disk,2.2666,-6.399939823,11.19999373,1,0,0,rectangle,-6.399939823,11.19999373,1,0,0,-4,1,"[38,23,77,4,60,42,89,64,135,15]",-6.399939823,11.19999373,1,0,0,0,11,11,52,1,Purple,Purple.jpg,Red,Red.jpg,,
,,,,,,,,,,,,,,,,,,-4,,,,,,,,,,,,,,,,,,,,,,,,,,,60c1b64299f3731fc4f54169,001,2021-12-05_20h17.37.534,jm_natural_scene_simialrity_2-12-2021,2021.2.3,Win32,59.99520038,60c1b64299f3731fc4f54169,61ad71e11ddd29ccf7a27d5b,61ad7274bf929dea56137875,,,,,,-41.59998918,123.199971,1,0,0,response7disk,1.9668,-2.399939764,-7.200006545,1,0,0,rectangle,-2.399939764,-7.200006545,1,0,0,-4,1,"[38,23,77,4,60,42,89,64,135,15]",-2.399939764,-7.200006545,1,0,0,0,12,12,33,1,Turquiose,Turquiose.jpg,Pink,Pink.jpg,,
,,,,,,,,,,,,,,,,,,2,,,,,,,,,,,,,,,,,,,,,,,,,,,60c1b64299f3731fc4f54169,001,2021-12-05_20h17.37.534,jm_natural_scene_simialrity_2-12-2021,2021.2.3,Win32,59.99520038,60c1b64299f3731fc4f54169,61ad71e11ddd29ccf7a27d5b,61ad7274bf929dea56137875,,,,,,90.40001279,-52.00000721,1,0,0,response3disk,1.5496,23.20001179,-16.00000668,1,0,0,rectangle,23.20001179,-16.00000668,1,0,0,-4,2,"[38,23,77,4,60,42,89,64,135,15]",23.20001179,-16.00000668,1,0,0,0,13,13,63,1,DarkBlue,DarkBlue.jpg,LightGreen,LightGreen.jpg,,
,,,,,,,,,,,,,,,,,,-3,,,,,,,,,,,,,,,,,,,,,,,,,,,60c1b64299f3731fc4f54169,001,2021-12-05_20h17.37.534,jm_natural_scene_simialrity_2-12-2021,2021.2.3,Win32,59.99520038,60c1b64299f3731fc4f54169,61ad71e11ddd29ccf7a27d5b,61ad7274bf929dea56137875,,,,,,-99.19999003,44.79999423,1,0,0,response7disk,1.0833,12.00001162,-4.800006509,1,0,0,rectangle,-100.7999901,-45.60000712,1,0,0,-4,-2,"[38,23,77,4,60,42,89,64,135,15]",4.000011504,-4.000006497,1,0,0,0,14,14,54,1,DarkGreen,DarkGreen.jpg,Yellow,Yellow.jpg,response5disk_3,rectangle
,,,,,,,,,,,,,,,,,,4,,,,,,,,,,,,,,,,,,,,,,,,,,,60c1b64299f3731fc4f54169,001,2021-12-05_20h17.37.534,jm_natural_scene_simialrity_2-12-2021,2021.2.3,Win32,59.99520038,60c1b64299f3731fc4f54169,61ad71e11ddd29ccf7a27d5b,61ad7274bf929dea56137875,,,,,,40.80001205,131.1999711,1,0,0,response1disk,1.2166,4.000011504,-4.800006509,1,0,0,rectangle,4.000011504,-4.800006509,1,0,0,-4,2,"[38,23,77,4,60,42,89,64,135,15]",4.000011504,-4.800006509,1,0,0,0,15,15,42,1,Pink,Pink.jpg,Pink,Pink.jpg,,
,,,,,,,,,,,,,,,,,,3,,,,,,,,,,,,,,,,,,,,,,,,,,,60c1b64299f3731fc4f54169,001,2021-12-05_20h17.37.534,jm_natural_scene_simialrity_2-12-2021,2021.2.3,Win32,59.99520038,60c1b64299f3731fc4f54169,61ad71e11ddd29ccf7a27d5b,61ad7274bf929dea56137875,,,,,,120.8000132,41.59999418,1,0,0,response1disk,1.3166,2.40001148,-5.600006521,1,0,0,rectangle,2.40001148,-5.600006521,1,0,0,-4,2,"[38,23,77,4,60,42,89,64,135,15]",2.40001148,-5.600006521,1,0,0,0,16,16,77,1,Purple,Purple.jpg,LightBlue,LightBlue.jpg,,
,,,,,,,,,,,,,,,,,,2,,,,,,,,,,,,,,,,,,,,,,,,,,,60c1b64299f3731fc4f54169,001,2021-12-05_20h17.37.534,jm_natural_scene_simialrity_2-12-2021,2021.2.3,Win32,59.99520038,60c1b64299f3731fc4f54169,61ad71e11ddd29ccf7a27d5b,61ad7274bf929dea56137875,,,,,,88.00001276,-49.60000718,1,0,0,response3disk,1.0504,15.20001167,-1.600006461,1,0,0,rectangle,15.20001167,-1.600006461,1,0,0,-4,3,"[38,23,77,4,60,42,89,64,135,15]",15.20001167,-1.600006461,1,0,0,0,17,17,27,1,DarkGreen,DarkGreen.jpg,DarkBlue,DarkBlue.jpg,,
,,,,,,,,,,,,,,,,,,-2,,,,,,,,,,,,,,,,,,,,,,,,,,,60c1b64299f3731fc4f54169,001,2021-12-05_20h17.37.534,jm_natural_scene_simialrity_2-12-2021,2021.2.3,Win32,59.99520038,60c1b64299f3731fc4f54169,61ad71e11ddd29ccf7a27d5b,61ad7274bf929dea56137875,,,,,,-97.59999001,-60.00000733,1,0,0,response5disk,1.3667,4.800011516,1.599993587,1,0,0,rectangle,4.800011516,1.599993587,1,0,0,-4,-4,"[38,23,77,4,60,42,89,64,135,15]",4.800011516,1.599993587,1,0,0,0,18,18,29,1,DarkGreen,DarkGreen.jpg,Purple,Purple.jpg,,
,,,,,,,,,,,,,,,,,,-3,,,,,,,,,,,,,,,,,,,,,,,,,,,60c1b64299f3731fc4f54169,001,2021-12-05_20h17.37.534,jm_natural_scene_simialrity_2-12-2021,2021.2.3,Win32,59.99520038,60c1b64299f3731fc4f54169,61ad71e11ddd29ccf7a27d5b,61ad7274bf929dea56137875,,,,,,-98.39994119,65.59999454,1,0,0,response7disk,0.9138,4.800011516,-10.40000659,1,0,0,rectangle,4.800011516,-10.40000659,1,0,0,-4,-1,"[38,23,77,4,60,42,89,64,135,15]",4.800011516,-10.40000659,1,0,0,0,19,19,78,1,Pink,Pink.jpg,DarkBlue,DarkBlue.jpg,,
,,,,,,,,,,,,,,,,,,-3,,,,,,,,,,,,,,,,,,,,,,,,,,,60c1b64299f3731fc4f54169,001,2021-12-05_20h17.37.534,jm_natural_scene_simialrity_2-12-2021,2021.2.3,Win32,59.99520038,60c1b64299f3731fc4f54169,61ad71e11ddd29ccf7a27d5b,61ad7274bf929dea56137875,,,,,,-99.19999003,55.9999944,1,0,0,response7disk,1.0636,-7.999988675,-22.40000677,1,0,0,rectangle,-7.999988675,-22.40000677,1,0,0,-4,-3,"[38,23,77,4,60,42,89,64,135,15]",-7.999988675,-22.40000677,1,0,0,0,20,20,65,1,Purple,Purple.jpg,LightGreen,LightGreen.jpg,,
,,,,,,,,,,,,,,,,,,-1,,,,,,,,,,,,,,,,,,,,,,,,,,,60c1b64299f3731fc4f54169,001,2021-12-05_20h17.37.534,jm_natural_scene_simialrity_2-12-2021,2021.2.3,Win32,59.99520038,60c1b64299f3731fc4f54169,61ad71e11ddd29ccf7a27d5b,61ad7274bf929dea56137875,,,,,,-54.39994054,-126.4000083,1,0,0,response5disk,2.2001,-3.999988616,3.19999361,1,0,0,rectangle,-3.999988616,3.19999361,1,0,0,-4,3,"[38,23,77,4,60,42,89,64,135,15]",-3.999988616,3.19999361,1,0,0,0,21,21,19,1,LightGreen,LightGreen.jpg,Turquiose,Turquiose.jpg,,
,,,,,,,,,,,,,,,,,,-2,,,,,,,,,,,,,,,,,,,,,,,,,,,60c1b64299f3731fc4f54169,001,2021-12-05_20h17.37.534,jm_natural_scene_simialrity_2-12-2021,2021.2.3,Win32,59.99520038,60c1b64299f3731fc4f54169,61ad71e11ddd29ccf7a27d5b,61ad7274bf929dea56137875,,,,,,-111.9999902,-72.80000752,1,0,0,response5disk,1.3167,14.40001166,-0.800006449,1,0,0,rectangle,-65.59998953,-110.4000081,1,0,0,-1,-1,"[38,23,77,4,60,42,89,64,135,15]",4.000011504,3.999993622,1,0,0,0,22,22,32,1,Turquiose,Turquiose.jpg,DarkBlue,DarkBlue.jpg,response5disk_3,rectangle
,,,,,,,,,,,,,,,,,,2,,,,,,,,,,,,,,,,,,,,,,,,,,,60c1b64299f3731fc4f54169,001,2021-12-05_20h17.37.534,jm_natural_scene_simialrity_2-12-2021,2021.2.3,Win32,59.99520038,60c1b64299f3731fc4f54169,61ad71e11ddd29ccf7a27d5b,61ad7274bf929dea56137875,,,,,,117.6000132,-44.8000071,1,0,0,response3disk,1.7009,2.40001148,2.399993598,1,0,0,rectangle,2.40001148,2.399993598,1,0,0,-1,2,"[38,23,77,4,60,42,89,64,135,15]",2.40001148,2.399993598,1,0,0,0,23,23,21,1,LightGreen,LightGreen.jpg,DarkBlue,DarkBlue.jpg,,
,,,,,,,,,,,,,,,,,,1,,,,,,,,,,,,,,,,,,,,,,,,,,,60c1b64299f3731fc4f54169,001,2021-12-05_20h17.37.534,jm_natural_scene_simialrity_2-12-2021,2021.2.3,Win32,59.99520038,60c1b64299f3731fc4f54169,61ad71e11ddd29ccf7a27d5b,61ad7274bf929dea56137875,,,,,,56.80001229,-126.4000083,1,0,0,response3disk,1.0169,-11.99998873,11.19999373,1,0,0,rectangle,-11.99998873,11.19999373,1,0,0,-1,-3,"[38,23,77,4,60,42,89,64,135,15]",-11.99998873,11.19999373,1,0,0,0,24,24,36,1,LightBlue,LightBlue.jpg,DarkBlue,DarkBlue.jpg,,
,,,,,,,,,,,,,,,,,,-2,,,,,,,,,,,,,,,,,,,,,,,,,,,60c1b64299f3731fc4f54169,001,2021-12-05_20h17.37.534,jm_natural_scene_simialrity_2-12-2021,2021.2.3,Win32,59.99520038,60c1b64299f3731fc4f54169,61ad71e11ddd29ccf7a27d5b,61ad7274bf929dea56137875,,,,,,-93.59998995,-52.00000721,1,0,0,response5disk,1.7974,-18.39994,-4.800006509,1,0,0,rectangle,-18.39994,-4.800006509,1,0,0,-1,-1,"[38,23,77,4,60,42,89,64,135,15]",-18.39994,-4.800006509,1,0,0,0,25,25,67,1,LightBlue,LightBlue.jpg,DarkGreen,DarkGreen.jpg,,
,,,,,,,,,,,,,,,,,,-3,,,,,,,,,,,,,,,,,,,,,,,,,,,60c1b64299f3731fc4f54169,001,2021-12-05_20h17.37.534,jm_natural_scene_simialrity_2-12-2021,2021.2.3,Win32,59.99520038,60c1b64299f3731fc4f54169,61ad71e11ddd29ccf7a27d5b,61ad7274bf929dea56137875,,,,,,-88.79998988,35.9999941,1,0,0,response7disk,0.952,-1.59998858,-6.4373E-06,1,0,0,rectangle,-1.59998858,-6.4373E-06,1,0,0,-1,3,"[38,23,77,4,60,42,89,64,135,15]",-1.59998858,-6.4373E-06,1,0,0,0,26,26,80,1,Purple,Purple.jpg,Pink,Pink.jpg,,
,,,,,,,,,,,,,,,,,,-4,,,,,,,,,,,,,,,,,,,,,,,,,,,60c1b64299f3731fc4f54169,001,2021-12-05_20h17.37.534,jm_natural_scene_simialrity_2-12-2021,2021.2.3,Win32,59.99520038,60c1b64299f3731fc4f54169,61ad71e11ddd29ccf7a27d5b,61ad7274bf929dea56137875,,,,,,-35.99998909,111.1999708,1,0,0,response7disk,0.8001,-19.19998884,23.19996949,1,0,0,rectangle,-19.19998884,23.19996949,1,0,0,-4,1,"[38,23,77,4,60,42,89,64,135,15]",-19.19998884,23.19996949,1,0,0,0,27,27,6,1,Red,Red.jpg,DarkBlue,DarkBlue.jpg,,
,,,,,,,,,,,,,,,,,,-4,,,,,,,,,,,,,,,,,,,,,,,,,,,60c1b64299f3731fc4f54169,001,2021-12-05_20h17.37.534,jm_natural_scene_simialrity_2-12-2021,2021.2.3,Win32,59.99520038,60c1b64299f3731fc4f54169,61ad71e11ddd29ccf7a27d5b,61ad7274bf929dea56137875,,,,,,-42.39994036,111.9999952,1,0,0,response7disk,1.0023,1.14441E-05,-24.00000679,1,0,0,rectangle,1.14441E-05,-24.00000679,1,0,0,-4,3,"[38,23,77,4,60,42,89,64,135,15]",1.14441E-05,-24.00000679,1,0,0,0,28,28,34,1,Turquiose,Turquiose.jpg,Purple,Purple.jpg,,
,,,,,,,,,,,,,,,,,,2,,,,,,,,,,,,,,,,,,,,,,,,,,,60c1b64299f3731fc4f54169,001,2021-12-05_20h17.37.534,jm_natural_scene_simialrity_2-12-2021,2021.2.3,Win32,59.99520038,60c1b64299f3731fc4f54169,61ad71e11ddd29ccf7a27d5b,61ad7274bf929dea56137875,,,,,,108.8000131,-70.40000749,1,0,0,response3disk,1.4336,16.00001168,-12.00000662,1,0,0,rectangle,16.00001168,-12.00000662,1,0,0,-4,-3,"[38,23,77,4,60,42,89,64,135,15]",16.00001168,-12.00000662,1,0,0,0,29,29,58,1,Pink,Pink.jpg,Yellow,Yellow.jpg,,
,,,,,,,,,,,,,,,,,,2,,,,,,,,,,,,,,,,,,,,,,,,,,,60c1b64299f3731fc4f54169,001,2021-12-05_20h17.37.534,jm_natural_scene_simialrity_2-12-2021,2021.2.3,Win32,59.99520038,60c1b64299f3731fc4f54169,61ad71e11ddd29ccf7a27d5b,61ad7274bf929dea56137875,,,,,,107.200013,-48.00000715,1,0,0,response3disk,0.9705,8.000011563,22.3999939,1,0,0,rectangle,8.000011563,22.3999939,1,0,0,-4,-1,"[38,23,77,4,60,42,89,64,135,15]",8.000011563,22.3999939,1,0,0,0,30,30,68,1,DarkBlue,DarkBlue.jpg,DarkGreen,DarkGreen.jpg,,
,,,,,,,,,,,,,,,,,,1,,,,,,,,,,,,,,,,,,,,,,,,,,,60c1b64299f3731fc4f54169,001,2021-12-05_20h17.37.534,jm_natural_scene_simialrity_2-12-2021,2021.2.3,Win32,59.99520038,60c1b64299f3731fc4f54169,61ad71e11ddd29ccf7a27d5b,61ad7274bf929dea56137875,,,,,,59.20001233,-118.4000082,1,0,0,response3disk,0.6835,-2.399939764,0.799993575,1,0,0,rectangle,-2.399939764,0.799993575,1,0,0,-4,3,"[38,23,77,4,60,42,89,64,135,15]",-2.399939764,0.799993575,1,0,0,0,31,31,66,1,Turquiose,Turquiose.jpg,DarkGreen,DarkGreen.jpg,,
,,,,,,,,,,,,,,,,,,4,,,,,,,,,,,,,,,,,,,,,,,,,,,60c1b64299f3731fc4f54169,001,2021-12-05_20h17.37.534,jm_natural_scene_simialrity_2-12-2021,2021.2.3,Win32,59.99520038,60c1b64299f3731fc4f54169,61ad71e11ddd29ccf7a27d5b,61ad7274bf929dea56137875,,,,,,55.20001227,102.3999951,1,0,0,response1disk,1.1333,-3.999988616,-4.800006509,1,0,0,rectangle,-3.999988616,-4.800006509,1,0,0,-4,-4,"[38,23,77,4,60,42,89,64,135,15]",-3.999988616,-4.800006509,1,0,0,0,32,32,39,1,DarkBlue,DarkBlue.jpg,DarkBlue,DarkBlue.jpg,,
,,,,,,,,,,,,,,,,,,4,,,,,,,,,,,,,,,,,,,,,,,,,,,60c1b64299f3731fc4f54169,001,2021-12-05_20h17.37.534,jm_natural_scene_simialrity_2-12-2021,2021.2.3,Win32,59.99520038,60c1b64299f3731fc4f54169,61ad71e11ddd29ccf7a27d5b,61ad7274bf929dea56137875,,,,,,63.20001239,103.1999707,1,0,0,response1disk,0.8213,1.14441E-05,-0.800006449,1,0,0,rectangle,1.14441E-05,-0.800006449,1,0,0,-4,-3,"[38,23,77,4,60,42,89,64,135,15]",1.14441E-05,-0.800006449,1,0,0,0,33,33,0,1,Red,Red.jpg,Red,Red.jpg,,
,,,,,,,,,,,,,,,,,,-3,,,,,,,,,,,,,,,,,,,,,,,,,,,60c1b64299f3731fc4f54169,001,2021-12-05_20h17.37.534,jm_natural_scene_simialrity_2-12-2021,2021.2.3,Win32,59.99520038,60c1b64299f3731fc4f54169,61ad71e11ddd29ccf7a27d5b,61ad7274bf929dea56137875,,,,,,-77.59998971,38.39999413,1,0,0,response7disk,1.3501,7.200011551,-4.000006497,1,0,0,rectangle,7.200011551,-4.000006497,1,0,0,-4,-4,"[38,23,77,4,60,42,89,64,135,15]",7.200011551,-4.000006497,1,0,0,0,34,34,3,1,Red,Red.jpg,DarkGreen,DarkGreen.jpg,,
,,,,,,,,,,,,,,,,,,-3,,,,,,,,,,,,,,,,,,,,,,,,,,,60c1b64299f3731fc4f54169,001,2021-12-05_20h17.37.534,jm_natural_scene_simialrity_2-12-2021,2021.2.3,Win32,59.99520038,60c1b64299f3731fc4f54169,61ad71e11ddd29ccf7a27d5b,61ad7274bf929dea56137875,,,,,,-96.79999,59.19997003,1,0,0,response7disk,0.8998,22.40001178,-20.00000674,1,0,0,rectangle,22.40001178,-20.00000674,1,0,0,2,1,"[38,23,77,4,60,42,89,64,135,15]",22.40001178,-20.00000674,1,0,0,0,35,35,28,1,DarkGreen,DarkGreen.jpg,Pink,Pink.jpg,,
,,,,,,,,,,,,,,,,,,1,,,,,,,,,,,,,,,,,,,,,,,,,,,60c1b64299f3731fc4f54169,001,2021-12-05_20h17.37.534,jm_natural_scene_simialrity_2-12-2021,2021.2.3,Win32,59.99520038,60c1b64299f3731fc4f54169,61ad71e11ddd29ccf7a27d5b,61ad7274bf929dea56137875,,,,,,86.40001273,-105.6000568,1,0,0,response3disk,1.9703,-0.799988568,-2.400006473,1,0,0,rectangle,-0.799988568,-2.400006473,1,0,0,2,3,"[38,23,77,4,60,42,89,64,135,15]",-0.799988568,-2.400006473,1,0,0,0,36,36,75,1,DarkBlue,DarkBlue.jpg,LightBlue,LightBlue.jpg,,
,,,,,,,,,,,,,,,,,,3,,,,,,,,,,,,,,,,,,,,,,,,,,,60c1b64299f3731fc4f54169,001,2021-12-05_20h17.37.534,jm_natural_scene_simialrity_2-12-2021,2021.2.3,Win32,59.99520038,60c1b64299f3731fc4f54169,61ad71e11ddd29ccf7a27d5b,61ad7274bf929dea56137875,,,,,,105.600013,36.79999411,1,0,0,response1disk,0.9836,-20.79998887,-11.2000066,1,0,0,rectangle,-56.7999894,-133.6000573,1,0,0,-1,-1,"[38,23,77,4,60,42,89,64,135,15]",2.40001148,17.59999382,1,0,0,0,37,37,45,1,Yellow,Yellow.jpg,Red,Red.jpg,response5disk_3,rectangle
,,,,,,,,,,,,,,,,,,-3,,,,,,,,,,,,,,,,,,,,,,,,,,,60c1b64299f3731fc4f54169,001,2021-12-05_20h17.37.534,jm_natural_scene_simialrity_2-12-2021,2021.2.3,Win32,59.99520038,60c1b64299f3731fc4f54169,61ad71e11ddd29ccf7a27d5b,61ad7274bf929dea56137875,,,,,,-130.3999417,43.19996979,1,0,0,response7disk,1.7996,1.600060296,-8.000006557,1,0,0,rectangle,1.600060296,-8.000006557,1,0,0,-1,-1,"[38,23,77,4,60,42,89,64,135,15]",1.600060296,-8.000006557,1,0,0,0,38,38,20,1,LightGreen,LightGreen.jpg,LightBlue,LightBlue.jpg,,
,,,,,,,,,,,,,,,,,,-3,,,,,,,,,,,,,,,,,,,,,,,,,,,60c1b64299f3731fc4f54169,001,2021-12-05_20h17.37.534,jm_natural_scene_simialrity_2-12-2021,2021.2.3,Win32,59.99520038,60c1b64299f3731fc4f54169,61ad71e11ddd29ccf7a27d5b,61ad7274bf929dea56137875,,,,,,-75.19998968,36.79999411,1,0,0,response7disk,0.7832,-18.39994,5.599993646,1,0,0,rectangle,-18.39994,5.599993646,1,0,0,-1,-3,"[38,23,77,4,60,42,89,64,135,15]",-18.39994,5.599993646,1,0,0,0,39,39,46,1,LightGreen,LightGreen.jpg,Red,Red.jpg,,
,,,,,,,,,,,,,,,,,,-3,,,,,,,,,,,,,,,,,,,,,,,,,,,60c1b64299f3731fc4f54169,001,2021-12-05_20h17.37.534,jm_natural_scene_simialrity_2-12-2021,2021.2.3,Win32,59.99520038,60c1b64299f3731fc4f54169,61ad71e11ddd29ccf7a27d5b,61ad7274bf929dea56137875,,,,,,-91.99998993,45.59999424,1,0,0,response7disk,0.613,0.800011456,5.599993646,1,0,0,rectangle,0.800011456,5.599993646,1,0,0,-1,-2,"[38,23,77,4,60,42,89,64,135,15]",0.800011456,5.599993646,1,0,0,0,40,40,2,1,Red,Red.jpg,LightGreen,LightGreen.jpg,,
,,,,,,,,,,,,,,,,,,4,,,,,,,,,,,,,,,,,,,,,,,,,,,60c1b64299f3731fc4f54169,001,2021-12-05_20h17.37.534,jm_natural_scene_simialrity_2-12-2021,2021.2.3,Win32,59.99520038,60c1b64299f3731fc4f54169,61ad71e11ddd29ccf7a27d5b,61ad7274bf929dea56137875,,,,,,70.40001249,107.1999707,1,0,0,response1disk,0.867,-0.799988568,-8.000006557,1,0,0,rectangle,103.200013,-41.60000706,1,0,0,2,2,"[38,23,77,4,60,42,89,64,135,15]",-1.59998858,5.599993646,1,0,0,0,41,41,24,1,DarkGreen,DarkGreen.jpg,DarkGreen,DarkGreen.jpg,response3disk_3,rectangle
,,,,,,,,,,,,,,,,,,-3,,,,,,,,,,,,,,,,,,,,,,,,,,,60c1b64299f3731fc4f54169,001,2021-12-05_20h17.37.534,jm_natural_scene_simialrity_2-12-2021,2021.2.3,Win32,59.99520038,60c1b64299f3731fc4f54169,61ad71e11ddd29ccf7a27d5b,61ad7274bf929dea56137875,,,,,,-110.3999414,55.19996997,1,0,0,response7disk,1.2334,6.400011539,-5.600006521,1,0,0,rectangle,6.400011539,-5.600006521,1,0,0,2,3,"[38,23,77,4,60,42,89,64,135,15]",6.400011539,-5.600006521,1,0,0,0,42,42,61,1,Turquiose,Turquiose.jpg,LightGreen,LightGreen.jpg,,
,,,,,,,,,,,,,,,,,,4,,,,,,,,,,,,,,,,,,,,,,,,,,,60c1b64299f3731fc4f54169,001,2021-12-05_20h17.37.534,jm_natural_scene_simialrity_2-12-2021,2021.2.3,Win32,59.99520038,60c1b64299f3731fc4f54169,61ad71e11ddd29ccf7a27d5b,61ad7274bf929dea56137875,,,,,,41.60006089,114.3999953,1,0,0,response1disk,0.9498,-11.19998872,0.799993575,1,0,0,rectangle,-11.19998872,0.799993575,1,0,0,2,-1,"[38,23,77,4,60,42,89,64,135,15]",-11.19998872,0.799993575,1,0,0,0,43,43,51,1,Pink,Pink.jpg,Red,Red.jpg,,
,,,,,,,,,,,,,,,,,,-3,,,,,,,,,,,,,,,,,,,,,,,,,,,60c1b64299f3731fc4f54169,001,2021-12-05_20h17.37.534,jm_natural_scene_simialrity_2-12-2021,2021.2.3,Win32,59.99520038,60c1b64299f3731fc4f54169,61ad71e11ddd29ccf7a27d5b,61ad7274bf929dea56137875,,,,,,-117.5999903,67.19997015,1,0,0,response7disk,1.3999,0.800011456,-20.80000675,1,0,0,rectangle,0.800011456,-20.80000675,1,0,0,2,-4,"[38,23,77,4,60,42,89,64,135,15]",0.800011456,-20.80000675,1,0,0,0,44,44,5,1,Red,Red.jpg,LightBlue,LightBlue.jpg,,
,,,,,,,,,,,,,,,,,,4,,,,,,,,,,,,,,,,,,,,,,,,,,,60c1b64299f3731fc4f54169,001,2021-12-05_20h17.37.534,jm_natural_scene_simialrity_2-12-2021,2021.2.3,Win32,59.99520038,60c1b64299f3731fc4f54169,61ad71e11ddd29ccf7a27d5b,61ad7274bf929dea56137875,,,,,,46.40001214,108.7999952,1,0,0,response1disk,0.8117,1.14441E-05,1.599993587,1,0,0,rectangle,1.14441E-05,1.599993587,1,0,0,2,-3,"[38,23,77,4,60,42,89,64,135,15]",1.14441E-05,1.599993587,1,0,0,0,45,45,35,1,LightBlue,LightBlue.jpg,LightBlue,LightBlue.jpg,,
,,,,,,,,,,,,,,,,,,-2,,,,,,,,,,,,,,,,,,,,,,,,,,,60c1b64299f3731fc4f54169,001,2021-12-05_20h17.37.534,jm_natural_scene_simialrity_2-12-2021,2021.2.3,Win32,59.99520038,60c1b64299f3731fc4f54169,61ad71e11ddd29ccf7a27d5b,61ad7274bf929dea56137875,,,,,,-58.3999406,-27.20000684,1,0,0,response5disk,2.0167,-7.199988663,3.19999361,1,0,0,rectangle,-7.199988663,3.19999361,1,0,0,2,-3,"[38,23,77,4,60,42,89,64,135,15]",-7.199988663,3.19999361,1,0,0,0,46,46,73,1,Pink,Pink.jpg,Turquiose,Turquiose.jpg,,
,,,,,,,,,,,,,,,,,,-2,,,,,,,,,,,,,,,,,,,,,,,,,,,60c1b64299f3731fc4f54169,001,2021-12-05_20h17.37.534,jm_natural_scene_simialrity_2-12-2021,2021.2.3,Win32,59.99520038,60c1b64299f3731fc4f54169,61ad71e11ddd29ccf7a27d5b,61ad7274bf929dea56137875,,,,,,-75.99998969,-28.80000687,1,0,0,response5disk,0.8304,-3.999988616,-8.000006557,1,0,0,rectangle,-3.999988616,-8.000006557,1,0,0,2,3,"[38,23,77,4,60,42,89,64,135,15]",-3.999988616,-8.000006557,1,0,0,0,47,47,4,1,Red,Red.jpg,Turquiose,Turquiose.jpg,,
,,,,,,,,,,,,,,,,,,-3,,,,,,,,,,,,,,,,,,,,,,,,,,,60c1b64299f3731fc4f54169,001,2021-12-05_20h17.37.534,jm_natural_scene_simialrity_2-12-2021,2021.2.3,Win32,59.99520038,60c1b64299f3731fc4f54169,61ad71e11ddd29ccf7a27d5b,61ad7274bf929dea56137875,,,,,,-79.19998974,39.19996973,1,0,0,response7disk,0.95,1.600060296,-0.800006449,1,0,0,rectangle,1.600060296,-0.800006449,1,0,0,2,-4,"[38,23,77,4,60,42,89,64,135,15]",1.600060296,-0.800006449,1,0,0,0,48,48,25,1,DarkGreen,DarkGreen.jpg,Turquiose,Turquiose.jpg,,
,,,,,,,,,,,,,,,,,,4,,,,,,,,,,,,,,,,,,,,,,,,,,,60c1b64299f3731fc4f54169,001,2021-12-05_20h17.37.534,jm_natural_scene_simialrity_2-12-2021,2021.2.3,Win32,59.99520038,60c1b64299f3731fc4f54169,61ad71e11ddd29ccf7a27d5b,61ad7274bf929dea56137875,,,,,,45.60006095,86.39999485,1,0,0,response1disk,0.7499,13.60006047,20.79999387,1,0,0,rectangle,13.60006047,20.79999387,1,0,0,2,-1,"[38,23,77,4,60,42,89,64,135,15]",13.60006047,20.79999387,1,0,0,0,49,49,9,1,Yellow,Yellow.jpg,Yellow,Yellow.jpg,,
,,,,,,,,,,,,,,,,,,4,,,,,,,,,,,,,,,,,,,,,,,,,,,60c1b64299f3731fc4f54169,001,2021-12-05_20h17.37.534,jm_natural_scene_simialrity_2-12-2021,2021.2.3,Win32,59.99520038,60c1b64299f3731fc4f54169,61ad71e11ddd29ccf7a27d5b,61ad7274bf929dea56137875,,,,,,36.80001199,108.7999952,1,0,0,response1disk,0.6522,-1.59998858,-4.800006509,1,0,0,rectangle,-1.59998858,-4.800006509,1,0,0,2,2,"[38,23,77,4,60,42,89,64,135,15]",-1.59998858,-4.800006509,1,0,0,0,50,50,17,1,LightGreen,LightGreen.jpg,LightGreen,LightGreen.jpg,,
,,,,,,,,,,,,,,,,,,-3,,,,,,,,,,,,,,,,,,,,,,,,,,,60c1b64299f3731fc4f54169,001,2021-12-05_20h17.37.534,jm_natural_scene_simialrity_2-12-2021,2021.2.3,Win32,59.99520038,60c1b64299f3731fc4f54169,61ad71e11ddd29ccf7a27d5b,61ad7274bf929dea56137875,,,,,,-112.7999902,60.79999447,1,0,0,response7disk,1.4164,-4.799988627,-5.600006521,1,0,0,rectangle,-4.799988627,-5.600006521,1,0,0,2,2,"[38,23,77,4,60,42,89,64,135,15]",-4.799988627,-5.600006521,1,0,0,0,51,51,8,1,Red,Red.jpg,Purple,Purple.jpg,,
,,,,,,,,,,,,,,,,,,-3,,,,,,,,,,,,,,,,,,,,,,,,,,,60c1b64299f3731fc4f54169,001,2021-12-05_20h17.37.534,jm_natural_scene_simialrity_2-12-2021,2021.2.3,Win32,59.99520038,60c1b64299f3731fc4f54169,61ad71e11ddd29ccf7a27d5b,61ad7274bf929dea56137875,,,,,,-83.1999898,38.39999413,1,0,0,response7disk,0.7307,-14.39993994,5.599993646,1,0,0,rectangle,-14.39993994,5.599993646,1,0,0,2,2,"[38,23,77,4,60,42,89,64,135,15]",-14.39993994,5.599993646,1,0,0,0,52,52,74,1,Purple,Purple.jpg,Turquiose,Turquiose.jpg,,
,,,,,,,,,,,,,,,,,,-3,,,,,,,,,,,,,,,,,,,,,,,,,,,60c1b64299f3731fc4f54169,001,2021-12-05_20h17.37.534,jm_natural_scene_simialrity_2-12-2021,2021.2.3,Win32,59.99520038,60c1b64299f3731fc4f54169,61ad71e11ddd29ccf7a27d5b,61ad7274bf929dea56137875,,,,,,-118.3999415,40.79999417,1,0,0,response7disk,0.9682,1.14441E-05,-0.800006449,1,0,0,rectangle,1.14441E-05,-0.800006449,1,0,0,2,-4,"[38,23,77,4,60,42,89,64,135,15]",1.14441E-05,-0.800006449,1,0,0,0,53,53,56,1,LightBlue,LightBlue.jpg,Yellow,Yellow.jpg,,
,,,,,,,,,,,,,,,,,,-3,,,,,,,,,,,,,,,,,,,,,,,,,,,60c1b64299f3731fc4f54169,001,2021-12-05_20h17.37.534,jm_natural_scene_simialrity_2-12-2021,2021.2.3,Win32,59.99520038,60c1b64299f3731fc4f54169,61ad71e11ddd29ccf7a27d5b,61ad7274bf929dea56137875,,,,,,-88.79998988,40.79999417,1,0,0,response7disk,0.8,-3.199988604,6.399993658,1,0,0,rectangle,-3.199988604,6.399993658,1,0,0,2,-4,"[38,23,77,4,60,42,89,64,135,15]",-3.199988604,6.399993658,1,0,0,0,54,54,62,1,LightBlue,LightBlue.jpg,LightGreen,LightGreen.jpg,,
,,,,,,,,,,,,,,,,,,-4,,,,,,,,,,,,,,,,,,,,,,,,,,,60c1b64299f3731fc4f54169,001,2021-12-05_20h17.37.534,jm_natural_scene_simialrity_2-12-2021,2021.2.3,Win32,59.99520038,60c1b64299f3731fc4f54169,61ad71e11ddd29ccf7a27d5b,61ad7274bf929dea56137875,,,,,,-44.79998922,87.19997045,1,0,0,response7disk,0.7001,-0.799988568,8.799993694,1,0,0,rectangle,-0.799988568,8.799993694,1,0,0,2,-3,"[38,23,77,4,60,42,89,64,135,15]",-0.799988568,8.799993694,1,0,0,0,55,55,22,1,LightGreen,LightGreen.jpg,Pink,Pink.jpg,,
,,,,,,,,,,,,,,,,,,-4,,,,,,,,,,,,,,,,,,,,,,,,,,,60c1b64299f3731fc4f54169,001,2021-12-05_20h17.37.534,jm_natural_scene_simialrity_2-12-2021,2021.2.3,Win32,59.99520038,60c1b64299f3731fc4f54169,61ad71e11ddd29ccf7a27d5b,61ad7274bf929dea56137875,,,,,,-45.59998924,135.9999956,1,0,0,response7disk,0.6338,2.40001148,-21.60000676,1,0,0,rectangle,2.40001148,-21.60000676,1,0,0,2,-2,"[38,23,77,4,60,42,89,64,135,15]",2.40001148,-21.60000676,1,0,0,0,56,56,48,1,Turquiose,Turquiose.jpg,Red,Red.jpg,,
,,,,,,,,,,,,,,,,,,-4,,,,,,,,,,,,,,,,,,,,,,,,,,,60c1b64299f3731fc4f54169,001,2021-12-05_20h17.37.534,jm_natural_scene_simialrity_2-12-2021,2021.2.3,Win32,59.99520038,60c1b64299f3731fc4f54169,61ad71e11ddd29ccf7a27d5b,61ad7274bf929dea56137875,,,,,,-54.39994054,95.99999499,1,0,0,response7disk,0.8999,0.800011456,0.799993575,1,0,0,rectangle,0.800011456,0.799993575,1,0,0,2,2,"[38,23,77,4,60,42,89,64,135,15]",0.800011456,0.799993575,1,0,0,0,57,57,53,1,LightGreen,LightGreen.jpg,Yellow,Yellow.jpg,,
,,,,,,,,,,,,,,,,,,-3,,,,,,,,,,,,,,,,,,,,,,,,,,,60c1b64299f3731fc4f54169,001,2021-12-05_20h17.37.534,jm_natural_scene_simialrity_2-12-2021,2021.2.3,Win32,59.99520038,60c1b64299f3731fc4f54169,61ad71e11ddd29ccf7a27d5b,61ad7274bf929dea56137875,,,,,,-77.59998971,32.79999405,1,0,0,response7disk,0.7207,-15.99998879,7.19999367,1,0,0,rectangle,-15.99998879,7.19999367,1,0,0,2,3,"[38,23,77,4,60,42,89,64,135,15]",-15.99998879,7.19999367,1,0,0,0,58,58,76,1,Pink,Pink.jpg,LightBlue,LightBlue.jpg,,
,,,,,,,,,,,,,,,,,,3,,,,,,,,,,,,,,,,,,,,,,,,,,,60c1b64299f3731fc4f54169,001,2021-12-05_20h17.37.534,jm_natural_scene_simialrity_2-12-2021,2021.2.3,Win32,59.99520038,60c1b64299f3731fc4f54169,61ad71e11ddd29ccf7a27d5b,61ad7274bf929dea56137875,,,,,,81.60001266,46.39999425,1,0,0,response1disk,1.0339,-15.99998879,15.19999379,1,0,0,rectangle,-108.7999902,31.19996961,1,0,0,-3,-3,"[38,23,77,4,60,42,89,64,135,15]",12.00001162,15.19999379,1,0,0,0,59,59,18,1,LightGreen,LightGreen.jpg,DarkGreen,DarkGreen.jpg,response7disk_3,rectangle
,,,,,,,,,,,,,,,,,,-2,,,,,,,,,,,,,,,,,,,,,,,,,,,60c1b64299f3731fc4f54169,001,2021-12-05_20h17.37.534,jm_natural_scene_simialrity_2-12-2021,2021.2.3,Win32,59.99520038,60c1b64299f3731fc4f54169,61ad71e11ddd29ccf7a27d5b,61ad7274bf929dea56137875,,,,,,-79.19998974,-38.40000701,1,0,0,response5disk,1.0168,-14.39993994,-22.40000677,1,0,0,rectangle,-14.39993994,-22.40000677,1,0,0,-3,-1,"[38,23,77,4,60,42,89,64,135,15]",-14.39993994,-22.40000677,1,0,0,0,60,60,71,1,LightBlue,LightBlue.jpg,Turquiose,Turquiose.jpg,,
,,,,,,,,,,,,,,,,,,-2,,,,,,,,,,,,,,,,,,,,,,,,,,,60c1b64299f3731fc4f54169,001,2021-12-05_20h17.37.534,jm_natural_scene_simialrity_2-12-2021,2021.2.3,Win32,59.99520038,60c1b64299f3731fc4f54169,61ad71e11ddd29ccf7a27d5b,61ad7274bf929dea56137875,,,,,,-79.19998974,-39.20000702,1,0,0,response5disk,0.7331,-16.79998881,-12.00000662,1,0,0,rectangle,-16.79998881,-12.00000662,1,0,0,-3,-1,"[38,23,77,4,60,42,89,64,135,15]",-16.79998881,-12.00000662,1,0,0,0,61,61,55,1,Turquiose,Turquiose.jpg,Yellow,Yellow.jpg,,
,,,,,,,,,,,,,,,,,,4,,,,,,,,,,,,,,,,,,,,,,,,,,,60c1b64299f3731fc4f54169,001,2021-12-05_20h17.37.534,jm_natural_scene_simialrity_2-12-2021,2021.2.3,Win32,59.99520038,60c1b64299f3731fc4f54169,61ad71e11ddd29ccf7a27d5b,61ad7274bf929dea56137875,,,,,,36.00001198,79.19997033,1,0,0,response1disk,0.8498,1.600060296,12.79999375,1,0,0,rectangle,1.600060296,12.79999375,1,0,0,-3,-4,"[38,23,77,4,60,42,89,64,135,15]",1.600060296,12.79999375,1,0,0,0,62,62,60,1,DarkGreen,DarkGreen.jpg,LightGreen,LightGreen.jpg,,
,,,,,,,,,,,,,,,,,,2,,,,,,,,,,,,,,,,,,,,,,,,,,,60c1b64299f3731fc4f54169,001,2021-12-05_20h17.37.534,jm_natural_scene_simialrity_2-12-2021,2021.2.3,Win32,59.99520038,60c1b64299f3731fc4f54169,61ad71e11ddd29ccf7a27d5b,61ad7274bf929dea56137875,,,,,,101.600013,-62.40000737,1,0,0,response3disk,1.5038,0.800011456,-5.600006521,1,0,0,rectangle,99.20001292,-23.20000678,1,0,0,2,2,"[38,23,77,4,60,42,89,64,135,15]",-22.39994006,-3.200006485,1,0,0,0,63,63,23,1,LightGreen,LightGreen.jpg,Purple,Purple.jpg,response3disk_3,rectangle
,,,,,,,,,,,,,,,,,,-2,,,,,,,,,,,,,,,,,,,,,,,,,,,60c1b64299f3731fc4f54169,001,2021-12-05_20h17.37.534,jm_natural_scene_simialrity_2-12-2021,2021.2.3,Win32,59.99520038,60c1b64299f3731fc4f54169,61ad71e11ddd29ccf7a27d5b,61ad7274bf929dea56137875,,,,,,-95.99998999,-38.40000701,1,0,0,response5disk,0.9332,-10.39993988,-24.00000679,1,0,0,rectangle,-10.39993988,-24.00000679,1,0,0,2,-4,"[38,23,77,4,60,42,89,64,135,15]",-10.39993988,-24.00000679,1,0,0,0,64,64,31,1,Turquiose,Turquiose.jpg,LightBlue,LightBlue.jpg,,
,,,,,,,,,,,,,,,,,,2,,,,,,,,,,,,,,,,,,,,,,,,,,,60c1b64299f3731fc4f54169,001,2021-12-05_20h17.37.534,jm_natural_scene_simialrity_2-12-2021,2021.2.3,Win32,59.99520038,60c1b64299f3731fc4f54169,61ad71e11ddd29ccf7a27d5b,61ad7274bf929dea56137875,,,,,,100.8000129,-29.60000688,1,0,0,response3disk,0.5667,4.000011504,-6.4373E-06,1,0,0,rectangle,4.000011504,-6.4373E-06,1,0,0,2,-2,"[38,23,77,4,60,42,89,64,135,15]",4.000011504,-6.4373E-06,1,0,0,0,65,65,12,1,Yellow,Yellow.jpg,Turquiose,Turquiose.jpg,,
,,,,,,,,,,,,,,,,,,-4,,,,,,,,,,,,,,,,,,,,,,,,,,,60c1b64299f3731fc4f54169,001,2021-12-05_20h17.37.534,jm_natural_scene_simialrity_2-12-2021,2021.2.3,Win32,59.99520038,60c1b64299f3731fc4f54169,61ad71e11ddd29ccf7a27d5b,61ad7274bf929dea56137875,,,,,,-49.5999893,76.79999471,1,0,0,response7disk,1.3,4.000011504,-16.00000668,1,0,0,rectangle,4.000011504,-16.00000668,1,0,0,2,-1,"[38,23,77,4,60,42,89,64,135,15]",4.000011504,-16.00000668,1,0,0,0,66,66,11,1,Yellow,Yellow.jpg,DarkGreen,DarkGreen.jpg,,
,,,,,,,,,,,,,,,,,,4,,,,,,,,,,,,,,,,,,,,,,,,,,,60c1b64299f3731fc4f54169,001,2021-12-05_20h17.37.534,jm_natural_scene_simialrity_2-12-2021,2021.2.3,Win32,59.99520038,60c1b64299f3731fc4f54169,61ad71e11ddd29ccf7a27d5b,61ad7274bf929dea56137875,,,,,,47.20001215,114.3999953,1,0,0,response1disk,1.2009,22.40001178,19.99999386,1,0,0,rectangle,22.40001178,19.99999386,1,0,0,3,2,"[38,23,77,4,60,42,89,64,135,15]",22.40001178,19.99999386,1,0,0,0,67,67,30,1,Turquiose,Turquiose.jpg,Turquiose,Turquiose.jpg,,
,,,,,,,,,,,,,,,,,,-3,,,,,,,,,,,,,,,,,,,,,,,,,,,60c1b64299f3731fc4f54169,001,2021-12-05_20h17.37.534,jm_natural_scene_simialrity_2-12-2021,2021.2.3,Win32,59.99520038,60c1b64299f3731fc4f54169,61ad71e11ddd29ccf7a27d5b,61ad7274bf929dea56137875,,,,,,-100.7999901,24.79999393,1,0,0,response7disk,0.8999,10.4000116,10.39999372,1,0,0,rectangle,10.4000116,10.39999372,1,0,0,3,-2,"[38,23,77,4,60,42,89,64,135,15]",10.4000116,10.39999372,1,0,0,0,68,68,14,1,Yellow,Yellow.jpg,DarkBlue,DarkBlue.jpg,,
,,,,,,,,,,,,,,,,,,3,,,,,,,,,,,,,,,,,,,,,,,,,,,60c1b64299f3731fc4f54169,001,2021-12-05_20h17.37.534,jm_natural_scene_simialrity_2-12-2021,2021.2.3,Win32,59.99520038,60c1b64299f3731fc4f54169,61ad71e11ddd29ccf7a27d5b,61ad7274bf929dea56137875,,,,,,75.20001256,47.99999428,1,0,0,response1disk,1.7035,-7.199988663,1.599993587,1,0,0,rectangle,-7.199988663,1.599993587,1,0,0,3,1,"[38,23,77,4,60,42,89,64,135,15]",-7.199988663,1.599993587,1,0,0,0,69,69,1,1,Red,Red.jpg,Yellow,Yellow.jpg,,
,,,,,,,,,,,,,,,,,,-3,,,,,,,,,,,,,,,,,,,,,,,,,,,60c1b64299f3731fc4f54169,001,2021-12-05_20h17.37.534,jm_natural_scene_simialrity_2-12-2021,2021.2.3,Win32,59.99520038,60c1b64299f3731fc4f54169,61ad71e11ddd29ccf7a27d5b,61ad7274bf929dea56137875,,,,,,-100.7999901,45.59999424,1,0,0,response7disk,1.4502,-11.99998873,11.19999373,1,0,0,rectangle,-11.99998873,11.19999373,1,0,0,3,-4,"[38,23,77,4,60,42,89,64,135,15]",-11.99998873,11.19999373,1,0,0,0,70,70,16,1,Yellow,Yellow.jpg,Purple,Purple.jpg,,
,,,,,,,,,,,,,,,,,,-3,,,,,,,,,,,,,,,,,,,,,,,,,,,60c1b64299f3731fc4f54169,001,2021-12-05_20h17.37.534,jm_natural_scene_simialrity_2-12-2021,2021.2.3,Win32,59.99520038,60c1b64299f3731fc4f54169,61ad71e11ddd29ccf7a27d5b,61ad7274bf929dea56137875,,,,,,-91.19998991,38.39999413,1,0,0,response7disk,0.9501,11.20001161,-8.000006557,1,0,0,rectangle,11.20001161,-8.000006557,1,0,0,3,-1,"[38,23,77,4,60,42,89,64,135,15]",11.20001161,-8.000006557,1,0,0,0,71,71,49,1,LightBlue,LightBlue.jpg,Red,Red.jpg,,
,,,,,,,,,,,,,,,,,,-4,,,,,,,,,,,,,,,,,,,,,,,,,,,60c1b64299f3731fc4f54169,001,2021-12-05_20h17.37.534,jm_natural_scene_simialrity_2-12-2021,2021.2.3,Win32,59.99520038,60c1b64299f3731fc4f54169,61ad71e11ddd29ccf7a27d5b,61ad7274bf929dea56137875,,,,,,-54.39994054,94.39999497,1,0,0,response7disk,1.2332,-16.79998881,-6.400006533,1,0,0,rectangle,-16.79998881,-6.400006533,1,0,0,3,-1,"[38,23,77,4,60,42,89,64,135,15]",-16.79998881,-6.400006533,1,0,0,0,72,72,57,1,DarkBlue,DarkBlue.jpg,Yellow,Yellow.jpg,,
,,,,,,,,,,,,,,,,,,-3,,,,,,,,,,,,,,,,,,,,,,,,,,,60c1b64299f3731fc4f54169,001,2021-12-05_20h17.37.534,jm_natural_scene_simialrity_2-12-2021,2021.2.3,Win32,59.99520038,60c1b64299f3731fc4f54169,61ad71e11ddd29ccf7a27d5b,61ad7274bf929dea56137875,,,,,,-95.99998999,27.99999398,1,0,0,response7disk,1.1665,-12.79998875,-8.000006557,1,0,0,rectangle,-12.79998875,-8.000006557,1,0,0,3,3,"[38,23,77,4,60,42,89,64,135,15]",-12.79998875,-8.000006557,1,0,0,0,73,73,40,1,DarkBlue,DarkBlue.jpg,Pink,Pink.jpg,,
,,,,,,,,,,,,,,,,,,-2,,,,,,,,,,,,,,,,,,,,,,,,,,,60c1b64299f3731fc4f54169,001,2021-12-05_20h17.37.534,jm_natural_scene_simialrity_2-12-2021,2021.2.3,Win32,59.99520038,60c1b64299f3731fc4f54169,61ad71e11ddd29ccf7a27d5b,61ad7274bf929dea56137875,,,,,,-106.3999413,-58.40000731,1,0,0,response5disk,24.8165,-9.599988699,0.799993575,1,0,0,rectangle,-9.599988699,0.799993575,1,0,0,3,3,"[38,23,77,4,60,42,89,64,135,15]",-9.599988699,0.799993575,1,0,0,0,74,74,70,1,Purple,Purple.jpg,DarkGreen,DarkGreen.jpg,,
,,,,,,,,,,,,,,,,,,3,,,,,,,,,,,,,,,,,,,,,,,,,,,60c1b64299f3731fc4f54169,001,2021-12-05_20h17.37.534,jm_natural_scene_simialrity_2-12-2021,2021.2.3,Win32,59.99520038,60c1b64299f3731fc4f54169,61ad71e11ddd29ccf7a27d5b,61ad7274bf929dea56137875,,,,,,105.600013,40.79999417,1,0,0,response1disk,1.2833,-20.79998887,-8.800006568,1,0,0,rectangle,-20.79998887,-8.800006568,1,0,0,3,-3,"[38,23,77,4,60,42,89,64,135,15]",-20.79998887,-8.800006568,1,0,0,0,75,75,15,1,Yellow,Yellow.jpg,Pink,Pink.jpg,,
,,,,,,,,,,,,,,,,,,4,,,,,,,,,,,,,,,,,,,,,,,,,,,60c1b64299f3731fc4f54169,001,2021-12-05_20h17.37.534,jm_natural_scene_simialrity_2-12-2021,2021.2.3,Win32,59.99520038,60c1b64299f3731fc4f54169,61ad71e11ddd29ccf7a27d5b,61ad7274bf929dea56137875,,,,,,52.80001223,98.39999503,1,0,0,response1disk,1.0167,12.80001163,8.799993694,1,0,0,rectangle,98.40001291,-42.40000707,1,0,0,2,2,"[38,23,77,4,60,42,89,64,135,15]",-7.199988663,-2.400006473,1,0,0,0,76,76,44,1,Purple,Purple.jpg,Purple,Purple.jpg,response3disk_3,rectangle
,,,,,,,,,,,,,,,,,,3,,,,,,,,,,,,,,,,,,,,,,,,,,,60c1b64299f3731fc4f54169,001,2021-12-05_20h17.37.534,jm_natural_scene_simialrity_2-12-2021,2021.2.3,Win32,59.99520038,60c1b64299f3731fc4f54169,61ad71e11ddd29ccf7a27d5b,61ad7274bf929dea56137875,,,,,,115.2000132,47.99999428,1,0,0,response1disk,2.5332,-14.39993994,-7.200006545,1,0,0,rectangle,-14.39993994,-7.200006545,1,0,0,2,-2,"[38,23,77,4,60,42,89,64,135,15]",-14.39993994,-7.200006545,1,0,0,0,77,77,43,1,Pink,Pink.jpg,Purple,Purple.jpg,,
,,,,,,,,,,,,,,,,,,1,,,,,,,,,,,,,,,,,,,,,,,,,,,60c1b64299f3731fc4f54169,001,2021-12-05_20h17.37.534,jm_natural_scene_simialrity_2-12-2021,2021.2.3,Win32,59.99520038,60c1b64299f3731fc4f54169,61ad71e11ddd29ccf7a27d5b,61ad7274bf929dea56137875,,,,,,44.0000121,-114.4000081,1,0,0,response3disk,4.5505,1.600060296,12.79999375,1,0,0,rectangle,1.600060296,12.79999375,1,0,0,2,-3,"[38,23,77,4,60,42,89,64,135,15]",1.600060296,12.79999375,1,0,0,0,78,78,59,1,Purple,Purple.jpg,Yellow,Yellow.jpg,,
,,,,,,,,,,,,,,,,,,1,,,,,,,,,,,,,,,,,,,,,,,,,,,60c1b64299f3731fc4f54169,001,2021-12-05_20h17.37.534,jm_natural_scene_simialrity_2-12-2021,2021.2.3,Win32,59.99520038,60c1b64299f3731fc4f54169,61ad71e11ddd29ccf7a27d5b,61ad7274bf929dea56137875,,,,,,35.20001197,-113.600057,1,0,0,response3disk,1.583,5.600060356,13.59999377,1,0,0,rectangle,5.600060356,13.59999377,1,0,0,2,-4,"[38,23,77,4,60,42,89,64,135,15]",5.600060356,13.59999377,1,0,0,0,79,79,50,1,DarkBlue,DarkBlue.jpg,Red,Red.jpg,,
,,,,,,,,,,,,,,,,,,1,,,,,,,,,,,,,,,,,,,,,,,,,,,60c1b64299f3731fc4f54169,001,2021-12-05_20h17.37.534,jm_natural_scene_simialrity_2-12-2021,2021.2.3,Win32,59.99520038,60c1b64299f3731fc4f54169,61ad71e11ddd29ccf7a27d5b,61ad7274bf929dea56137875,,,,,,44.80001211,-124.0000083,1,0,0,response3disk,1.4199,-5.599988639,13.59999377,1,0,0,rectangle,-5.599988639,13.59999377,1,0,0,2,-3,"[38,23,77,4,60,42,89,64,135,15]",-5.599988639,13.59999377,1,0,0,0,80,80,41,1,DarkBlue,DarkBlue.jpg,Purple,Purple.jpg,,
,,,,,,,,,,,,,,,,,,2,,,,,,,,,,,,,,,,,,,,,,,,,,,60c1b64299f3731fc4f54169,001,2021-12-05_20h17.37.534,jm_natural_scene_simialrity_2-12-2021,2021.2.3,Win32,59.99520038,60c1b64299f3731fc4f54169,61ad71e11ddd29ccf7a27d5b,61ad7274bf929dea56137875,,,,,,86.40001273,-58.40000731,1,0,0,response3disk,1.1001,7.200011551,14.39999378,1,0,0,rectangle,7.200011551,14.39999378,1,0,0,2,2,"[38,23,77,4,60,42,89,64,135,15]",7.200011551,14.39999378,1,0,0,1,0,81,61,1,Turquiose,Turquiose.jpg,LightGreen,LightGreen.jpg,,
,,,,,,,,,,,,,,,,,,2,,,,,,,,,,,,,,,,,,,,,,,,,,,60c1b64299f3731fc4f54169,001,2021-12-05_20h17.37.534,jm_natural_scene_simialrity_2-12-2021,2021.2.3,Win32,59.99520038,60c1b64299f3731fc4f54169,61ad71e11ddd29ccf7a27d5b,61ad7274bf929dea56137875,,,,,,75.20001256,-60.80000734,1,0,0,response3disk,1.9501,12.00001162,-17.6000067,1,0,0,rectangle,12.00001162,-17.6000067,1,0,0,2,-3,"[38,23,77,4,60,42,89,64,135,15]",12.00001162,-17.6000067,1,0,0,1,1,82,31,1,Turquiose,Turquiose.jpg,LightBlue,LightBlue.jpg,,
,,,,,,,,,,,,,,,,,,3,,,,,,,,,,,,,,,,,,,,,,,,,,,60c1b64299f3731fc4f54169,001,2021-12-05_20h17.37.534,jm_natural_scene_simialrity_2-12-2021,2021.2.3,Win32,59.99520038,60c1b64299f3731fc4f54169,61ad71e11ddd29ccf7a27d5b,61ad7274bf929dea56137875,,,,,,105.600013,39.19996973,1,0,0,response1disk,0.8972,23.20001179,-6.400006533,1,0,0,rectangle,23.20001179,-6.400006533,1,0,0,2,-3,"[38,23,77,4,60,42,89,64,135,15]",23.20001179,-6.400006533,1,0,0,1,2,83,72,1,DarkBlue,DarkBlue.jpg,Turquiose,Turquiose.jpg,,
,,,,,,,,,,,,,,,,,,4,,,,,,,,,,,,,,,,,,,,,,,,,,,60c1b64299f3731fc4f54169,001,2021-12-05_20h17.37.534,jm_natural_scene_simialrity_2-12-2021,2021.2.3,Win32,59.99520038,60c1b64299f3731fc4f54169,61ad71e11ddd29ccf7a27d5b,61ad7274bf929dea56137875,,,,,,30.4000119,74.39999467,1,0,0,response1disk,0.6834,-8.799988687,-20.00000674,1,0,0,rectangle,-8.799988687,-20.00000674,1,0,0,2,-4,"[38,23,77,4,60,42,89,64,135,15]",-8.799988687,-20.00000674,1,0,0,1,3,84,42,1,Pink,Pink.jpg,Pink,Pink.jpg,,
,,,,,,,,,,,,,,,,,,-2,,,,,,,,,,,,,,,,,,,,,,,,,,,60c1b64299f3731fc4f54169,001,2021-12-05_20h17.37.534,jm_natural_scene_simialrity_2-12-2021,2021.2.3,Win32,59.99520038,60c1b64299f3731fc4f54169,61ad71e11ddd29ccf7a27d5b,61ad7274bf929dea56137875,,,,,,-62.39994066,-48.80000716,1,0,0,response5disk,1.0309,-2.399939764,4.799993634,1,0,0,rectangle,-2.399939764,4.799993634,1,0,0,2,-4,"[38,23,77,4,60,42,89,64,135,15]",-2.399939764,4.799993634,1,0,0,1,4,85,80,1,Purple,Purple.jpg,Pink,Pink.jpg,,
,,,,,,,,,,,,,,,,,,4,,,,,,,,,,,,,,,,,,,,,,,,,,,60c1b64299f3731fc4f54169,001,2021-12-05_20h17.37.534,jm_natural_scene_simialrity_2-12-2021,2021.2.3,Win32,59.99520038,60c1b64299f3731fc4f54169,61ad71e11ddd29ccf7a27d5b,61ad7274bf929dea56137875,,,,,,40.80001205,103.1999707,1,0,0,response1disk,0.6871,-4.799988627,-3.200006485,1,0,0,rectangle,-4.799988627,-3.200006485,1,0,0,2,2,"[38,23,77,4,60,42,89,64,135,15]",-4.799988627,-3.200006485,1,0,0,1,5,86,9,1,Yellow,Yellow.jpg,Yellow,Yellow.jpg,,
,,,,,,,,,,,,,,,,,,-3,,,,,,,,,,,,,,,,,,,,,,,,,,,60c1b64299f3731fc4f54169,001,2021-12-05_20h17.37.534,jm_natural_scene_simialrity_2-12-2021,2021.2.3,Win32,59.99520038,60c1b64299f3731fc4f54169,61ad71e11ddd29ccf7a27d5b,61ad7274bf929dea56137875,,,,,,-62.39994066,56.79999441,1,0,0,response7disk,1.6665,4.800011516,-7.200006545,1,0,0,rectangle,4.800011516,-7.200006545,1,0,0,2,3,"[38,23,77,4,60,42,89,64,135,15]",4.800011516,-7.200006545,1,0,0,1,6,87,12,1,Yellow,Yellow.jpg,Turquiose,Turquiose.jpg,,
,,,,,,,,,,,,,,,,,,4,,,,,,,,,,,,,,,,,,,,,,,,,,,60c1b64299f3731fc4f54169,001,2021-12-05_20h17.37.534,jm_natural_scene_simialrity_2-12-2021,2021.2.3,Win32,59.99520038,60c1b64299f3731fc4f54169,61ad71e11ddd29ccf7a27d5b,61ad7274bf929dea56137875,,,,,,53.60001224,103.9999951,1,0,0,response1disk,0.7168,8.800011575,5.599993646,1,0,0,rectangle,95.20001286,59.19997003,1,0,0,3,3,"[38,23,77,4,60,42,89,64,135,15]",5.600060356,-12.00000662,1,0,0,1,7,88,7,1,Red,Red.jpg,Pink,Pink.jpg,response1disk_3,rectangle
,,,,,,,,,,,,,,,,,,3,,,,,,,,,,,,,,,,,,,,,,,,,,,60c1b64299f3731fc4f54169,001,2021-12-05_20h17.37.534,jm_natural_scene_simialrity_2-12-2021,2021.2.3,Win32,59.99520038,60c1b64299f3731fc4f54169,61ad71e11ddd29ccf7a27d5b,61ad7274bf929dea56137875,,,,,,136.8000135,47.99999428,1,0,0,response1disk,1.3,-11.19998872,-8.800006568,1,0,0,rectangle,-11.19998872,-8.800006568,1,0,0,3,2,"[38,23,77,4,60,42,89,64,135,15]",-11.19998872,-8.800006568,1,0,0,1,8,89,75,1,DarkBlue,DarkBlue.jpg,LightBlue,LightBlue.jpg,,
,,,,,,,,,,,,,,,,,,-3,,,,,,,,,,,,,,,,,,,,,,,,,,,60c1b64299f3731fc4f54169,001,2021-12-05_20h17.37.534,jm_natural_scene_simialrity_2-12-2021,2021.2.3,Win32,59.99520038,60c1b64299f3731fc4f54169,61ad71e11ddd29ccf7a27d5b,61ad7274bf929dea56137875,,,,,,-95.19998997,51.99999434,1,0,0,response7disk,1.1868,-6.399939823,-14.40000665,1,0,0,rectangle,-6.399939823,-14.40000665,1,0,0,3,3,"[38,23,77,4,60,42,89,64,135,15]",-6.399939823,-14.40000665,1,0,0,1,9,90,3,1,Red,Red.jpg,DarkGreen,DarkGreen.jpg,,
,,,,,,,,,,,,,,,,,,-3,,,,,,,,,,,,,,,,,,,,,,,,,,,60c1b64299f3731fc4f54169,001,2021-12-05_20h17.37.534,jm_natural_scene_simialrity_2-12-2021,2021.2.3,Win32,59.99520038,60c1b64299f3731fc4f54169,61ad71e11ddd29ccf7a27d5b,61ad7274bf929dea56137875,,,,,,-139.1999906,66.39999455,1,0,0,response7disk,1.1166,1.600060296,7.999993682,1,0,0,rectangle,1.600060296,7.999993682,1,0,0,3,3,"[38,23,77,4,60,42,89,64,135,15]",1.600060296,7.999993682,1,0,0,1,10,91,26,1,DarkGreen,DarkGreen.jpg,LightBlue,LightBlue.jpg,,
,,,,,,,,,,,,,,,,,,-3,,,,,,,,,,,,,,,,,,,,,,,,,,,60c1b64299f3731fc4f54169,001,2021-12-05_20h17.37.534,jm_natural_scene_simialrity_2-12-2021,2021.2.3,Win32,59.99520038,60c1b64299f3731fc4f54169,61ad71e11ddd29ccf7a27d5b,61ad7274bf929dea56137875,,,,,,-111.1999902,40.79999417,1,0,0,response7disk,1.4666,-4.799988627,-19.20000672,1,0,0,rectangle,-4.799988627,-19.20000672,1,0,0,3,-1,"[38,23,77,4,60,42,89,64,135,15]",-4.799988627,-19.20000672,1,0,0,1,11,92,28,1,DarkGreen,DarkGreen.jpg,Pink,Pink.jpg,,
,,,,,,,,,,,,,,,,,,-3,,,,,,,,,,,,,,,,,,,,,,,,,,,60c1b64299f3731fc4f54169,001,2021-12-05_20h17.37.534,jm_natural_scene_simialrity_2-12-2021,2021.2.3,Win32,59.99520038,60c1b64299f3731fc4f54169,61ad71e11ddd29ccf7a27d5b,61ad7274bf929dea56137875,,,,,,-65.59998953,40.79999417,1,0,0,response7disk,2.553,-17.59998882,4.799993634,1,0,0,rectangle,-17.59998882,4.799993634,1,0,0,3,-2,"[38,23,77,4,60,42,89,64,135,15]",-17.59998882,4.799993634,1,0,0,1,12,93,73,1,Pink,Pink.jpg,Turquiose,Turquiose.jpg,,
,,,,,,,,,,,,,,,,,,3,,,,,,,,,,,,,,,,,,,,,,,,,,,60c1b64299f3731fc4f54169,001,2021-12-05_20h17.37.534,jm_natural_scene_simialrity_2-12-2021,2021.2.3,Win32,59.99520038,60c1b64299f3731fc4f54169,61ad71e11ddd29ccf7a27d5b,61ad7274bf929dea56137875,,,,,,129.6000134,37.59999412,1,0,0,response1disk,1.0869,-0.799988568,-16.00000668,1,0,0,rectangle,-0.799988568,-16.00000668,1,0,0,3,-3,"[38,23,77,4,60,42,89,64,135,15]",-0.799988568,-16.00000668,1,0,0,1,13,94,65,1,Purple,Purple.jpg,LightGreen,LightGreen.jpg,,
,,,,,,,,,,,,,,,,,,-3,,,,,,,,,,,,,,,,,,,,,,,,,,,60c1b64299f3731fc4f54169,001,2021-12-05_20h17.37.534,jm_natural_scene_simialrity_2-12-2021,2021.2.3,Win32,59.99520038,60c1b64299f3731fc4f54169,61ad71e11ddd29ccf7a27d5b,61ad7274bf929dea56137875,,,,,,-62.39994066,38.39999413,1,0,0,response7disk,0.9966,13.60006047,-20.80000675,1,0,0,rectangle,13.60006047,-20.80000675,1,0,0,3,-4,"[38,23,77,4,60,42,89,64,135,15]",13.60006047,-20.80000675,1,0,0,1,14,95,79,1,Purple,Purple.jpg,DarkBlue,DarkBlue.jpg,,
,,,,,,,,,,,,,,,,,,-3,,,,,,,,,,,,,,,,,,,,,,,,,,,60c1b64299f3731fc4f54169,001,2021-12-05_20h17.37.534,jm_natural_scene_simialrity_2-12-2021,2021.2.3,Win32,59.99520038,60c1b64299f3731fc4f54169,61ad71e11ddd29ccf7a27d5b,61ad7274bf929dea56137875,,,,,,-78.3999409,47.99999428,1,0,0,response7disk,0.8,11.20001161,-2.400006473,1,0,0,rectangle,11.20001161,-2.400006473,1,0,0,3,3,"[38,23,77,4,60,42,89,64,135,15]",11.20001161,-2.400006473,1,0,0,1,15,96,46,1,LightGreen,LightGreen.jpg,Red,Red.jpg,,
,,,,,,,,,,,,,,,,,,-3,,,,,,,,,,,,,,,,,,,,,,,,,,,60c1b64299f3731fc4f54169,001,2021-12-05_20h17.37.534,jm_natural_scene_simialrity_2-12-2021,2021.2.3,Win32,59.99520038,60c1b64299f3731fc4f54169,61ad71e11ddd29ccf7a27d5b,61ad7274bf929dea56137875,,,,,,-93.59998995,51.19996991,1,0,0,response7disk,0.65,-0.799988568,-2.400006473,1,0,0,rectangle,-0.799988568,-2.400006473,1,0,0,3,1,"[38,23,77,4,60,42,89,64,135,15]",-0.799988568,-2.400006473,1,0,0,1,16,97,69,1,Pink,Pink.jpg,DarkGreen,DarkGreen.jpg,,
,,,,,,,,,,,,,,,,,,-3,,,,,,,,,,,,,,,,,,,,,,,,,,,60c1b64299f3731fc4f54169,001,2021-12-05_20h17.37.534,jm_natural_scene_simialrity_2-12-2021,2021.2.3,Win32,59.99520038,60c1b64299f3731fc4f54169,61ad71e11ddd29ccf7a27d5b,61ad7274bf929dea56137875,,,,,,-88.79998988,45.59999424,1,0,0,response7disk,0.6497,-6.399939823,-11.2000066,1,0,0,rectangle,-6.399939823,-11.2000066,1,0,0,3,-3,"[38,23,77,4,60,42,89,64,135,15]",-6.399939823,-11.2000066,1,0,0,1,17,98,43,1,Pink,Pink.jpg,Purple,Purple.jpg,,
,,,,,,,,,,,,,,,,,,-4,,,,,,,,,,,,,,,,,,,,,,,,,,,60c1b64299f3731fc4f54169,001,2021-12-05_20h17.37.534,jm_natural_scene_simialrity_2-12-2021,2021.2.3,Win32,59.99520038,60c1b64299f3731fc4f54169,61ad71e11ddd29ccf7a27d5b,61ad7274bf929dea56137875,,,,,,-54.39994054,122.3999954,1,0,0,response7disk,0.9499,4.000011504,-2.400006473,1,0,0,rectangle,4.000011504,-2.400006473,1,0,0,3,2,"[38,23,77,4,60,42,89,64,135,15]",4.000011504,-2.400006473,1,0,0,1,18,99,6,1,Red,Red.jpg,DarkBlue,DarkBlue.jpg,,
,,,,,,,,,,,,,,,,,,4,,,,,,,,,,,,,,,,,,,,,,,,,,,60c1b64299f3731fc4f54169,001,2021-12-05_20h17.37.534,jm_natural_scene_simialrity_2-12-2021,2021.2.3,Win32,59.99520038,60c1b64299f3731fc4f54169,61ad71e11ddd29ccf7a27d5b,61ad7274bf929dea56137875,,,,,,59.20001233,101.5999951,1,0,0,response1disk,0.8166,21.60006059,15.19999379,1,0,0,rectangle,21.60006059,15.19999379,1,0,0,3,-1,"[38,23,77,4,60,42,89,64,135,15]",21.60006059,15.19999379,1,0,0,1,19,100,39,1,DarkBlue,DarkBlue.jpg,DarkBlue,DarkBlue.jpg,,
,,,,,,,,,,,,,,,,,,3,,,,,,,,,,,,,,,,,,,,,,,,,,,60c1b64299f3731fc4f54169,001,2021-12-05_20h17.37.534,jm_natural_scene_simialrity_2-12-2021,2021.2.3,Win32,59.99520038,60c1b64299f3731fc4f54169,61ad71e11ddd29ccf7a27d5b,61ad7274bf929dea56137875,,,,,,81.60001266,47.19996985,1,0,0,response1disk,1.3296,20.80001175,16.79999381,1,0,0,rectangle,20.80001175,16.79999381,1,0,0,3,1,"[38,23,77,4,60,42,89,64,135,15]",20.80001175,16.79999381,1,0,0,1,20,101,15,1,Yellow,Yellow.jpg,Pink,Pink.jpg,,
,,,,,,,,,,,,,,,,,,3,,,,,,,,,,,,,,,,,,,,,,,,,,,60c1b64299f3731fc4f54169,001,2021-12-05_20h17.37.534,jm_natural_scene_simialrity_2-12-2021,2021.2.3,Win32,59.99520038,60c1b64299f3731fc4f54169,61ad71e11ddd29ccf7a27d5b,61ad7274bf929dea56137875,,,,,,112.8000131,21.59999388,1,0,0,response1disk,0.8502,9.600060415,-5.600006521,1,0,0,rectangle,9.600060415,-5.600006521,1,0,0,3,2,"[38,23,77,4,60,42,89,64,135,15]",9.600060415,-5.600006521,1,0,0,1,21,102,38,1,LightBlue,LightBlue.jpg,Purple,Purple.jpg,,
,,,,,,,,,,,,,,,,,,2,,,,,,,,,,,,,,,,,,,,,,,,,,,60c1b64299f3731fc4f54169,001,2021-12-05_20h17.37.534,jm_natural_scene_simialrity_2-12-2021,2021.2.3,Win32,59.99520038,60c1b64299f3731fc4f54169,61ad71e11ddd29ccf7a27d5b,61ad7274bf929dea56137875,,,,,,88.80001277,-41.60000706,1,0,0,response3disk,1.2666,5.600060356,-10.40000659,1,0,0,rectangle,5.600060356,-10.40000659,1,0,0,3,-3,"[38,23,77,4,60,42,89,64,135,15]",5.600060356,-10.40000659,1,0,0,1,22,103,29,1,DarkGreen,DarkGreen.jpg,Purple,Purple.jpg,,
,,,,,,,,,,,,,,,,,,3,,,,,,,,,,,,,,,,,,,,,,,,,,,60c1b64299f3731fc4f54169,001,2021-12-05_20h17.37.534,jm_natural_scene_simialrity_2-12-2021,2021.2.3,Win32,59.99520038,60c1b64299f3731fc4f54169,61ad71e11ddd29ccf7a27d5b,61ad7274bf929dea56137875,,,,,,80.00001264,31.99999404,1,0,0,response1disk,0.8811,2.40001148,-7.200006545,1,0,0,rectangle,2.40001148,-7.200006545,1,0,0,3,3,"[38,23,77,4,60,42,89,64,135,15]",2.40001148,-7.200006545,1,0,0,1,23,104,60,1,DarkGreen,DarkGreen.jpg,LightGreen,LightGreen.jpg,,
,,,,,,,,,,,,,,,,,,-3,,,,,,,,,,,,,,,,,,,,,,,,,,,60c1b64299f3731fc4f54169,001,2021-12-05_20h17.37.534,jm_natural_scene_simialrity_2-12-2021,2021.2.3,Win32,59.99520038,60c1b64299f3731fc4f54169,61ad71e11ddd29ccf7a27d5b,61ad7274bf929dea56137875,,,,,,-108.7999902,27.19996955,1,0,0,response7disk,1.2998,-18.39994,-8.000006557,1,0,0,rectangle,-18.39994,-8.000006557,1,0,0,3,-2,"[38,23,77,4,60,42,89,64,135,15]",-18.39994,-8.000006557,1,0,0,1,24,105,47,1,DarkGreen,DarkGreen.jpg,Red,Red.jpg,,
,,,,,,,,,,,,,,,,,,-3,,,,,,,,,,,,,,,,,,,,,,,,,,,60c1b64299f3731fc4f54169,001,2021-12-05_20h17.37.534,jm_natural_scene_simialrity_2-12-2021,2021.2.3,Win32,59.99520038,60c1b64299f3731fc4f54169,61ad71e11ddd29ccf7a27d5b,61ad7274bf929dea56137875,,,,,,-67.99998957,27.19996955,1,0,0,response7disk,0.5662,-3.199988604,-16.00000668,1,0,0,rectangle,-3.199988604,-16.00000668,1,0,0,3,1,"[38,23,77,4,60,42,89,64,135,15]",-3.199988604,-16.00000668,1,0,0,1,25,106,48,1,Turquiose,Turquiose.jpg,Red,Red.jpg,,
,,,,,,,,,,,,,,,,,,-3,,,,,,,,,,,,,,,,,,,,,,,,,,,60c1b64299f3731fc4f54169,001,2021-12-05_20h17.37.534,jm_natural_scene_simialrity_2-12-2021,2021.2.3,Win32,59.99520038,60c1b64299f3731fc4f54169,61ad71e11ddd29ccf7a27d5b,61ad7274bf929dea56137875,,,,,,-67.99998957,33.59999406,1,0,0,response7disk,0.5331,-15.99998879,5.599993646,1,0,0,rectangle,-15.99998879,5.599993646,1,0,0,3,2,"[38,23,77,4,60,42,89,64,135,15]",-15.99998879,5.599993646,1,0,0,1,26,107,20,1,LightGreen,LightGreen.jpg,LightBlue,LightBlue.jpg,,
,,,,,,,,,,,,,,,,,,-3,,,,,,,,,,,,,,,,,,,,,,,,,,,60c1b64299f3731fc4f54169,001,2021-12-05_20h17.37.534,jm_natural_scene_simialrity_2-12-2021,2021.2.3,Win32,59.99520038,60c1b64299f3731fc4f54169,61ad71e11ddd29ccf7a27d5b,61ad7274bf929dea56137875,,,,,,-87.99998987,23.19996949,1,0,0,response7disk,0.5333,1.600060296,-6.4373E-06,1,0,0,rectangle,1.600060296,-6.4373E-06,1,0,0,3,-2,"[38,23,77,4,60,42,89,64,135,15]",1.600060296,-6.4373E-06,1,0,0,1,27,108,21,1,LightGreen,LightGreen.jpg,DarkBlue,DarkBlue.jpg,,
,,,,,,,,,,,,,,,,,,-2,,,,,,,,,,,,,,,,,,,,,,,,,,,60c1b64299f3731fc4f54169,001,2021-12-05_20h17.37.534,jm_natural_scene_simialrity_2-12-2021,2021.2.3,Win32,59.99520038,60c1b64299f3731fc4f54169,61ad71e11ddd29ccf7a27d5b,61ad7274bf929dea56137875,,,,,,-82.39994096,-28.00000685,1,0,0,response5disk,0.8007,4.800011516,20.79999387,1,0,0,rectangle,4.800011516,20.79999387,1,0,0,3,-3,"[38,23,77,4,60,42,89,64,135,15]",4.800011516,20.79999387,1,0,0,1,28,109,13,1,Yellow,Yellow.jpg,LightBlue,LightBlue.jpg,,
,,,,,,,,,,,,,,,,,,-3,,,,,,,,,,,,,,,,,,,,,,,,,,,60c1b64299f3731fc4f54169,001,2021-12-05_20h17.37.534,jm_natural_scene_simialrity_2-12-2021,2021.2.3,Win32,59.99520038,60c1b64299f3731fc4f54169,61ad71e11ddd29ccf7a27d5b,61ad7274bf929dea56137875,,,,,,-127.9999905,67.99999458,1,0,0,response7disk,0.464,8.000011563,8.799993694,1,0,0,rectangle,8.000011563,8.799993694,1,0,0,3,-3,"[38,23,77,4,60,42,89,64,135,15]",8.000011563,8.799993694,1,0,0,1,29,110,4,1,Red,Red.jpg,Turquiose,Turquiose.jpg,,
,,,,,,,,,,,,,,,,,,-4,,,,,,,,,,,,,,,,,,,,,,,,,,,60c1b64299f3731fc4f54169,001,2021-12-05_20h17.37.534,jm_natural_scene_simialrity_2-12-2021,2021.2.3,Win32,59.99520038,60c1b64299f3731fc4f54169,61ad71e11ddd29ccf7a27d5b,61ad7274bf929dea56137875,,,,,,-37.59998912,84.79999483,1,0,0,response7disk,0.5669,-20.79998887,6.399993658,1,0,0,rectangle,-20.79998887,6.399993658,1,0,0,3,-3,"[38,23,77,4,60,42,89,64,135,15]",-20.79998887,6.399993658,1,0,0,1,30,111,50,1,DarkBlue,DarkBlue.jpg,Red,Red.jpg,,
,,,,,,,,,,,,,,,,,,4,,,,,,,,,,,,,,,,,,,,,,,,,,,60c1b64299f3731fc4f54169,001,2021-12-05_20h17.37.534,jm_natural_scene_simialrity_2-12-2021,2021.2.3,Win32,59.99520038,60c1b64299f3731fc4f54169,61ad71e11ddd29ccf7a27d5b,61ad7274bf929dea56137875,,,,,,36.00001198,107.1999707,1,0,0,response1disk,1.2808,-7.199988663,-3.200006485,1,0,0,rectangle,-7.199988663,-3.200006485,1,0,0,3,2,"[38,23,77,4,60,42,89,64,135,15]",-7.199988663,-3.200006485,1,0,0,1,31,112,24,1,DarkGreen,DarkGreen.jpg,DarkGreen,DarkGreen.jpg,,
,,,,,,,,,,,,,,,,,,4,,,,,,,,,,,,,,,,,,,,,,,,,,,60c1b64299f3731fc4f54169,001,2021-12-05_20h17.37.534,jm_natural_scene_simialrity_2-12-2021,2021.2.3,Win32,59.99520038,60c1b64299f3731fc4f54169,61ad71e11ddd29ccf7a27d5b,61ad7274bf929dea56137875,,,,,,29.60006071,106.3999951,1,0,0,response1disk,0.8529,1.600060296,13.59999377,1,0,0,rectangle,1.600060296,13.59999377,1,0,0,3,-4,"[38,23,77,4,60,42,89,64,135,15]",1.600060296,13.59999377,1,0,0,1,32,113,18,1,LightGreen,LightGreen.jpg,DarkGreen,DarkGreen.jpg,,
,,,,,,,,,,,,,,,,,,-3,,,,,,,,,,,,,,,,,,,,,,,,,,,60c1b64299f3731fc4f54169,001,2021-12-05_20h17.37.534,jm_natural_scene_simialrity_2-12-2021,2021.2.3,Win32,59.99520038,60c1b64299f3731fc4f54169,61ad71e11ddd29ccf7a27d5b,61ad7274bf929dea56137875,,,,,,-63.99998951,46.39999425,1,0,0,response7disk,0.9682,20.80001175,-12.00000662,1,0,0,rectangle,20.80001175,-12.00000662,1,0,0,3,-2,"[38,23,77,4,60,42,89,64,135,15]",20.80001175,-12.00000662,1,0,0,1,33,114,76,1,Pink,Pink.jpg,LightBlue,LightBlue.jpg,,
,,,,,,,,,,,,,,,,,,-3,,,,,,,,,,,,,,,,,,,,,,,,,,,60c1b64299f3731fc4f54169,001,2021-12-05_20h17.37.534,jm_natural_scene_simialrity_2-12-2021,2021.2.3,Win32,59.99520038,60c1b64299f3731fc4f54169,61ad71e11ddd29ccf7a27d5b,61ad7274bf929dea56137875,,,,,,-110.3999414,32.79999405,1,0,0,response7disk,0.9703,-12.79998875,19.99999386,1,0,0,rectangle,-12.79998875,19.99999386,1,0,0,3,-4,"[38,23,77,4,60,42,89,64,135,15]",-12.79998875,19.99999386,1,0,0,1,34,115,36,1,LightBlue,LightBlue.jpg,DarkBlue,DarkBlue.jpg,,
,,,,,,,,,,,,,,,,,,3,,,,,,,,,,,,,,,,,,,,,,,,,,,60c1b64299f3731fc4f54169,001,2021-12-05_20h17.37.534,jm_natural_scene_simialrity_2-12-2021,2021.2.3,Win32,59.99520038,60c1b64299f3731fc4f54169,61ad71e11ddd29ccf7a27d5b,61ad7274bf929dea56137875,,,,,,100.8000129,42.39999419,1,0,0,response1disk,1.6666,-13.59998876,-14.40000665,1,0,0,rectangle,-13.59998876,-14.40000665,1,0,0,3,-4,"[38,23,77,4,60,42,89,64,135,15]",-13.59998876,-14.40000665,1,0,0,1,35,116,66,1,Turquiose,Turquiose.jpg,DarkGreen,DarkGreen.jpg,,
,,,,,,,,,,,,,,,,,,-3,,,,,,,,,,,,,,,,,,,,,,,,,,,60c1b64299f3731fc4f54169,001,2021-12-05_20h17.37.534,jm_natural_scene_simialrity_2-12-2021,2021.2.3,Win32,59.99520038,60c1b64299f3731fc4f54169,61ad71e11ddd29ccf7a27d5b,61ad7274bf929dea56137875,,,,,,-92.79998994,43.19996979,1,0,0,response7disk,0.9337,-3.999988616,6.399993658,1,0,0,rectangle,-3.999988616,6.399993658,1,0,0,3,-1,"[38,23,77,4,60,42,89,64,135,15]",-3.999988616,6.399993658,1,0,0,1,36,117,33,1,Turquiose,Turquiose.jpg,Pink,Pink.jpg,,
,,,,,,,,,,,,,,,,,,-3,,,,,,,,,,,,,,,,,,,,,,,,,,,60c1b64299f3731fc4f54169,001,2021-12-05_20h17.37.534,jm_natural_scene_simialrity_2-12-2021,2021.2.3,Win32,59.99520038,60c1b64299f3731fc4f54169,61ad71e11ddd29ccf7a27d5b,61ad7274bf929dea56137875,,,,,,-99.99999005,55.9999944,1,0,0,response7disk,0.7643,-3.199988604,7.999993682,1,0,0,rectangle,-3.199988604,7.999993682,1,0,0,3,-1,"[38,23,77,4,60,42,89,64,135,15]",-3.199988604,7.999993682,1,0,0,1,37,118,23,1,LightGreen,LightGreen.jpg,Purple,Purple.jpg,,
,,,,,,,,,,,,,,,,,,3,,,,,,,,,,,,,,,,,,,,,,,,,,,60c1b64299f3731fc4f54169,001,2021-12-05_20h17.37.534,jm_natural_scene_simialrity_2-12-2021,2021.2.3,Win32,59.99520038,60c1b64299f3731fc4f54169,61ad71e11ddd29ccf7a27d5b,61ad7274bf929dea56137875,,,,,,108.0000131,50.39999431,1,0,0,response1disk,1.5179,-9.599988699,-4.000006497,1,0,0,rectangle,-9.599988699,-4.000006497,1,0,0,3,3,"[38,23,77,4,60,42,89,64,135,15]",-9.599988699,-4.000006497,1,0,0,1,38,119,68,1,DarkBlue,DarkBlue.jpg,DarkGreen,DarkGreen.jpg,,
,,,,,,,,,,,,,,,,,,-3,,,,,,,,,,,,,,,,,,,,,,,,,,,60c1b64299f3731fc4f54169,001,2021-12-05_20h17.37.534,jm_natural_scene_simialrity_2-12-2021,2021.2.3,Win32,59.99520038,60c1b64299f3731fc4f54169,61ad71e11ddd29ccf7a27d5b,61ad7274bf929dea56137875,,,,,,-87.99998987,49.5999943,1,0,0,response7disk,0.704,-13.59998876,-17.6000067,1,0,0,rectangle,-13.59998876,-17.6000067,1,0,0,3,-1,"[38,23,77,4,60,42,89,64,135,15]",-13.59998876,-17.6000067,1,0,0,1,39,120,59,1,Purple,Purple.jpg,Yellow,Yellow.jpg,,
,,,,,,,,,,,,,,,,,,-4,,,,,,,,,,,,,,,,,,,,,,,,,,,60c1b64299f3731fc4f54169,001,2021-12-05_20h17.37.534,jm_natural_scene_simialrity_2-12-2021,2021.2.3,Win32,59.99520038,60c1b64299f3731fc4f54169,61ad71e11ddd29ccf7a27d5b,61ad7274bf929dea56137875,,,,,,-40.79998916,95.99999499,1,0,0,response7disk,0.9972,10.4000116,4.799993634,1,0,0,rectangle,10.4000116,4.799993634,1,0,0,3,-2,"[38,23,77,4,60,42,89,64,135,15]",10.4000116,4.799993634,1,0,0,1,40,121,54,1,DarkGreen,DarkGreen.jpg,Yellow,Yellow.jpg,,
,,,,,,,,,,,,,,,,,,4,,,,,,,,,,,,,,,,,,,,,,,,,,,60c1b64299f3731fc4f54169,001,2021-12-05_20h17.37.534,jm_natural_scene_simialrity_2-12-2021,2021.2.3,Win32,59.99520038,60c1b64299f3731fc4f54169,61ad71e11ddd29ccf7a27d5b,61ad7274bf929dea56137875,,,,,,36.00001198,119.1999709,1,0,0,response1disk,0.9997,-7.199988663,-13.60000664,1,0,0,rectangle,-7.199988663,-13.60000664,1,0,0,3,-2,"[38,23,77,4,60,42,89,64,135,15]",-7.199988663,-13.60000664,1,0,0,1,41,122,0,1,Red,Red.jpg,Red,Red.jpg,,
,,,,,,,,,,,,,,,,,,4,,,,,,,,,,,,,,,,,,,,,,,,,,,60c1b64299f3731fc4f54169,001,2021-12-05_20h17.37.534,jm_natural_scene_simialrity_2-12-2021,2021.2.3,Win32,59.99520038,60c1b64299f3731fc4f54169,61ad71e11ddd29ccf7a27d5b,61ad7274bf929dea56137875,,,,,,67.20001245,104.7999951,1,0,0,response1disk,0.9168,-12.79998875,1.599993587,1,0,0,rectangle,-12.79998875,1.599993587,1,0,0,3,2,"[38,23,77,4,60,42,89,64,135,15]",-12.79998875,1.599993587,1,0,0,1,42,123,17,1,LightGreen,LightGreen.jpg,LightGreen,LightGreen.jpg,,
,,,,,,,,,,,,,,,,,,4,,,,,,,,,,,,,,,,,,,,,,,,,,,60c1b64299f3731fc4f54169,001,2021-12-05_20h17.37.534,jm_natural_scene_simialrity_2-12-2021,2021.2.3,Win32,59.99520038,60c1b64299f3731fc4f54169,61ad71e11ddd29ccf7a27d5b,61ad7274bf929dea56137875,,,,,,32.00001192,41.59999418,1,0,0,response1disk,0.9,13.60006047,3.19999361,1,0,0,rectangle,13.60006047,3.19999361,1,0,0,3,3,"[38,23,77,4,60,42,89,64,135,15]",13.60006047,3.19999361,1,0,0,1,43,124,63,1,DarkBlue,DarkBlue.jpg,LightGreen,LightGreen.jpg,,
,,,,,,,,,,,,,,,,,,-3,,,,,,,,,,,,,,,,,,,,,,,,,,,60c1b64299f3731fc4f54169,001,2021-12-05_20h17.37.534,jm_natural_scene_simialrity_2-12-2021,2021.2.3,Win32,59.99520038,60c1b64299f3731fc4f54169,61ad71e11ddd29ccf7a27d5b,61ad7274bf929dea56137875,,,,,,-78.3999409,33.59999406,1,0,0,response7disk,0.6498,-15.19998878,-1.600006461,1,0,0,rectangle,-15.19998878,-1.600006461,1,0,0,3,-4,"[38,23,77,4,60,42,89,64,135,15]",-15.19998878,-1.600006461,1,0,0,1,44,125,41,1,DarkBlue,DarkBlue.jpg,Purple,Purple.jpg,,
,,,,,,,,,,,,,,,,,,-3,,,,,,,,,,,,,,,,,,,,,,,,,,,60c1b64299f3731fc4f54169,001,2021-12-05_20h17.37.534,jm_natural_scene_simialrity_2-12-2021,2021.2.3,Win32,59.99520038,60c1b64299f3731fc4f54169,61ad71e11ddd29ccf7a27d5b,61ad7274bf929dea56137875,,,,,,-103.9999901,38.39999413,1,0,0,response7disk,0.5665,-8.799988687,-6.4373E-06,1,0,0,rectangle,-8.799988687,-6.4373E-06,1,0,0,3,1,"[38,23,77,4,60,42,89,64,135,15]",-8.799988687,-6.4373E-06,1,0,0,1,45,126,5,1,Red,Red.jpg,LightBlue,LightBlue.jpg,,
,,,,,,,,,,,,,,,,,,-3,,,,,,,,,,,,,,,,,,,,,,,,,,,60c1b64299f3731fc4f54169,001,2021-12-05_20h17.37.534,jm_natural_scene_simialrity_2-12-2021,2021.2.3,Win32,59.99520038,60c1b64299f3731fc4f54169,61ad71e11ddd29ccf7a27d5b,61ad7274bf929dea56137875,,,,,,-66.39994072,40.79999417,1,0,0,response7disk,1.2332,-4.799988627,-2.400006473,1,0,0,rectangle,-4.799988627,-2.400006473,1,0,0,3,-1,"[38,23,77,4,60,42,89,64,135,15]",-4.799988627,-2.400006473,1,0,0,1,46,127,22,1,LightGreen,LightGreen.jpg,Pink,Pink.jpg,,
,,,,,,,,,,,,,,,,,,-3,,,,,,,,,,,,,,,,,,,,,,,,,,,60c1b64299f3731fc4f54169,001,2021-12-05_20h17.37.534,jm_natural_scene_simialrity_2-12-2021,2021.2.3,Win32,59.99520038,60c1b64299f3731fc4f54169,61ad71e11ddd29ccf7a27d5b,61ad7274bf929dea56137875,,,,,,-90.39994107,56.79999441,1,0,0,response7disk,0.7834,-13.59998876,9.599993706,1,0,0,rectangle,-13.59998876,9.599993706,1,0,0,3,-1,"[38,23,77,4,60,42,89,64,135,15]",-13.59998876,9.599993706,1,0,0,1,47,128,64,1,Pink,Pink.jpg,LightGreen,LightGreen.jpg,,
,,,,,,,,,,,,,,,,,,-3,,,,,,,,,,,,,,,,,,,,,,,,,,,60c1b64299f3731fc4f54169,001,2021-12-05_20h17.37.534,jm_natural_scene_simialrity_2-12-2021,2021.2.3,Win32,59.99520038,60c1b64299f3731fc4f54169,61ad71e11ddd29ccf7a27d5b,61ad7274bf929dea56137875,,,,,,-69.59998959,51.99999434,1,0,0,response7disk,0.8166,4.800011516,10.39999372,1,0,0,rectangle,4.800011516,10.39999372,1,0,0,3,-2,"[38,23,77,4,60,42,89,64,135,15]",4.800011516,10.39999372,1,0,0,1,48,129,55,1,Turquiose,Turquiose.jpg,Yellow,Yellow.jpg,,
,,,,,,,,,,,,,,,,,,-3,,,,,,,,,,,,,,,,,,,,,,,,,,,60c1b64299f3731fc4f54169,001,2021-12-05_20h17.37.534,jm_natural_scene_simialrity_2-12-2021,2021.2.3,Win32,59.99520038,60c1b64299f3731fc4f54169,61ad71e11ddd29ccf7a27d5b,61ad7274bf929dea56137875,,,,,,-103.9999901,67.19997015,1,0,0,response7disk,0.6166,7.200011551,-12.80000663,1,0,0,rectangle,7.200011551,-12.80000663,1,0,0,3,1,"[38,23,77,4,60,42,89,64,135,15]",7.200011551,-12.80000663,1,0,0,1,49,130,52,1,Purple,Purple.jpg,Red,Red.jpg,,
,,,,,,,,,,,,,,,,,,-3,,,,,,,,,,,,,,,,,,,,,,,,,,,60c1b64299f3731fc4f54169,001,2021-12-05_20h17.37.534,jm_natural_scene_simialrity_2-12-2021,2021.2.3,Win32,59.99520038,60c1b64299f3731fc4f54169,61ad71e11ddd29ccf7a27d5b,61ad7274bf929dea56137875,,,,,,-71.19998962,47.99999428,1,0,0,response7disk,0.9501,-3.199988604,14.39999378,1,0,0,rectangle,-3.199988604,14.39999378,1,0,0,3,2,"[38,23,77,4,60,42,89,64,135,15]",-3.199988604,14.39999378,1,0,0,1,50,131,67,1,LightBlue,LightBlue.jpg,DarkGreen,DarkGreen.jpg,,
,,,,,,,,,,,,,,,,,,-3,,,,,,,,,,,,,,,,,,,,,,,,,,,60c1b64299f3731fc4f54169,001,2021-12-05_20h17.37.534,jm_natural_scene_simialrity_2-12-2021,2021.2.3,Win32,59.99520038,60c1b64299f3731fc4f54169,61ad71e11ddd29ccf7a27d5b,61ad7274bf929dea56137875,,,,,,-79.99998975,44.79999423,1,0,0,response7disk,0.5468,18.40001172,2.399993598,1,0,0,rectangle,18.40001172,2.399993598,1,0,0,3,3,"[38,23,77,4,60,42,89,64,135,15]",18.40001172,2.399993598,1,0,0,1,51,132,14,1,Yellow,Yellow.jpg,DarkBlue,DarkBlue.jpg,,
,,,,,,,,,,,,,,,,,,-3,,,,,,,,,,,,,,,,,,,,,,,,,,,60c1b64299f3731fc4f54169,001,2021-12-05_20h17.37.534,jm_natural_scene_simialrity_2-12-2021,2021.2.3,Win32,59.99520038,60c1b64299f3731fc4f54169,61ad71e11ddd29ccf7a27d5b,61ad7274bf929dea56137875,,,,,,-59.99998945,37.59999412,1,0,0,response7disk,0.5509,-3.999988616,9.599993706,1,0,0,rectangle,-3.999988616,9.599993706,1,0,0,3,-1,"[38,23,77,4,60,42,89,64,135,15]",-3.999988616,9.599993706,1,0,0,1,52,133,32,1,Turquiose,Turquiose.jpg,DarkBlue,DarkBlue.jpg,,
,,,,,,,,,,,,,,,,,,3,,,,,,,,,,,,,,,,,,,,,,,,,,,60c1b64299f3731fc4f54169,001,2021-12-05_20h17.37.534,jm_natural_scene_simialrity_2-12-2021,2021.2.3,Win32,59.99520038,60c1b64299f3731fc4f54169,61ad71e11ddd29ccf7a27d5b,61ad7274bf929dea56137875,,,,,,119.2000132,40.79999417,1,0,0,response1disk,1.6001,-3.199988604,6.399993658,1,0,0,rectangle,113.6000131,32.79999405,1,0,0,3,3,"[38,23,77,4,60,42,89,64,135,15]",4.000011504,-13.60000664,1,0,0,1,53,134,58,1,Pink,Pink.jpg,Yellow,Yellow.jpg,response1disk_3,rectangle
,,,,,,,,,,,,,,,,,,-3,,,,,,,,,,,,,,,,,,,,,,,,,,,60c1b64299f3731fc4f54169,001,2021-12-05_20h17.37.534,jm_natural_scene_simialrity_2-12-2021,2021.2.3,Win32,59.99520038,60c1b64299f3731fc4f54169,61ad71e11ddd29ccf7a27d5b,61ad7274bf929dea56137875,,,,,,-78.3999409,31.99999404,1,0,0,response7disk,0.8476,-2.399939764,16.79999381,1,0,0,rectangle,-2.399939764,16.79999381,1,0,0,3,-2,"[38,23,77,4,60,42,89,64,135,15]",-2.399939764,16.79999381,1,0,0,1,54,135,16,1,Yellow,Yellow.jpg,Purple,Purple.jpg,,
,,,,,,,,,,,,,,,,,,-3,,,,,,,,,,,,,,,,,,,,,,,,,,,60c1b64299f3731fc4f54169,001,2021-12-05_20h17.37.534,jm_natural_scene_simialrity_2-12-2021,2021.2.3,Win32,59.99520038,60c1b64299f3731fc4f54169,61ad71e11ddd29ccf7a27d5b,61ad7274bf929dea56137875,,,,,,-40.79998916,33.59999406,1,0,0,response7disk,0.8805,8.800011575,6.399993658,1,0,0,rectangle,8.800011575,6.399993658,1,0,0,3,-3,"[38,23,77,4,60,42,89,64,135,15]",8.800011575,6.399993658,1,0,0,1,55,136,70,1,Purple,Purple.jpg,DarkGreen,DarkGreen.jpg,,
,,,,,,,,,,,,,,,,,,-4,,,,,,,,,,,,,,,,,,,,,,,,,,,60c1b64299f3731fc4f54169,001,2021-12-05_20h17.37.534,jm_natural_scene_simialrity_2-12-2021,2021.2.3,Win32,59.99520038,60c1b64299f3731fc4f54169,61ad71e11ddd29ccf7a27d5b,61ad7274bf929dea56137875,,,,,,-54.39994054,111.1999708,1,0,0,response7disk,0.6666,8.000011563,7.19999367,1,0,0,rectangle,8.000011563,7.19999367,1,0,0,3,-2,"[38,23,77,4,60,42,89,64,135,15]",8.000011563,7.19999367,1,0,0,1,56,137,10,1,Yellow,Yellow.jpg,LightGreen,LightGreen.jpg,,
,,,,,,,,,,,,,,,,,,-3,,,,,,,,,,,,,,,,,,,,,,,,,,,60c1b64299f3731fc4f54169,001,2021-12-05_20h17.37.534,jm_natural_scene_simialrity_2-12-2021,2021.2.3,Win32,59.99520038,60c1b64299f3731fc4f54169,61ad71e11ddd29ccf7a27d5b,61ad7274bf929dea56137875,,,,,,-97.59999001,50.39999431,1,0,0,response7disk,0.8999,-16.79998881,4.799993634,1,0,0,rectangle,-16.79998881,4.799993634,1,0,0,3,3,"[38,23,77,4,60,42,89,64,135,15]",-16.79998881,4.799993634,1,0,0,1,57,138,77,1,Purple,Purple.jpg,LightBlue,LightBlue.jpg,,
,,,,,,,,,,,,,,,,,,-4,,,,,,,,,,,,,,,,,,,,,,,,,,,60c1b64299f3731fc4f54169,001,2021-12-05_20h17.37.534,jm_natural_scene_simialrity_2-12-2021,2021.2.3,Win32,59.99520038,60c1b64299f3731fc4f54169,61ad71e11ddd29ccf7a27d5b,61ad7274bf929dea56137875,,,,,,-56.7999894,70.39999461,1,0,0,response7disk,0.8001,-3.999988616,4.799993634,1,0,0,rectangle,-3.999988616,4.799993634,1,0,0,3,-3,"[38,23,77,4,60,42,89,64,135,15]",-3.999988616,4.799993634,1,0,0,1,58,139,11,1,Yellow,Yellow.jpg,DarkGreen,DarkGreen.jpg,,
,,,,,,,,,,,,,,,,,,-4,,,,,,,,,,,,,,,,,,,,,,,,,,,60c1b64299f3731fc4f54169,001,2021-12-05_20h17.37.534,jm_natural_scene_simialrity_2-12-2021,2021.2.3,Win32,59.99520038,60c1b64299f3731fc4f54169,61ad71e11ddd29ccf7a27d5b,61ad7274bf929dea56137875,,,,,,-66.39994072,81.59999478,1,0,0,response7disk,0.7332,-3.999988616,12.79999375,1,0,0,rectangle,-3.999988616,12.79999375,1,0,0,3,-4,"[38,23,77,4,60,42,89,64,135,15]",-3.999988616,12.79999375,1,0,0,1,59,140,49,1,LightBlue,LightBlue.jpg,Red,Red.jpg,,
,,,,,,,,,,,,,,,,,,-4,,,,,,,,,,,,,,,,,,,,,,,,,,,60c1b64299f3731fc4f54169,001,2021-12-05_20h17.37.534,jm_natural_scene_simialrity_2-12-2021,2021.2.3,Win32,59.99520038,60c1b64299f3731fc4f54169,61ad71e11ddd29ccf7a27d5b,61ad7274bf929dea56137875,,,,,,-34.39994024,80.79999477,1,0,0,response7disk,0.6331,3.200011492,10.39999372,1,0,0,rectangle,3.200011492,10.39999372,1,0,0,3,1,"[38,23,77,4,60,42,89,64,135,15]",3.200011492,10.39999372,1,0,0,1,60,141,57,1,DarkBlue,DarkBlue.jpg,Yellow,Yellow.jpg,,
,,,,,,,,,,,,,,,,,,-4,,,,,,,,,,,,,,,,,,,,,,,,,,,60c1b64299f3731fc4f54169,001,2021-12-05_20h17.37.534,jm_natural_scene_simialrity_2-12-2021,2021.2.3,Win32,59.99520038,60c1b64299f3731fc4f54169,61ad71e11ddd29ccf7a27d5b,61ad7274bf929dea56137875,,,,,,-43.99998921,100.7999951,1,0,0,response7disk,0.5168,-5.599988639,11.99999374,1,0,0,rectangle,-5.599988639,11.99999374,1,0,0,3,-2,"[38,23,77,4,60,42,89,64,135,15]",-5.599988639,11.99999374,1,0,0,1,61,142,71,1,LightBlue,LightBlue.jpg,Turquiose,Turquiose.jpg,,
,,,,,,,,,,,,,,,,,,4,,,,,,,,,,,,,,,,,,,,,,,,,,,60c1b64299f3731fc4f54169,001,2021-12-05_20h17.37.534,jm_natural_scene_simialrity_2-12-2021,2021.2.3,Win32,59.99520038,60c1b64299f3731fc4f54169,61ad71e11ddd29ccf7a27d5b,61ad7274bf929dea56137875,,,,,,76.80001259,99.19997063,1,0,0,response1disk,0.6668,4.000011504,9.599993706,1,0,0,rectangle,4.000011504,9.599993706,1,0,0,3,-2,"[38,23,77,4,60,42,89,64,135,15]",4.000011504,9.599993706,1,0,0,1,62,143,51,1,Pink,Pink.jpg,Red,Red.jpg,,
,,,,,,,,,,,,,,,,,,4,,,,,,,,,,,,,,,,,,,,,,,,,,,60c1b64299f3731fc4f54169,001,2021-12-05_20h17.37.534,jm_natural_scene_simialrity_2-12-2021,2021.2.3,Win32,59.99520038,60c1b64299f3731fc4f54169,61ad71e11ddd29ccf7a27d5b,61ad7274bf929dea56137875,,,,,,23.20001179,80.79999477,1,0,0,response1disk,0.9542,-7.199988663,-12.80000663,1,0,0,rectangle,-7.199988663,-12.80000663,1,0,0,3,2,"[38,23,77,4,60,42,89,64,135,15]",-7.199988663,-12.80000663,1,0,0,1,63,144,27,1,DarkGreen,DarkGreen.jpg,DarkBlue,DarkBlue.jpg,,
,,,,,,,,,,,,,,,,,,3,,,,,,,,,,,,,,,,,,,,,,,,,,,60c1b64299f3731fc4f54169,001,2021-12-05_20h17.37.534,jm_natural_scene_simialrity_2-12-2021,2021.2.3,Win32,59.99520038,60c1b64299f3731fc4f54169,61ad71e11ddd29ccf7a27d5b,61ad7274bf929dea56137875,,,,,,96.80001289,42.39999419,1,0,0,response1disk,1.2832,0.800011456,-0.800006449,1,0,0,rectangle,0.800011456,-0.800006449,1,0,0,3,-2,"[38,23,77,4,60,42,89,64,135,15]",0.800011456,-0.800006449,1,0,0,1,64,145,8,1,Red,Red.jpg,Purple,Purple.jpg,,
,,,,,,,,,,,,,,,,,,-3,,,,,,,,,,,,,,,,,,,,,,,,,,,60c1b64299f3731fc4f54169,001,2021-12-05_20h17.37.534,jm_natural_scene_simialrity_2-12-2021,2021.2.3,Win32,59.99520038,60c1b64299f3731fc4f54169,61ad71e11ddd29ccf7a27d5b,61ad7274bf929dea56137875,,,,,,-75.19998968,27.99999398,1,0,0,response7disk,0.7174,-16.79998881,-6.400006533,1,0,0,rectangle,-16.79998881,-6.400006533,1,0,0,3,-2,"[38,23,77,4,60,42,89,64,135,15]",-16.79998881,-6.400006533,1,0,0,1,65,146,74,1,Purple,Purple.jpg,Turquiose,Turquiose.jpg,,
,,,,,,,,,,,,,,,,,,-3,,,,,,,,,,,,,,,,,,,,,,,,,,,60c1b64299f3731fc4f54169,001,2021-12-05_20h17.37.534,jm_natural_scene_simialrity_2-12-2021,2021.2.3,Win32,59.99520038,60c1b64299f3731fc4f54169,61ad71e11ddd29ccf7a27d5b,61ad7274bf929dea56137875,,,,,,-76.7999897,32.79999405,1,0,0,response7disk,0.8533,-7.199988663,-4.800006509,1,0,0,rectangle,-7.199988663,-4.800006509,1,0,0,3,-4,"[38,23,77,4,60,42,89,64,135,15]",-7.199988663,-4.800006509,1,0,0,1,66,147,62,1,LightBlue,LightBlue.jpg,LightGreen,LightGreen.jpg,,
,,,,,,,,,,,,,,,,,,3,,,,,,,,,,,,,,,,,,,,,,,,,,,60c1b64299f3731fc4f54169,001,2021-12-05_20h17.37.534,jm_natural_scene_simialrity_2-12-2021,2021.2.3,Win32,59.99520038,60c1b64299f3731fc4f54169,61ad71e11ddd29ccf7a27d5b,61ad7274bf929dea56137875,,,,,,114.4000131,40.79999417,1,0,0,response1disk,1.2834,-5.599988639,1.599993587,1,0,0,rectangle,-5.599988639,1.599993587,1,0,0,3,1,"[38,23,77,4,60,42,89,64,135,15]",-5.599988639,1.599993587,1,0,0,1,67,148,45,1,Yellow,Yellow.jpg,Red,Red.jpg,,
,,,,,,,,,,,,,,,,,,3,,,,,,,,,,,,,,,,,,,,,,,,,,,60c1b64299f3731fc4f54169,001,2021-12-05_20h17.37.534,jm_natural_scene_simialrity_2-12-2021,2021.2.3,Win32,59.99520038,60c1b64299f3731fc4f54169,61ad71e11ddd29ccf7a27d5b,61ad7274bf929dea56137875,,,,,,91.2000128,49.5999943,1,0,0,response1disk,1.1333,12.00001162,-5.600006521,1,0,0,rectangle,12.00001162,-5.600006521,1,0,0,3,-4,"[38,23,77,4,60,42,89,64,135,15]",12.00001162,-5.600006521,1,0,0,1,68,149,40,1,DarkBlue,DarkBlue.jpg,Pink,Pink.jpg,,
,,,,,,,,,,,,,,,,,,-2,,,,,,,,,,,,,,,,,,,,,,,,,,,60c1b64299f3731fc4f54169,001,2021-12-05_20h17.37.534,jm_natural_scene_simialrity_2-12-2021,2021.2.3,Win32,59.99520038,60c1b64299f3731fc4f54169,61ad71e11ddd29ccf7a27d5b,61ad7274bf929dea56137875,,,,,,-71.99998963,-31.2000069,1,0,0,response5disk,1.2365,9.600060415,3.19999361,1,0,0,rectangle,9.600060415,3.19999361,1,0,0,3,3,"[38,23,77,4,60,42,89,64,135,15]",9.600060415,3.19999361,1,0,0,1,69,150,34,1,Turquiose,Turquiose.jpg,Purple,Purple.jpg,,
,,,,,,,,,,,,,,,,,,-2,,,,,,,,,,,,,,,,,,,,,,,,,,,60c1b64299f3731fc4f54169,001,2021-12-05_20h17.37.534,jm_natural_scene_simialrity_2-12-2021,2021.2.3,Win32,59.99520038,60c1b64299f3731fc4f54169,61ad71e11ddd29ccf7a27d5b,61ad7274bf929dea56137875,,,,,,-113.5999902,-63.20000738,1,0,0,response5disk,2.1665,-7.999988675,1.599993587,1,0,0,rectangle,-7.999988675,1.599993587,1,0,0,3,2,"[38,23,77,4,60,42,89,64,135,15]",-7.999988675,1.599993587,1,0,0,1,70,151,2,1,Red,Red.jpg,LightGreen,LightGreen.jpg,,
,,,,,,,,,,,,,,,,,,-3,,,,,,,,,,,,,,,,,,,,,,,,,,,60c1b64299f3731fc4f54169,001,2021-12-05_20h17.37.534,jm_natural_scene_simialrity_2-12-2021,2021.2.3,Win32,59.99520038,60c1b64299f3731fc4f54169,61ad71e11ddd29ccf7a27d5b,61ad7274bf929dea56137875,,,,,,-101.5999901,47.19996985,1,0,0,response7disk,0.9833,8.000011563,-8.800006568,1,0,0,rectangle,8.000011563,-8.800006568,1,0,0,3,-2,"[38,23,77,4,60,42,89,64,135,15]",8.000011563,-8.800006568,1,0,0,1,71,152,53,1,LightGreen,LightGreen.jpg,Yellow,Yellow.jpg,,
,,,,,,,,,,,,,,,,,,4,,,,,,,,,,,,,,,,,,,,,,,,,,,60c1b64299f3731fc4f54169,001,2021-12-05_20h17.37.534,jm_natural_scene_simialrity_2-12-2021,2021.2.3,Win32,59.99520038,60c1b64299f3731fc4f54169,61ad71e11ddd29ccf7a27d5b,61ad7274bf929dea56137875,,,,,,46.40001214,82.39999479,1,0,0,response1disk,0.95,-8.799988687,4.799993634,1,0,0,rectangle,-8.799988687,4.799993634,1,0,0,3,2,"[38,23,77,4,60,42,89,64,135,15]",-8.799988687,4.799993634,1,0,0,1,72,153,35,1,LightBlue,LightBlue.jpg,LightBlue,LightBlue.jpg,,
,,,,,,,,,,,,,,,,,,-3,,,,,,,,,,,,,,,,,,,,,,,,,,,60c1b64299f3731fc4f54169,001,2021-12-05_20h17.37.534,jm_natural_scene_simialrity_2-12-2021,2021.2.3,Win32,59.99520038,60c1b64299f3731fc4f54169,61ad71e11ddd29ccf7a27d5b,61ad7274bf929dea56137875,,,,,,-75.99998969,25.59999394,1,0,0,response7disk,2.1669,-14.39993994,-4.000006497,1,0,0,rectangle,-14.39993994,-4.000006497,1,0,0,3,-2,"[38,23,77,4,60,42,89,64,135,15]",-14.39993994,-4.000006497,1,0,0,1,73,154,78,1,Pink,Pink.jpg,DarkBlue,DarkBlue.jpg,,
,,,,,,,,,,,,,,,,,,4,,,,,,,,,,,,,,,,,,,,,,,,,,,60c1b64299f3731fc4f54169,001,2021-12-05_20h17.37.534,jm_natural_scene_simialrity_2-12-2021,2021.2.3,Win32,59.99520038,60c1b64299f3731fc4f54169,61ad71e11ddd29ccf7a27d5b,61ad7274bf929dea56137875,,,,,,41.60006089,85.59999484,1,0,0,response1disk,0.9001,-8.799988687,1.599993587,1,0,0,rectangle,-8.799988687,1.599993587,1,0,0,3,-2,"[38,23,77,4,60,42,89,64,135,15]",-8.799988687,1.599993587,1,0,0,1,74,155,44,1,Purple,Purple.jpg,Purple,Purple.jpg,,
,,,,,,,,,,,,,,,,,,4,,,,,,,,,,,,,,,,,,,,,,,,,,,60c1b64299f3731fc4f54169,001,2021-12-05_20h17.37.534,jm_natural_scene_simialrity_2-12-2021,2021.2.3,Win32,59.99520038,60c1b64299f3731fc4f54169,61ad71e11ddd29ccf7a27d5b,61ad7274bf929dea56137875,,,,,,36.80001199,75.19997027,1,0,0,response1disk,0.7641,7.200011551,17.59999382,1,0,0,rectangle,7.200011551,17.59999382,1,0,0,3,-1,"[38,23,77,4,60,42,89,64,135,15]",7.200011551,17.59999382,1,0,0,1,75,156,30,1,Turquiose,Turquiose.jpg,Turquiose,Turquiose.jpg,,
,,,,,,,,,,,,,,,,,,-3,,,,,,,,,,,,,,,,,,,,,,,,,,,60c1b64299f3731fc4f54169,001,2021-12-05_20h17.37.534,jm_natural_scene_simialrity_2-12-2021,2021.2.3,Win32,59.99520038,60c1b64299f3731fc4f54169,61ad71e11ddd29ccf7a27d5b,61ad7274bf929dea56137875,,,,,,-86.39994102,39.99999416,1,0,0,response7disk,1.4336,0.800011456,6.399993658,1,0,0,rectangle,0.800011456,6.399993658,1,0,0,3,-4,"[38,23,77,4,60,42,89,64,135,15]",0.800011456,6.399993658,1,0,0,1,76,157,37,1,LightBlue,LightBlue.jpg,Pink,Pink.jpg,,
,,,,,,,,,,,,,,,,,,-3,,,,,,,,,,,,,,,,,,,,,,,,,,,60c1b64299f3731fc4f54169,001,2021-12-05_20h17.37.534,jm_natural_scene_simialrity_2-12-2021,2021.2.3,Win32,59.99520038,60c1b64299f3731fc4f54169,61ad71e11ddd29ccf7a27d5b,61ad7274bf929dea56137875,,,,,,-79.99998975,44.79999423,1,0,0,response7disk,0.7669,-11.19998872,-8.800006568,1,0,0,rectangle,-11.19998872,-8.800006568,1,0,0,3,-2,"[38,23,77,4,60,42,89,64,135,15]",-11.19998872,-8.800006568,1,0,0,1,77,158,19,1,LightGreen,LightGreen.jpg,Turquiose,Turquiose.jpg,,
,,,,,,,,,,,,,,,,,,-3,,,,,,,,,,,,,,,,,,,,,,,,,,,60c1b64299f3731fc4f54169,001,2021-12-05_20h17.37.534,jm_natural_scene_simialrity_2-12-2021,2021.2.3,Win32,59.99520038,60c1b64299f3731fc4f54169,61ad71e11ddd29ccf7a27d5b,61ad7274bf929dea56137875,,,,,,-76.7999897,47.99999428,1,0,0,response7disk,0.6332,12.00001162,3.19999361,1,0,0,rectangle,12.00001162,3.19999361,1,0,0,3,-2,"[38,23,77,4,60,42,89,64,135,15]",12.00001162,3.19999361,1,0,0,1,78,159,25,1,DarkGreen,DarkGreen.jpg,Turquiose,Turquiose.jpg,,
,,,,,,,,,,,,,,,,,,-3,,,,,,,,,,,,,,,,,,,,,,,,,,,60c1b64299f3731fc4f54169,001,2021-12-05_20h17.37.534,jm_natural_scene_simialrity_2-12-2021,2021.2.3,Win32,59.99520038,60c1b64299f3731fc4f54169,61ad71e11ddd29ccf7a27d5b,61ad7274bf929dea56137875,,,,,,-66.39994072,50.39999431,1,0,0,response7disk,0.6333,-16.79998881,11.99999374,1,0,0,rectangle,-16.79998881,11.99999374,1,0,0,3,-4,"[38,23,77,4,60,42,89,64,135,15]",-16.79998881,11.99999374,1,0,0,1,79,160,56,1,LightBlue,LightBlue.jpg,Yellow,Yellow.jpg,,
,,,,,,,,,,,,,,,,,,3,,,,,,,,,,,,,,,,,,,,,,,,,,,60c1b64299f3731fc4f54169,001,2021-12-05_20h17.37.534,jm_natural_scene_simialrity_2-12-2021,2021.2.3,Win32,59.99520038,60c1b64299f3731fc4f54169,61ad71e11ddd29ccf7a27d5b,61ad7274bf929dea56137875,,,,,,113.6000131,17.59999382,1,0,0,response1disk,1.2664,1.14441E-05,11.99999374,1,0,0,rectangle,1.14441E-05,11.99999374,1,0,0,3,-4,"[38,23,77,4,60,42,89,64,135,15]",1.14441E-05,11.99999374,1,0,0,1,80,161,1,1,Red,Red.jpg,Yellow,Yellow.jpg,,
