key_resp.keys,key_resp.rt,key_resp_16.keys,key_resp_16.rt,key_resp_2.keys,key_resp_2.rt,key_resp_3.keys,key_resp_3.rt,key_resp_19.keys,key_resp_19.rt,key_resp_10.keys,key_resp_10.rt,mouse_prac.x,mouse_prac.y,mouse_prac.leftButton,mouse_prac.midButton,mouse_prac.rightButton,mouse_prac.clicked_name,similarity,mouse_10.x,mouse_10.y,mouse_10.leftButton,mouse_10.midButton,mouse_10.rightButton,mouse_10.clicked_name,mouse_catch_prac.x,mouse_catch_prac.y,mouse_catch_prac.leftButton,mouse_catch_prac.midButton,mouse_catch_prac.rightButton,catchnumberprac,mouse_6.x,mouse_6.y,mouse_6.leftButton,mouse_6.midButton,mouse_6.rightButton,during_prac.thisRepN,during_prac.thisTrialN,during_prac.thisN,during_prac.thisIndex,during_prac.ran,trailimage1,trial1adress,trailimage2,trial2adress,participant,session,date,expName,psychopyVersion,OS,frameRate,PROLIFIC_PID,STUDY_ID,SESSION_ID,mouse_catch_prac.clicked_name,catchprac,mouse_6.clicked_name,key_resp_22.keys,key_resp_22.rt,mouse.x,mouse.y,mouse.leftButton,mouse.midButton,mouse.rightButton,mouse.clicked_name,response_time,mouse_2.x,mouse_2.y,mouse_2.leftButton,mouse_2.midButton,mouse_2.rightButton,mouse_2.clicked_name,mouse_3.x,mouse_3.y,mouse_3.leftButton,mouse_3.midButton,mouse_3.rightButton,catchresponse,catchnumber,catchtrialorder,mouse_11.x,mouse_11.y,mouse_11.leftButton,mouse_11.midButton,mouse_11.rightButton,trials_2.thisRepN,trials_2.thisTrialN,trials_2.thisN,trials_2.thisIndex,trials_2.ran,image1,image1adress,image2,image2adress,mouse_3.clicked_name,mouse_11.clicked_name
space,1.6266,space,6.7188,space,4.2766,space,6.7339,space,21.4209,space,5.0668,106.9795532,49.97909546,1,0,0,response1disk_5,3,-4.780639648,5.553588867,1,0,0,rectangle_8,-4.780639648,5.553588867,1,0,0,-3,-4.780639648,5.553588867,1,0,0,0,0,0,0,1,trail1,trail1.jpg,trail1,trail1.jpg,60dcf6a5aa967e04dc3c10c2,001,2021-12-05_23h18.10.038,jm_natural_scene_simialrity_2-12-2021,2021.2.3,MacIntel,60.0024001,60dcf6a5aa967e04dc3c10c2,61ad71e11ddd29ccf7a27d5b,61ad72b97e028f1d19acf521,,,,,,,,,,,,,,,,,,,,,,,,,,,,,,,,,,,,,,,,,,
,,,,,,,,,,,,-65.08996582,109.750946,1,0,0,response7disk_5,-4,-3.58203125,10.01251221,1,0,0,rectangle_8,-84.41833496,38.33218384,1,0,0,-3,-9.151489258,-6.640625,1,0,0,0,1,1,2,1,trail1,trail1.jpg,trail3,trail3.jpg,60dcf6a5aa967e04dc3c10c2,001,2021-12-05_23h18.10.038,jm_natural_scene_simialrity_2-12-2021,2021.2.3,MacIntel,60.0024001,60dcf6a5aa967e04dc3c10c2,61ad71e11ddd29ccf7a27d5b,61ad72b97e028f1d19acf521,response7disk_7,-3,rectangle_4,,,,,,,,,,,,,,,,,,,,,,,,,,,,,,,,,,,,,,,
,,,,,,,,,,,,-107.6251831,57.6829834,1,0,0,response7disk_5,-3,3.744628906,-11.54547119,1,0,0,rectangle_8,3.744628906,-11.54547119,1,0,0,-3,3.744628906,-11.54547119,1,0,0,0,2,2,1,1,trail1,trail1.jpg,trail2,trail2.jpg,60dcf6a5aa967e04dc3c10c2,001,2021-12-05_23h18.10.038,jm_natural_scene_simialrity_2-12-2021,2021.2.3,MacIntel,60.0024001,60dcf6a5aa967e04dc3c10c2,61ad71e11ddd29ccf7a27d5b,61ad72b97e028f1d19acf521,,,,,,,,,,,,,,,,,,,,,,,,,,,,,,,,,,,,,,,,,,
,,,,,,,,,,,,-102.2615967,48.91650391,1,0,0,response7disk_5,-3,7.739196777,-0.83215332,1,0,0,rectangle_8,-114.4254761,43.17822266,1,0,0,-3,-0.809387207,-9.744262695,1,0,0,0,3,3,4,1,trail2,trail2.jpg,trail3,trail3.jpg,60dcf6a5aa967e04dc3c10c2,001,2021-12-05_23h18.10.038,jm_natural_scene_simialrity_2-12-2021,2021.2.3,MacIntel,60.0024001,60dcf6a5aa967e04dc3c10c2,61ad71e11ddd29ccf7a27d5b,61ad72b97e028f1d19acf521,response7disk_7,-3,rectangle_4,,,,,,,,,,,,,,,,,,,,,,,,,,,,,,,,,,,,,,,
,,,,,,,,,,,,78.58374023,96.91452026,1,0,0,response1disk_5,4,5.474914551,-1.102416992,1,0,0,rectangle_8,5.474914551,-1.102416992,1,0,0,-3,5.474914551,-1.102416992,1,0,0,0,4,4,5,1,trail3,trail3.jpg,trail3,trail3.jpg,60dcf6a5aa967e04dc3c10c2,001,2021-12-05_23h18.10.038,jm_natural_scene_simialrity_2-12-2021,2021.2.3,MacIntel,60.0024001,60dcf6a5aa967e04dc3c10c2,61ad71e11ddd29ccf7a27d5b,61ad72b97e028f1d19acf521,,,,,,,,,,,,,,,,,,,,,,,,,,,,,,,,,,,,,,,,,,
,,,,,,,,,,,,51.77514648,81.715271,1,0,0,response1disk_5,4,6.772705078,-12.12231445,1,0,0,rectangle_8,6.772705078,-12.12231445,1,0,0,-3,6.772705078,-12.12231445,1,0,0,0,5,5,3,1,trail2,trail2.jpg,trail2,trail2.jpg,60dcf6a5aa967e04dc3c10c2,001,2021-12-05_23h18.10.038,jm_natural_scene_simialrity_2-12-2021,2021.2.3,MacIntel,60.0024001,60dcf6a5aa967e04dc3c10c2,61ad71e11ddd29ccf7a27d5b,61ad72b97e028f1d19acf521,,,,,,,,,,,,,,,,,,,,,,,,,,,,,,,,,,,,,,,,,,
,,,,,,,,,,,,,,,,,,4,,,,,,,,,,,,,,,,,,,,,,,,,,,60dcf6a5aa967e04dc3c10c2,001,2021-12-05_23h18.10.038,jm_natural_scene_simialrity_2-12-2021,2021.2.3,MacIntel,60.0024001,60dcf6a5aa967e04dc3c10c2,61ad71e11ddd29ccf7a27d5b,61ad72b97e028f1d19acf521,,,,space,0.9433,54.60900879,110.4745483,1,0,0,response1disk,1.6671,8.00213623,18.6138916,1,0,0,rectangle,8.00213623,18.6138916,1,0,0,,-3,"[105,53,93,97,64,85,146,78,21,58]",8.00213623,18.6138916,1,0,0,0,0,0,24,1,DarkGreen,DarkGreen.jpg,DarkGreen,DarkGreen.jpg,,
,,,,,,,,,,,,,,,,,,-4,,,,,,,,,,,,,,,,,,,,,,,,,,,60dcf6a5aa967e04dc3c10c2,001,2021-12-05_23h18.10.038,jm_natural_scene_simialrity_2-12-2021,2021.2.3,MacIntel,60.0024001,60dcf6a5aa967e04dc3c10c2,61ad71e11ddd29ccf7a27d5b,61ad72b97e028f1d19acf521,,,,,,-40.47546387,70.18597412,1,0,0,response7disk,0.8678,-5.797546387,7.278015137,1,0,0,rectangle,-5.797546387,7.278015137,1,0,0,,-1,"[105,53,93,97,64,85,146,78,21,58]",-5.797546387,7.278015137,1,0,0,0,1,1,2,1,Red,Red.jpg,LightGreen,LightGreen.jpg,,
,,,,,,,,,,,,,,,,,,-3,,,,,,,,,,,,,,,,,,,,,,,,,,,60dcf6a5aa967e04dc3c10c2,001,2021-12-05_23h18.10.038,jm_natural_scene_simialrity_2-12-2021,2021.2.3,MacIntel,60.0024001,60dcf6a5aa967e04dc3c10c2,61ad71e11ddd29ccf7a27d5b,61ad72b97e028f1d19acf521,,,,,,-82.92150879,31.45355225,1,0,0,response7disk,1.8676,1.026733398,-0.063354492,1,0,0,rectangle,1.026733398,-0.063354492,1,0,0,,-1,"[105,53,93,97,64,85,146,78,21,58]",1.026733398,-0.063354492,1,0,0,0,2,2,74,1,Purple,Purple.jpg,Turquiose,Turquiose.jpg,,
,,,,,,,,,,,,,,,,,,-4,,,,,,,,,,,,,,,,,,,,,,,,,,,60dcf6a5aa967e04dc3c10c2,001,2021-12-05_23h18.10.038,jm_natural_scene_simialrity_2-12-2021,2021.2.3,MacIntel,60.0024001,60dcf6a5aa967e04dc3c10c2,61ad71e11ddd29ccf7a27d5b,61ad72b97e028f1d19acf521,,,,,,-34.96166992,108.6725464,1,0,0,response7disk,0.8691,1.273498535,6.280090332,1,0,0,rectangle,1.273498535,6.280090332,1,0,0,,-2,"[105,53,93,97,64,85,146,78,21,58]",1.273498535,6.280090332,1,0,0,0,3,3,69,1,Pink,Pink.jpg,DarkGreen,DarkGreen.jpg,,
,,,,,,,,,,,,,,,,,,-4,,,,,,,,,,,,,,,,,,,,,,,,,,,60dcf6a5aa967e04dc3c10c2,001,2021-12-05_23h18.10.038,jm_natural_scene_simialrity_2-12-2021,2021.2.3,MacIntel,60.0024001,60dcf6a5aa967e04dc3c10c2,61ad71e11ddd29ccf7a27d5b,61ad72b97e028f1d19acf521,,,,,,-39.43255615,65.65216064,1,0,0,response7disk,0.8484,-8.903808594,8.08416748,1,0,0,rectangle,-8.903808594,8.08416748,1,0,0,,-1,"[105,53,93,97,64,85,146,78,21,58]",-8.903808594,8.08416748,1,0,0,0,4,4,40,1,DarkBlue,DarkBlue.jpg,Pink,Pink.jpg,,
,,,,,,,,,,,,,,,,,,-4,,,,,,,,,,,,,,,,,,,,,,,,,,,60dcf6a5aa967e04dc3c10c2,001,2021-12-05_23h18.10.038,jm_natural_scene_simialrity_2-12-2021,2021.2.3,MacIntel,60.0024001,60dcf6a5aa967e04dc3c10c2,61ad71e11ddd29ccf7a27d5b,61ad72b97e028f1d19acf521,,,,,,-36.94226074,100.2041321,1,0,0,response7disk,1.0497,-4.438537598,-5.836425781,1,0,0,rectangle,-4.438537598,-5.836425781,1,0,0,,1,"[105,53,93,97,64,85,146,78,21,58]",-4.438537598,-5.836425781,1,0,0,0,5,5,29,1,DarkGreen,DarkGreen.jpg,Purple,Purple.jpg,,
,,,,,,,,,,,,,,,,,,4,,,,,,,,,,,,,,,,,,,,,,,,,,,60dcf6a5aa967e04dc3c10c2,001,2021-12-05_23h18.10.038,jm_natural_scene_simialrity_2-12-2021,2021.2.3,MacIntel,60.0024001,60dcf6a5aa967e04dc3c10c2,61ad71e11ddd29ccf7a27d5b,61ad72b97e028f1d19acf521,,,,,,39.93243408,104.9646606,1,0,0,response1disk,0.8652,-0.475097656,5.413726807,1,0,0,rectangle,-0.475097656,5.413726807,1,0,0,,-4,"[105,53,93,97,64,85,146,78,21,58]",-0.475097656,5.413726807,1,0,0,0,6,6,0,1,Red,Red.jpg,Red,Red.jpg,,
,,,,,,,,,,,,,,,,,,-4,,,,,,,,,,,,,,,,,,,,,,,,,,,60dcf6a5aa967e04dc3c10c2,001,2021-12-05_23h18.10.038,jm_natural_scene_simialrity_2-12-2021,2021.2.3,MacIntel,60.0024001,60dcf6a5aa967e04dc3c10c2,61ad71e11ddd29ccf7a27d5b,61ad72b97e028f1d19acf521,,,,,,-51.78948975,82.51000977,1,0,0,response7disk,1.3157,-6.295471191,8.688293457,1,0,0,rectangle,-6.295471191,8.688293457,1,0,0,,-2,"[105,53,93,97,64,85,146,78,21,58]",-6.295471191,8.688293457,1,0,0,0,7,7,12,1,Yellow,Yellow.jpg,Turquiose,Turquiose.jpg,,
,,,,,,,,,,,,,,,,,,-3,,,,,,,,,,,,,,,,,,,,,,,,,,,60dcf6a5aa967e04dc3c10c2,001,2021-12-05_23h18.10.038,jm_natural_scene_simialrity_2-12-2021,2021.2.3,MacIntel,60.0024001,60dcf6a5aa967e04dc3c10c2,61ad71e11ddd29ccf7a27d5b,61ad72b97e028f1d19acf521,,,,,,-75.93304443,40.10235596,1,0,0,response7disk,1.7517,-5.753540039,-1.999450684,1,0,0,rectangle,-5.753540039,-1.999450684,1,0,0,,-1,"[105,53,93,97,64,85,146,78,21,58]",-5.753540039,-1.999450684,1,0,0,0,8,8,41,1,DarkBlue,DarkBlue.jpg,Purple,Purple.jpg,,
,,,,,,,,,,,,,,,,,,-1,,,,,,,,,,,,,,,,,,,,,,,,,,,60dcf6a5aa967e04dc3c10c2,001,2021-12-05_23h18.10.038,jm_natural_scene_simialrity_2-12-2021,2021.2.3,MacIntel,60.0024001,60dcf6a5aa967e04dc3c10c2,61ad71e11ddd29ccf7a27d5b,61ad72b97e028f1d19acf521,,,,,,-61.32446289,-91.40594482,1,0,0,response5disk,1.9164,-5.780212402,13.04779053,1,0,0,rectangle,-5.780212402,13.04779053,1,0,0,,2,"[105,53,93,97,64,85,146,78,21,58]",-5.780212402,13.04779053,1,0,0,0,9,9,68,1,DarkBlue,DarkBlue.jpg,DarkGreen,DarkGreen.jpg,,
,,,,,,,,,,,,,,,,,,-3,,,,,,,,,,,,,,,,,,,,,,,,,,,60dcf6a5aa967e04dc3c10c2,001,2021-12-05_23h18.10.038,jm_natural_scene_simialrity_2-12-2021,2021.2.3,MacIntel,60.0024001,60dcf6a5aa967e04dc3c10c2,61ad71e11ddd29ccf7a27d5b,61ad72b97e028f1d19acf521,,,,,,-112.8125,44.90020752,1,0,0,response7disk,1.5704,5.346679688,0.923522949,1,0,0,rectangle,5.346679688,0.923522949,1,0,0,,-3,"[105,53,93,97,64,85,146,78,21,58]",5.346679688,0.923522949,1,0,0,0,10,10,49,1,LightBlue,LightBlue.jpg,Red,Red.jpg,,
,,,,,,,,,,,,,,,,,,1,,,,,,,,,,,,,,,,,,,,,,,,,,,60dcf6a5aa967e04dc3c10c2,001,2021-12-05_23h18.10.038,jm_natural_scene_simialrity_2-12-2021,2021.2.3,MacIntel,60.0024001,60dcf6a5aa967e04dc3c10c2,61ad71e11ddd29ccf7a27d5b,61ad72b97e028f1d19acf521,,,,,,58.70568848,-103.0168457,1,0,0,response3disk,1.6669,-6.364868164,5.302185059,1,0,0,rectangle,-6.364868164,5.302185059,1,0,0,,2,"[105,53,93,97,64,85,146,78,21,58]",-6.364868164,5.302185059,1,0,0,0,11,11,36,1,LightBlue,LightBlue.jpg,DarkBlue,DarkBlue.jpg,,
,,,,,,,,,,,,,,,,,,-3,,,,,,,,,,,,,,,,,,,,,,,,,,,60dcf6a5aa967e04dc3c10c2,001,2021-12-05_23h18.10.038,jm_natural_scene_simialrity_2-12-2021,2021.2.3,MacIntel,60.0024001,60dcf6a5aa967e04dc3c10c2,61ad71e11ddd29ccf7a27d5b,61ad72b97e028f1d19acf521,,,,,,-96.28039551,73.4569397,1,0,0,response7disk,1.3172,6.267700195,-20.91955566,1,0,0,rectangle,6.267700195,-20.91955566,1,0,0,,3,"[105,53,93,97,64,85,146,78,21,58]",6.267700195,-20.91955566,1,0,0,0,12,12,46,1,LightGreen,LightGreen.jpg,Red,Red.jpg,,
,,,,,,,,,,,,,,,,,,-3,,,,,,,,,,,,,,,,,,,,,,,,,,,60dcf6a5aa967e04dc3c10c2,001,2021-12-05_23h18.10.038,jm_natural_scene_simialrity_2-12-2021,2021.2.3,MacIntel,60.0024001,60dcf6a5aa967e04dc3c10c2,61ad71e11ddd29ccf7a27d5b,61ad72b97e028f1d19acf521,,,,,,-76.50738525,52.07608032,1,0,0,response7disk,1.2833,-7.998352051,-3.354553223,1,0,0,rectangle,-7.998352051,-3.354553223,1,0,0,,-3,"[105,53,93,97,64,85,146,78,21,58]",-7.998352051,-3.354553223,1,0,0,0,13,13,3,1,Red,Red.jpg,DarkGreen,DarkGreen.jpg,,
,,,,,,,,,,,,,,,,,,-2,,,,,,,,,,,,,,,,,,,,,,,,,,,60dcf6a5aa967e04dc3c10c2,001,2021-12-05_23h18.10.038,jm_natural_scene_simialrity_2-12-2021,2021.2.3,MacIntel,60.0024001,60dcf6a5aa967e04dc3c10c2,61ad71e11ddd29ccf7a27d5b,61ad72b97e028f1d19acf521,,,,,,-85.24243164,-60.24951172,1,0,0,response5disk,1.6168,10.08959961,4.573120117,1,0,0,rectangle,10.08959961,4.573120117,1,0,0,,3,"[105,53,93,97,64,85,146,78,21,58]",10.08959961,4.573120117,1,0,0,0,14,14,4,1,Red,Red.jpg,Turquiose,Turquiose.jpg,,
,,,,,,,,,,,,,,,,,,-1,,,,,,,,,,,,,,,,,,,,,,,,,,,60dcf6a5aa967e04dc3c10c2,001,2021-12-05_23h18.10.038,jm_natural_scene_simialrity_2-12-2021,2021.2.3,MacIntel,60.0024001,60dcf6a5aa967e04dc3c10c2,61ad71e11ddd29ccf7a27d5b,61ad72b97e028f1d19acf521,,,,,,-41.8324585,-101.0766602,1,0,0,response5disk,1.7991,-7.083129883,-3.10269165,1,0,0,rectangle,-7.083129883,-3.10269165,1,0,0,,-1,"[105,53,93,97,64,85,146,78,21,58]",-7.083129883,-3.10269165,1,0,0,0,15,15,63,1,DarkBlue,DarkBlue.jpg,LightGreen,LightGreen.jpg,,
,,,,,,,,,,,,,,,,,,-3,,,,,,,,,,,,,,,,,,,,,,,,,,,60dcf6a5aa967e04dc3c10c2,001,2021-12-05_23h18.10.038,jm_natural_scene_simialrity_2-12-2021,2021.2.3,MacIntel,60.0024001,60dcf6a5aa967e04dc3c10c2,61ad71e11ddd29ccf7a27d5b,61ad72b97e028f1d19acf521,,,,,,-101.2536621,59.40789795,1,0,0,response7disk,1.1329,-17.13873291,14.31533813,1,0,0,rectangle,-17.13873291,14.31533813,1,0,0,,3,"[105,53,93,97,64,85,146,78,21,58]",-17.13873291,14.31533813,1,0,0,0,16,16,59,1,Purple,Purple.jpg,Yellow,Yellow.jpg,,
,,,,,,,,,,,,,,,,,,-3,,,,,,,,,,,,,,,,,,,,,,,,,,,60dcf6a5aa967e04dc3c10c2,001,2021-12-05_23h18.10.038,jm_natural_scene_simialrity_2-12-2021,2021.2.3,MacIntel,60.0024001,60dcf6a5aa967e04dc3c10c2,61ad71e11ddd29ccf7a27d5b,61ad72b97e028f1d19acf521,,,,,,-62.00268555,37.33197021,1,0,0,response7disk,0.8637,-4.360839844,-2.252197266,1,0,0,rectangle,-4.360839844,-2.252197266,1,0,0,,3,"[105,53,93,97,64,85,146,78,21,58]",-4.360839844,-2.252197266,1,0,0,0,17,17,11,1,Yellow,Yellow.jpg,DarkGreen,DarkGreen.jpg,,
,,,,,,,,,,,,,,,,,,1,,,,,,,,,,,,,,,,,,,,,,,,,,,60dcf6a5aa967e04dc3c10c2,001,2021-12-05_23h18.10.038,jm_natural_scene_simialrity_2-12-2021,2021.2.3,MacIntel,60.0024001,60dcf6a5aa967e04dc3c10c2,61ad71e11ddd29ccf7a27d5b,61ad72b97e028f1d19acf521,,,,,,69.84088135,-97.00177002,1,0,0,response3disk,1.8336,-18.14172363,16.46295166,1,0,0,rectangle,-18.14172363,16.46295166,1,0,0,,-3,"[105,53,93,97,64,85,146,78,21,58]",-18.14172363,16.46295166,1,0,0,0,18,18,25,1,DarkGreen,DarkGreen.jpg,Turquiose,Turquiose.jpg,,
,,,,,,,,,,,,,,,,,,1,,,,,,,,,,,,,,,,,,,,,,,,,,,60dcf6a5aa967e04dc3c10c2,001,2021-12-05_23h18.10.038,jm_natural_scene_simialrity_2-12-2021,2021.2.3,MacIntel,60.0024001,60dcf6a5aa967e04dc3c10c2,61ad71e11ddd29ccf7a27d5b,61ad72b97e028f1d19acf521,,,,,,58.11743164,-110.8583984,1,0,0,response3disk,1.2669,2.023498535,-0.82131958,1,0,0,rectangle,2.023498535,-0.82131958,1,0,0,,-3,"[105,53,93,97,64,85,146,78,21,58]",2.023498535,-0.82131958,1,0,0,0,19,19,75,1,DarkBlue,DarkBlue.jpg,LightBlue,LightBlue.jpg,,
,,,,,,,,,,,,,,,,,,-3,,,,,,,,,,,,,,,,,,,,,,,,,,,60dcf6a5aa967e04dc3c10c2,001,2021-12-05_23h18.10.038,jm_natural_scene_simialrity_2-12-2021,2021.2.3,MacIntel,60.0024001,60dcf6a5aa967e04dc3c10c2,61ad71e11ddd29ccf7a27d5b,61ad72b97e028f1d19acf521,,,,,,-96.80163574,42.01397705,1,0,0,response7disk,0.9316,-14.12493896,-2.673339844,1,0,0,rectangle,-37.92993164,-91.81640625,1,0,0,-1,-1,"[105,53,93,97,64,85,146,78,21,58]",7.552185059,7.051696777,1,0,0,0,20,20,52,1,Purple,Purple.jpg,Red,Red.jpg,response5disk_3,rectangle
,,,,,,,,,,,,,,,,,,4,,,,,,,,,,,,,,,,,,,,,,,,,,,60dcf6a5aa967e04dc3c10c2,001,2021-12-05_23h18.10.038,jm_natural_scene_simialrity_2-12-2021,2021.2.3,MacIntel,60.0024001,60dcf6a5aa967e04dc3c10c2,61ad71e11ddd29ccf7a27d5b,61ad72b97e028f1d19acf521,,,,,,37.03204346,94.51153564,1,0,0,response1disk,0.8499,0.559265137,17.34622192,1,0,0,rectangle,0.559265137,17.34622192,1,0,0,-1,1,"[105,53,93,97,64,85,146,78,21,58]",0.559265137,17.34622192,1,0,0,0,21,21,44,1,Purple,Purple.jpg,Purple,Purple.jpg,,
,,,,,,,,,,,,,,,,,,-3,,,,,,,,,,,,,,,,,,,,,,,,,,,60dcf6a5aa967e04dc3c10c2,001,2021-12-05_23h18.10.038,jm_natural_scene_simialrity_2-12-2021,2021.2.3,MacIntel,60.0024001,60dcf6a5aa967e04dc3c10c2,61ad71e11ddd29ccf7a27d5b,61ad72b97e028f1d19acf521,,,,,,-77.85772705,45.24121094,1,0,0,response7disk,0.8846,8.708435059,-0.287200928,1,0,0,rectangle,8.708435059,-0.287200928,1,0,0,-1,-4,"[105,53,93,97,64,85,146,78,21,58]",8.708435059,-0.287200928,1,0,0,0,22,22,57,1,DarkBlue,DarkBlue.jpg,Yellow,Yellow.jpg,,
,,,,,,,,,,,,,,,,,,-1,,,,,,,,,,,,,,,,,,,,,,,,,,,60dcf6a5aa967e04dc3c10c2,001,2021-12-05_23h18.10.038,jm_natural_scene_simialrity_2-12-2021,2021.2.3,MacIntel,60.0024001,60dcf6a5aa967e04dc3c10c2,61ad71e11ddd29ccf7a27d5b,61ad72b97e028f1d19acf521,,,,,,-65.35009766,-117.6658936,1,0,0,response5disk,2.2999,4.339477539,20.82183838,1,0,0,rectangle,4.339477539,20.82183838,1,0,0,-1,-2,"[105,53,93,97,64,85,146,78,21,58]",4.339477539,20.82183838,1,0,0,0,23,23,27,1,DarkGreen,DarkGreen.jpg,DarkBlue,DarkBlue.jpg,,
,,,,,,,,,,,,,,,,,,-4,,,,,,,,,,,,,,,,,,,,,,,,,,,60dcf6a5aa967e04dc3c10c2,001,2021-12-05_23h18.10.038,jm_natural_scene_simialrity_2-12-2021,2021.2.3,MacIntel,60.0024001,60dcf6a5aa967e04dc3c10c2,61ad71e11ddd29ccf7a27d5b,61ad72b97e028f1d19acf521,,,,,,-47.43725586,90.43963623,1,0,0,response7disk,1.3328,4.202941895,6.24621582,1,0,0,rectangle,4.202941895,6.24621582,1,0,0,-1,3,"[105,53,93,97,64,85,146,78,21,58]",4.202941895,6.24621582,1,0,0,0,24,24,16,1,Yellow,Yellow.jpg,Purple,Purple.jpg,,
,,,,,,,,,,,,,,,,,,-3,,,,,,,,,,,,,,,,,,,,,,,,,,,60dcf6a5aa967e04dc3c10c2,001,2021-12-05_23h18.10.038,jm_natural_scene_simialrity_2-12-2021,2021.2.3,MacIntel,60.0024001,60dcf6a5aa967e04dc3c10c2,61ad71e11ddd29ccf7a27d5b,61ad72b97e028f1d19acf521,,,,,,-85.08557129,21.65597534,1,0,0,response7disk,1.3244,-9.757873535,-11.44378662,1,0,0,rectangle,-9.757873535,-11.44378662,1,0,0,-1,1,"[105,53,93,97,64,85,146,78,21,58]",-9.757873535,-11.44378662,1,0,0,0,25,25,33,1,Turquiose,Turquiose.jpg,Pink,Pink.jpg,,
,,,,,,,,,,,,,,,,,,-1,,,,,,,,,,,,,,,,,,,,,,,,,,,60dcf6a5aa967e04dc3c10c2,001,2021-12-05_23h18.10.038,jm_natural_scene_simialrity_2-12-2021,2021.2.3,MacIntel,60.0024001,60dcf6a5aa967e04dc3c10c2,61ad71e11ddd29ccf7a27d5b,61ad72b97e028f1d19acf521,,,,,,-60.22485352,-98.5690918,1,0,0,response5disk,1.8378,-11.8572998,-9.007568359,1,0,0,rectangle,-11.8572998,-9.007568359,1,0,0,-1,1,"[105,53,93,97,64,85,146,78,21,58]",-11.8572998,-9.007568359,1,0,0,0,26,26,20,1,LightGreen,LightGreen.jpg,LightBlue,LightBlue.jpg,,
,,,,,,,,,,,,,,,,,,-1,,,,,,,,,,,,,,,,,,,,,,,,,,,60dcf6a5aa967e04dc3c10c2,001,2021-12-05_23h18.10.038,jm_natural_scene_simialrity_2-12-2021,2021.2.3,MacIntel,60.0024001,60dcf6a5aa967e04dc3c10c2,61ad71e11ddd29ccf7a27d5b,61ad72b97e028f1d19acf521,,,,,,-46.71514893,-88.59375,1,0,0,response5disk,2.0635,2.590332031,0.081451416,1,0,0,rectangle,2.590332031,0.081451416,1,0,0,-1,-4,"[105,53,93,97,64,85,146,78,21,58]",2.590332031,0.081451416,1,0,0,0,27,27,80,1,Purple,Purple.jpg,Pink,Pink.jpg,,
,,,,,,,,,,,,,,,,,,-3,,,,,,,,,,,,,,,,,,,,,,,,,,,60dcf6a5aa967e04dc3c10c2,001,2021-12-05_23h18.10.038,jm_natural_scene_simialrity_2-12-2021,2021.2.3,MacIntel,60.0024001,60dcf6a5aa967e04dc3c10c2,61ad71e11ddd29ccf7a27d5b,61ad72b97e028f1d19acf521,,,,,,-57.62237549,23.87072754,1,0,0,response7disk,3.1854,-8.038574219,-17.59576416,1,0,0,rectangle,-8.038574219,-17.59576416,1,0,0,-1,2,"[105,53,93,97,64,85,146,78,21,58]",-8.038574219,-17.59576416,1,0,0,0,28,28,65,1,Purple,Purple.jpg,LightGreen,LightGreen.jpg,,
,,,,,,,,,,,,,,,,,,2,,,,,,,,,,,,,,,,,,,,,,,,,,,60dcf6a5aa967e04dc3c10c2,001,2021-12-05_23h18.10.038,jm_natural_scene_simialrity_2-12-2021,2021.2.3,MacIntel,60.0024001,60dcf6a5aa967e04dc3c10c2,61ad71e11ddd29ccf7a27d5b,61ad72b97e028f1d19acf521,,,,,,123.5139771,-73.40649414,1,0,0,response3disk,1.5996,-13.16748047,6.644775391,1,0,0,rectangle,-13.16748047,6.644775391,1,0,0,-1,-2,"[105,53,93,97,64,85,146,78,21,58]",-13.16748047,6.644775391,1,0,0,0,29,29,77,1,Purple,Purple.jpg,LightBlue,LightBlue.jpg,,
,,,,,,,,,,,,,,,,,,-2,,,,,,,,,,,,,,,,,,,,,,,,,,,60dcf6a5aa967e04dc3c10c2,001,2021-12-05_23h18.10.038,jm_natural_scene_simialrity_2-12-2021,2021.2.3,MacIntel,60.0024001,60dcf6a5aa967e04dc3c10c2,61ad71e11ddd29ccf7a27d5b,61ad72b97e028f1d19acf521,,,,,,-94.56176758,-50.7427063,1,0,0,response5disk,1.5074,-5.671630859,-7.35168457,1,0,0,rectangle,-5.671630859,-7.35168457,1,0,0,-1,-1,"[105,53,93,97,64,85,146,78,21,58]",-5.671630859,-7.35168457,1,0,0,0,30,30,26,1,DarkGreen,DarkGreen.jpg,LightBlue,LightBlue.jpg,,
,,,,,,,,,,,,,,,,,,1,,,,,,,,,,,,,,,,,,,,,,,,,,,60dcf6a5aa967e04dc3c10c2,001,2021-12-05_23h18.10.038,jm_natural_scene_simialrity_2-12-2021,2021.2.3,MacIntel,60.0024001,60dcf6a5aa967e04dc3c10c2,61ad71e11ddd29ccf7a27d5b,61ad72b97e028f1d19acf521,,,,,,47.14923096,-101.8762817,1,0,0,response3disk,1.6154,-6.459411621,-4.514587402,1,0,0,rectangle,-6.459411621,-4.514587402,1,0,0,-1,-1,"[105,53,93,97,64,85,146,78,21,58]",-6.459411621,-4.514587402,1,0,0,0,31,31,23,1,LightGreen,LightGreen.jpg,Purple,Purple.jpg,,
,,,,,,,,,,,,,,,,,,-4,,,,,,,,,,,,,,,,,,,,,,,,,,,60dcf6a5aa967e04dc3c10c2,001,2021-12-05_23h18.10.038,jm_natural_scene_simialrity_2-12-2021,2021.2.3,MacIntel,60.0024001,60dcf6a5aa967e04dc3c10c2,61ad71e11ddd29ccf7a27d5b,61ad72b97e028f1d19acf521,,,,,,-49.77307129,81.65774536,1,0,0,response7disk,0.9673,2.962463379,-8.704040527,1,0,0,rectangle,2.962463379,-8.704040527,1,0,0,-1,-2,"[105,53,93,97,64,85,146,78,21,58]",2.962463379,-8.704040527,1,0,0,0,32,32,14,1,Yellow,Yellow.jpg,DarkBlue,DarkBlue.jpg,,
,,,,,,,,,,,,,,,,,,-4,,,,,,,,,,,,,,,,,,,,,,,,,,,60dcf6a5aa967e04dc3c10c2,001,2021-12-05_23h18.10.038,jm_natural_scene_simialrity_2-12-2021,2021.2.3,MacIntel,60.0024001,60dcf6a5aa967e04dc3c10c2,61ad71e11ddd29ccf7a27d5b,61ad72b97e028f1d19acf521,,,,,,-36.29693604,75.56137085,1,0,0,response7disk,1.0502,6.476379395,-2.085327148,1,0,0,rectangle,6.476379395,-2.085327148,1,0,0,-1,1,"[105,53,93,97,64,85,146,78,21,58]",6.476379395,-2.085327148,1,0,0,0,33,33,79,1,Purple,Purple.jpg,DarkBlue,DarkBlue.jpg,,
,,,,,,,,,,,,,,,,,,-3,,,,,,,,,,,,,,,,,,,,,,,,,,,60dcf6a5aa967e04dc3c10c2,001,2021-12-05_23h18.10.038,jm_natural_scene_simialrity_2-12-2021,2021.2.3,MacIntel,60.0024001,60dcf6a5aa967e04dc3c10c2,61ad71e11ddd29ccf7a27d5b,61ad72b97e028f1d19acf521,,,,,,-81.45739746,23.99151611,1,0,0,response7disk,1.3491,-14.05249023,-3.837646484,1,0,0,rectangle,-14.05249023,-3.837646484,1,0,0,-1,2,"[105,53,93,97,64,85,146,78,21,58]",-14.05249023,-3.837646484,1,0,0,0,34,34,47,1,DarkGreen,DarkGreen.jpg,Red,Red.jpg,,
,,,,,,,,,,,,,,,,,,-1,,,,,,,,,,,,,,,,,,,,,,,,,,,60dcf6a5aa967e04dc3c10c2,001,2021-12-05_23h18.10.038,jm_natural_scene_simialrity_2-12-2021,2021.2.3,MacIntel,60.0024001,60dcf6a5aa967e04dc3c10c2,61ad71e11ddd29ccf7a27d5b,61ad72b97e028f1d19acf521,,,,,,-43.16210938,-89.2668457,1,0,0,response5disk,1.5771,-9.013916016,-0.467956543,1,0,0,rectangle,-9.013916016,-0.467956543,1,0,0,-1,-2,"[105,53,93,97,64,85,146,78,21,58]",-9.013916016,-0.467956543,1,0,0,0,35,35,43,1,Pink,Pink.jpg,Purple,Purple.jpg,,
,,,,,,,,,,,,,,,,,,-1,,,,,,,,,,,,,,,,,,,,,,,,,,,60dcf6a5aa967e04dc3c10c2,001,2021-12-05_23h18.10.038,jm_natural_scene_simialrity_2-12-2021,2021.2.3,MacIntel,60.0024001,60dcf6a5aa967e04dc3c10c2,61ad71e11ddd29ccf7a27d5b,61ad72b97e028f1d19acf521,,,,,,-47.84185791,-79.00567627,1,0,0,response5disk,1.3008,-0.036376953,4.759094238,1,0,0,rectangle,-0.036376953,4.759094238,1,0,0,-1,3,"[105,53,93,97,64,85,146,78,21,58]",-0.036376953,4.759094238,1,0,0,0,36,36,5,1,Red,Red.jpg,LightBlue,LightBlue.jpg,,
,,,,,,,,,,,,,,,,,,2,,,,,,,,,,,,,,,,,,,,,,,,,,,60dcf6a5aa967e04dc3c10c2,001,2021-12-05_23h18.10.038,jm_natural_scene_simialrity_2-12-2021,2021.2.3,MacIntel,60.0024001,60dcf6a5aa967e04dc3c10c2,61ad71e11ddd29ccf7a27d5b,61ad72b97e028f1d19acf521,,,,,,107.2578125,-50.36898804,1,0,0,response3disk,1.5998,5.364990234,6.958190918,1,0,0,rectangle,5.364990234,6.958190918,1,0,0,-1,2,"[105,53,93,97,64,85,146,78,21,58]",5.364990234,6.958190918,1,0,0,0,37,37,45,1,Yellow,Yellow.jpg,Red,Red.jpg,,
,,,,,,,,,,,,,,,,,,3,,,,,,,,,,,,,,,,,,,,,,,,,,,60dcf6a5aa967e04dc3c10c2,001,2021-12-05_23h18.10.038,jm_natural_scene_simialrity_2-12-2021,2021.2.3,MacIntel,60.0024001,60dcf6a5aa967e04dc3c10c2,61ad71e11ddd29ccf7a27d5b,61ad72b97e028f1d19acf521,,,,,,88.39868164,26.97070313,1,0,0,response1disk,0.9503,5.956054688,15.03982544,1,0,0,rectangle,5.956054688,15.03982544,1,0,0,-1,-4,"[105,53,93,97,64,85,146,78,21,58]",5.956054688,15.03982544,1,0,0,0,38,38,38,1,LightBlue,LightBlue.jpg,Purple,Purple.jpg,,
,,,,,,,,,,,,,,,,,,3,,,,,,,,,,,,,,,,,,,,,,,,,,,60dcf6a5aa967e04dc3c10c2,001,2021-12-05_23h18.10.038,jm_natural_scene_simialrity_2-12-2021,2021.2.3,MacIntel,60.0024001,60dcf6a5aa967e04dc3c10c2,61ad71e11ddd29ccf7a27d5b,61ad72b97e028f1d19acf521,,,,,,94.15960693,57.40087891,1,0,0,response1disk,0.915,4.249328613,10.2086792,1,0,0,rectangle,4.249328613,10.2086792,1,0,0,-1,2,"[105,53,93,97,64,85,146,78,21,58]",4.249328613,10.2086792,1,0,0,0,39,39,60,1,DarkGreen,DarkGreen.jpg,LightGreen,LightGreen.jpg,,
,,,,,,,,,,,,,,,,,,1,,,,,,,,,,,,,,,,,,,,,,,,,,,60dcf6a5aa967e04dc3c10c2,001,2021-12-05_23h18.10.038,jm_natural_scene_simialrity_2-12-2021,2021.2.3,MacIntel,60.0024001,60dcf6a5aa967e04dc3c10c2,61ad71e11ddd29ccf7a27d5b,61ad72b97e028f1d19acf521,,,,,,67.26867676,-106.1243286,1,0,0,response3disk,1.2002,11.46942139,-5.136169434,1,0,0,rectangle,11.46942139,-5.136169434,1,0,0,-1,-4,"[105,53,93,97,64,85,146,78,21,58]",11.46942139,-5.136169434,1,0,0,0,40,40,19,1,LightGreen,LightGreen.jpg,Turquiose,Turquiose.jpg,,
,,,,,,,,,,,,,,,,,,-4,,,,,,,,,,,,,,,,,,,,,,,,,,,60dcf6a5aa967e04dc3c10c2,001,2021-12-05_23h18.10.038,jm_natural_scene_simialrity_2-12-2021,2021.2.3,MacIntel,60.0024001,60dcf6a5aa967e04dc3c10c2,61ad71e11ddd29ccf7a27d5b,61ad72b97e028f1d19acf521,,,,,,-60.65686035,92.79931641,1,0,0,response7disk,1.3326,-8.61920166,-0.403564453,1,0,0,rectangle,-8.61920166,-0.403564453,1,0,0,-1,3,"[105,53,93,97,64,85,146,78,21,58]",-8.61920166,-0.403564453,1,0,0,0,41,41,55,1,Turquiose,Turquiose.jpg,Yellow,Yellow.jpg,,
,,,,,,,,,,,,,,,,,,1,,,,,,,,,,,,,,,,,,,,,,,,,,,60dcf6a5aa967e04dc3c10c2,001,2021-12-05_23h18.10.038,jm_natural_scene_simialrity_2-12-2021,2021.2.3,MacIntel,60.0024001,60dcf6a5aa967e04dc3c10c2,61ad71e11ddd29ccf7a27d5b,61ad72b97e028f1d19acf521,,,,,,46.74157715,-94.46618652,1,0,0,response3disk,1.1999,4.830444336,-0.203674316,1,0,0,rectangle,4.830444336,-0.203674316,1,0,0,-1,3,"[105,53,93,97,64,85,146,78,21,58]",4.830444336,-0.203674316,1,0,0,0,42,42,76,1,Pink,Pink.jpg,LightBlue,LightBlue.jpg,,
,,,,,,,,,,,,,,,,,,-2,,,,,,,,,,,,,,,,,,,,,,,,,,,60dcf6a5aa967e04dc3c10c2,001,2021-12-05_23h18.10.038,jm_natural_scene_simialrity_2-12-2021,2021.2.3,MacIntel,60.0024001,60dcf6a5aa967e04dc3c10c2,61ad71e11ddd29ccf7a27d5b,61ad72b97e028f1d19acf521,,,,,,-99.97412109,-41.26635742,1,0,0,response5disk,1.3342,-15.95257568,-17.05505371,1,0,0,rectangle,-15.95257568,-17.05505371,1,0,0,-1,2,"[105,53,93,97,64,85,146,78,21,58]",-15.95257568,-17.05505371,1,0,0,0,43,43,28,1,DarkGreen,DarkGreen.jpg,Pink,Pink.jpg,,
,,,,,,,,,,,,,,,,,,-3,,,,,,,,,,,,,,,,,,,,,,,,,,,60dcf6a5aa967e04dc3c10c2,001,2021-12-05_23h18.10.038,jm_natural_scene_simialrity_2-12-2021,2021.2.3,MacIntel,60.0024001,60dcf6a5aa967e04dc3c10c2,61ad71e11ddd29ccf7a27d5b,61ad72b97e028f1d19acf521,,,,,,-83.25054932,44.92578125,1,0,0,response7disk,0.8172,12.59564209,11.49078369,1,0,0,rectangle,12.59564209,11.49078369,1,0,0,-1,-1,"[105,53,93,97,64,85,146,78,21,58]",12.59564209,11.49078369,1,0,0,0,44,44,53,1,LightGreen,LightGreen.jpg,Yellow,Yellow.jpg,,
,,,,,,,,,,,,,,,,,,3,,,,,,,,,,,,,,,,,,,,,,,,,,,60dcf6a5aa967e04dc3c10c2,001,2021-12-05_23h18.10.038,jm_natural_scene_simialrity_2-12-2021,2021.2.3,MacIntel,60.0024001,60dcf6a5aa967e04dc3c10c2,61ad71e11ddd29ccf7a27d5b,61ad72b97e028f1d19acf521,,,,,,92.35076904,52.14031982,1,0,0,response1disk,1.1994,-4.094665527,15.18395996,1,0,0,rectangle,-4.094665527,15.18395996,1,0,0,-1,1,"[105,53,93,97,64,85,146,78,21,58]",-4.094665527,15.18395996,1,0,0,0,45,45,18,1,LightGreen,LightGreen.jpg,DarkGreen,DarkGreen.jpg,,
,,,,,,,,,,,,,,,,,,1,,,,,,,,,,,,,,,,,,,,,,,,,,,60dcf6a5aa967e04dc3c10c2,001,2021-12-05_23h18.10.038,jm_natural_scene_simialrity_2-12-2021,2021.2.3,MacIntel,60.0024001,60dcf6a5aa967e04dc3c10c2,61ad71e11ddd29ccf7a27d5b,61ad72b97e028f1d19acf521,,,,,,74.79284668,-104.1702881,1,0,0,response3disk,1.2988,8.841064453,13.9515686,1,0,0,rectangle,8.841064453,13.9515686,1,0,0,-1,-3,"[105,53,93,97,64,85,146,78,21,58]",8.841064453,13.9515686,1,0,0,0,46,46,62,1,LightBlue,LightBlue.jpg,LightGreen,LightGreen.jpg,,
,,,,,,,,,,,,,,,,,,-3,,,,,,,,,,,,,,,,,,,,,,,,,,,60dcf6a5aa967e04dc3c10c2,001,2021-12-05_23h18.10.038,jm_natural_scene_simialrity_2-12-2021,2021.2.3,MacIntel,60.0024001,60dcf6a5aa967e04dc3c10c2,61ad71e11ddd29ccf7a27d5b,61ad72b97e028f1d19acf521,,,,,,-85.59326172,55.21746826,1,0,0,response7disk,1.0991,13.65136719,3.637145996,1,0,0,rectangle,13.65136719,3.637145996,1,0,0,-1,-4,"[105,53,93,97,64,85,146,78,21,58]",13.65136719,3.637145996,1,0,0,0,47,47,64,1,Pink,Pink.jpg,LightGreen,LightGreen.jpg,,
,,,,,,,,,,,,,,,,,,1,,,,,,,,,,,,,,,,,,,,,,,,,,,60dcf6a5aa967e04dc3c10c2,001,2021-12-05_23h18.10.038,jm_natural_scene_simialrity_2-12-2021,2021.2.3,MacIntel,60.0024001,60dcf6a5aa967e04dc3c10c2,61ad71e11ddd29ccf7a27d5b,61ad72b97e028f1d19acf521,,,,,,39.95770264,-117.4579468,1,0,0,response3disk,1.7402,-12.43664551,11.61322021,1,0,0,rectangle,-12.43664551,11.61322021,1,0,0,-1,-3,"[105,53,93,97,64,85,146,78,21,58]",-12.43664551,11.61322021,1,0,0,0,48,48,31,1,Turquiose,Turquiose.jpg,LightBlue,LightBlue.jpg,,
,,,,,,,,,,,,,,,,,,-3,,,,,,,,,,,,,,,,,,,,,,,,,,,60dcf6a5aa967e04dc3c10c2,001,2021-12-05_23h18.10.038,jm_natural_scene_simialrity_2-12-2021,2021.2.3,MacIntel,60.0024001,60dcf6a5aa967e04dc3c10c2,61ad71e11ddd29ccf7a27d5b,61ad72b97e028f1d19acf521,,,,,,-74.20410156,45.63916016,1,0,0,response7disk,0.9563,-14.44567871,2.746582031,1,0,0,rectangle,-14.44567871,2.746582031,1,0,0,-1,1,"[105,53,93,97,64,85,146,78,21,58]",-14.44567871,2.746582031,1,0,0,0,49,49,34,1,Turquiose,Turquiose.jpg,Purple,Purple.jpg,,
,,,,,,,,,,,,,,,,,,1,,,,,,,,,,,,,,,,,,,,,,,,,,,60dcf6a5aa967e04dc3c10c2,001,2021-12-05_23h18.10.038,jm_natural_scene_simialrity_2-12-2021,2021.2.3,MacIntel,60.0024001,60dcf6a5aa967e04dc3c10c2,61ad71e11ddd29ccf7a27d5b,61ad72b97e028f1d19acf521,,,,,,53.46954346,-114.4620361,1,0,0,response3disk,1.1652,12.90197754,0.294555664,1,0,0,rectangle,12.90197754,0.294555664,1,0,0,-1,1,"[105,53,93,97,64,85,146,78,21,58]",12.90197754,0.294555664,1,0,0,0,50,50,66,1,Turquiose,Turquiose.jpg,DarkGreen,DarkGreen.jpg,,
,,,,,,,,,,,,,,,,,,4,,,,,,,,,,,,,,,,,,,,,,,,,,,60dcf6a5aa967e04dc3c10c2,001,2021-12-05_23h18.10.038,jm_natural_scene_simialrity_2-12-2021,2021.2.3,MacIntel,60.0024001,60dcf6a5aa967e04dc3c10c2,61ad71e11ddd29ccf7a27d5b,61ad72b97e028f1d19acf521,,,,,,44.78356934,73.70343018,1,0,0,response1disk,0.8158,11.8215332,10.30926514,1,0,0,rectangle,11.8215332,10.30926514,1,0,0,-1,2,"[105,53,93,97,64,85,146,78,21,58]",11.8215332,10.30926514,1,0,0,0,51,51,39,1,DarkBlue,DarkBlue.jpg,DarkBlue,DarkBlue.jpg,,
,,,,,,,,,,,,,,,,,,1,,,,,,,,,,,,,,,,,,,,,,,,,,,60dcf6a5aa967e04dc3c10c2,001,2021-12-05_23h18.10.038,jm_natural_scene_simialrity_2-12-2021,2021.2.3,MacIntel,60.0024001,60dcf6a5aa967e04dc3c10c2,61ad71e11ddd29ccf7a27d5b,61ad72b97e028f1d19acf521,,,,,,46.41680908,-127.2914429,1,0,0,response3disk,1.2331,6.071472168,-15.72979736,1,0,0,rectangle,-31.53479004,-88.83740234,1,0,0,-1,-1,"[105,53,93,97,64,85,146,78,21,58]",2.676574707,-2.608337402,1,0,0,0,52,52,32,1,Turquiose,Turquiose.jpg,DarkBlue,DarkBlue.jpg,response5disk_3,rectangle
,,,,,,,,,,,,,,,,,,-3,,,,,,,,,,,,,,,,,,,,,,,,,,,60dcf6a5aa967e04dc3c10c2,001,2021-12-05_23h18.10.038,jm_natural_scene_simialrity_2-12-2021,2021.2.3,MacIntel,60.0024001,60dcf6a5aa967e04dc3c10c2,61ad71e11ddd29ccf7a27d5b,61ad72b97e028f1d19acf521,,,,,,-57.85253906,47.71646118,1,0,0,response7disk,0.7665,8.53503418,-4.325744629,1,0,0,rectangle,8.53503418,-4.325744629,1,0,0,-1,-1,"[105,53,93,97,64,85,146,78,21,58]",8.53503418,-4.325744629,1,0,0,0,53,53,50,1,DarkBlue,DarkBlue.jpg,Red,Red.jpg,,
,,,,,,,,,,,,,,,,,,2,,,,,,,,,,,,,,,,,,,,,,,,,,,60dcf6a5aa967e04dc3c10c2,001,2021-12-05_23h18.10.038,jm_natural_scene_simialrity_2-12-2021,2021.2.3,MacIntel,60.0024001,60dcf6a5aa967e04dc3c10c2,61ad71e11ddd29ccf7a27d5b,61ad72b97e028f1d19acf521,,,,,,118.3691406,-56.83135986,1,0,0,response3disk,1.4357,-12.21038818,-2.921508789,1,0,0,rectangle,-12.21038818,-2.921508789,1,0,0,-1,-1,"[105,53,93,97,64,85,146,78,21,58]",-12.21038818,-2.921508789,1,0,0,0,54,54,1,1,Red,Red.jpg,Yellow,Yellow.jpg,,
,,,,,,,,,,,,,,,,,,-4,,,,,,,,,,,,,,,,,,,,,,,,,,,60dcf6a5aa967e04dc3c10c2,001,2021-12-05_23h18.10.038,jm_natural_scene_simialrity_2-12-2021,2021.2.3,MacIntel,60.0024001,60dcf6a5aa967e04dc3c10c2,61ad71e11ddd29ccf7a27d5b,61ad72b97e028f1d19acf521,,,,,,-46.51385498,92.11096191,1,0,0,response7disk,0.8511,-6.74597168,2.932006836,1,0,0,rectangle,-6.74597168,2.932006836,1,0,0,-1,1,"[105,53,93,97,64,85,146,78,21,58]",-6.74597168,2.932006836,1,0,0,0,55,55,78,1,Pink,Pink.jpg,DarkBlue,DarkBlue.jpg,,
,,,,,,,,,,,,,,,,,,-2,,,,,,,,,,,,,,,,,,,,,,,,,,,60dcf6a5aa967e04dc3c10c2,001,2021-12-05_23h18.10.038,jm_natural_scene_simialrity_2-12-2021,2021.2.3,MacIntel,60.0024001,60dcf6a5aa967e04dc3c10c2,61ad71e11ddd29ccf7a27d5b,61ad72b97e028f1d19acf521,,,,,,-90.08288574,-48.097229,1,0,0,response5disk,1.4834,-7.023925781,-14.89041138,1,0,0,rectangle,-7.023925781,-14.89041138,1,0,0,-1,-1,"[105,53,93,97,64,85,146,78,21,58]",-7.023925781,-14.89041138,1,0,0,0,56,56,70,1,Purple,Purple.jpg,DarkGreen,DarkGreen.jpg,,
,,,,,,,,,,,,,,,,,,1,,,,,,,,,,,,,,,,,,,,,,,,,,,60dcf6a5aa967e04dc3c10c2,001,2021-12-05_23h18.10.038,jm_natural_scene_simialrity_2-12-2021,2021.2.3,MacIntel,60.0024001,60dcf6a5aa967e04dc3c10c2,61ad71e11ddd29ccf7a27d5b,61ad72b97e028f1d19acf521,,,,,,64.77215576,-114.5736084,1,0,0,response3disk,1.3866,6.312194824,4.542999268,1,0,0,rectangle,-97.76721191,57.66015625,1,0,0,-3,-3,"[105,53,93,97,64,85,146,78,21,58]",8.149047852,-13.05728149,1,0,0,0,57,57,15,1,Yellow,Yellow.jpg,Pink,Pink.jpg,response7disk_3,rectangle
,,,,,,,,,,,,,,,,,,4,,,,,,,,,,,,,,,,,,,,,,,,,,,60dcf6a5aa967e04dc3c10c2,001,2021-12-05_23h18.10.038,jm_natural_scene_simialrity_2-12-2021,2021.2.3,MacIntel,60.0024001,60dcf6a5aa967e04dc3c10c2,61ad71e11ddd29ccf7a27d5b,61ad72b97e028f1d19acf521,,,,,,46.26257324,117.9087219,1,0,0,response1disk,0.8514,14.23828125,-1.365661621,1,0,0,rectangle,14.23828125,-1.365661621,1,0,0,-3,2,"[105,53,93,97,64,85,146,78,21,58]",14.23828125,-1.365661621,1,0,0,0,58,58,17,1,LightGreen,LightGreen.jpg,LightGreen,LightGreen.jpg,,
,,,,,,,,,,,,,,,,,,4,,,,,,,,,,,,,,,,,,,,,,,,,,,60dcf6a5aa967e04dc3c10c2,001,2021-12-05_23h18.10.038,jm_natural_scene_simialrity_2-12-2021,2021.2.3,MacIntel,60.0024001,60dcf6a5aa967e04dc3c10c2,61ad71e11ddd29ccf7a27d5b,61ad72b97e028f1d19acf521,,,,,,35.59735107,83.64471436,1,0,0,response1disk,0.7825,4.556274414,1.158203125,1,0,0,rectangle,4.556274414,1.158203125,1,0,0,-3,-1,"[105,53,93,97,64,85,146,78,21,58]",4.556274414,1.158203125,1,0,0,0,59,59,42,1,Pink,Pink.jpg,Pink,Pink.jpg,,
,,,,,,,,,,,,,,,,,,-2,,,,,,,,,,,,,,,,,,,,,,,,,,,60dcf6a5aa967e04dc3c10c2,001,2021-12-05_23h18.10.038,jm_natural_scene_simialrity_2-12-2021,2021.2.3,MacIntel,60.0024001,60dcf6a5aa967e04dc3c10c2,61ad71e11ddd29ccf7a27d5b,61ad72b97e028f1d19acf521,,,,,,-105.769165,-48.36251831,1,0,0,response5disk,1.4863,-2.760009766,-8.689605713,1,0,0,rectangle,-2.760009766,-8.689605713,1,0,0,-3,-2,"[105,53,93,97,64,85,146,78,21,58]",-2.760009766,-8.689605713,1,0,0,0,60,60,13,1,Yellow,Yellow.jpg,LightBlue,LightBlue.jpg,,
,,,,,,,,,,,,,,,,,,4,,,,,,,,,,,,,,,,,,,,,,,,,,,60dcf6a5aa967e04dc3c10c2,001,2021-12-05_23h18.10.038,jm_natural_scene_simialrity_2-12-2021,2021.2.3,MacIntel,60.0024001,60dcf6a5aa967e04dc3c10c2,61ad71e11ddd29ccf7a27d5b,61ad72b97e028f1d19acf521,,,,,,46.44268799,71.05596924,1,0,0,response1disk,0.7338,9.937927246,13.0553894,1,0,0,rectangle,9.937927246,13.0553894,1,0,0,-3,-4,"[105,53,93,97,64,85,146,78,21,58]",9.937927246,13.0553894,1,0,0,0,61,61,35,1,LightBlue,LightBlue.jpg,LightBlue,LightBlue.jpg,,
,,,,,,,,,,,,,,,,,,3,,,,,,,,,,,,,,,,,,,,,,,,,,,60dcf6a5aa967e04dc3c10c2,001,2021-12-05_23h18.10.038,jm_natural_scene_simialrity_2-12-2021,2021.2.3,MacIntel,60.0024001,60dcf6a5aa967e04dc3c10c2,61ad71e11ddd29ccf7a27d5b,61ad72b97e028f1d19acf521,,,,,,105.3074341,25.88894653,1,0,0,response1disk,1.2984,-2.463500977,-0.573730469,1,0,0,rectangle,-2.463500977,-0.573730469,1,0,0,-3,-4,"[105,53,93,97,64,85,146,78,21,58]",-2.463500977,-0.573730469,1,0,0,0,62,62,51,1,Pink,Pink.jpg,Red,Red.jpg,,
,,,,,,,,,,,,,,,,,,-2,,,,,,,,,,,,,,,,,,,,,,,,,,,60dcf6a5aa967e04dc3c10c2,001,2021-12-05_23h18.10.038,jm_natural_scene_simialrity_2-12-2021,2021.2.3,MacIntel,60.0024001,60dcf6a5aa967e04dc3c10c2,61ad71e11ddd29ccf7a27d5b,61ad72b97e028f1d19acf521,,,,,,-87.98022461,-63.01721191,1,0,0,response5disk,1.2324,21.67150879,-7.859436035,1,0,0,rectangle,113.170166,44.40240479,1,0,0,3,3,"[105,53,93,97,64,85,146,78,21,58]",-6.700561523,7.431091309,1,0,0,0,63,63,22,1,LightGreen,LightGreen.jpg,Pink,Pink.jpg,response1disk_3,rectangle
,,,,,,,,,,,,,,,,,,1,,,,,,,,,,,,,,,,,,,,,,,,,,,60dcf6a5aa967e04dc3c10c2,001,2021-12-05_23h18.10.038,jm_natural_scene_simialrity_2-12-2021,2021.2.3,MacIntel,60.0024001,60dcf6a5aa967e04dc3c10c2,61ad71e11ddd29ccf7a27d5b,61ad72b97e028f1d19acf521,,,,,,69.7020874,-100.8005371,1,0,0,response3disk,1.3167,-8.665710449,-10.59811401,1,0,0,rectangle,-8.665710449,-10.59811401,1,0,0,3,-1,"[105,53,93,97,64,85,146,78,21,58]",-8.665710449,-10.59811401,1,0,0,0,64,64,71,1,LightBlue,LightBlue.jpg,Turquiose,Turquiose.jpg,,
,,,,,,,,,,,,,,,,,,1,,,,,,,,,,,,,,,,,,,,,,,,,,,60dcf6a5aa967e04dc3c10c2,001,2021-12-05_23h18.10.038,jm_natural_scene_simialrity_2-12-2021,2021.2.3,MacIntel,60.0024001,60dcf6a5aa967e04dc3c10c2,61ad71e11ddd29ccf7a27d5b,61ad72b97e028f1d19acf521,,,,,,53.00476074,-85.9486084,1,0,0,response3disk,0.8494,5.220153809,-2.348602295,1,0,0,rectangle,5.220153809,-2.348602295,1,0,0,3,-4,"[105,53,93,97,64,85,146,78,21,58]",5.220153809,-2.348602295,1,0,0,0,65,65,67,1,LightBlue,LightBlue.jpg,DarkGreen,DarkGreen.jpg,,
,,,,,,,,,,,,,,,,,,-1,,,,,,,,,,,,,,,,,,,,,,,,,,,60dcf6a5aa967e04dc3c10c2,001,2021-12-05_23h18.10.038,jm_natural_scene_simialrity_2-12-2021,2021.2.3,MacIntel,60.0024001,60dcf6a5aa967e04dc3c10c2,61ad71e11ddd29ccf7a27d5b,61ad72b97e028f1d19acf521,,,,,,-32.89080811,-81.06176758,1,0,0,response5disk,0.849,-7.635253906,-2.265563965,1,0,0,rectangle,-7.635253906,-2.265563965,1,0,0,3,-1,"[105,53,93,97,64,85,146,78,21,58]",-7.635253906,-2.265563965,1,0,0,0,66,66,48,1,Turquiose,Turquiose.jpg,Red,Red.jpg,,
,,,,,,,,,,,,,,,,,,-2,,,,,,,,,,,,,,,,,,,,,,,,,,,60dcf6a5aa967e04dc3c10c2,001,2021-12-05_23h18.10.038,jm_natural_scene_simialrity_2-12-2021,2021.2.3,MacIntel,60.0024001,60dcf6a5aa967e04dc3c10c2,61ad71e11ddd29ccf7a27d5b,61ad72b97e028f1d19acf521,,,,,,-99.97918701,-32.30490112,1,0,0,response5disk,2.3343,2.592712402,-8.890411377,1,0,0,rectangle,2.592712402,-8.890411377,1,0,0,3,2,"[105,53,93,97,64,85,146,78,21,58]",2.592712402,-8.890411377,1,0,0,0,67,67,21,1,LightGreen,LightGreen.jpg,DarkBlue,DarkBlue.jpg,,
,,,,,,,,,,,,,,,,,,-1,,,,,,,,,,,,,,,,,,,,,,,,,,,60dcf6a5aa967e04dc3c10c2,001,2021-12-05_23h18.10.038,jm_natural_scene_simialrity_2-12-2021,2021.2.3,MacIntel,60.0024001,60dcf6a5aa967e04dc3c10c2,61ad71e11ddd29ccf7a27d5b,61ad72b97e028f1d19acf521,,,,,,-50.88116455,-103.5704346,1,0,0,response5disk,1.1,2.409790039,-10.75891113,1,0,0,rectangle,2.409790039,-10.75891113,1,0,0,3,3,"[105,53,93,97,64,85,146,78,21,58]",2.409790039,-10.75891113,1,0,0,0,68,68,73,1,Pink,Pink.jpg,Turquiose,Turquiose.jpg,,
,,,,,,,,,,,,,,,,,,4,,,,,,,,,,,,,,,,,,,,,,,,,,,60dcf6a5aa967e04dc3c10c2,001,2021-12-05_23h18.10.038,jm_natural_scene_simialrity_2-12-2021,2021.2.3,MacIntel,60.0024001,60dcf6a5aa967e04dc3c10c2,61ad71e11ddd29ccf7a27d5b,61ad72b97e028f1d19acf521,,,,,,41.3503418,85.12298584,1,0,0,response1disk,0.8068,11.28033447,5.772766113,1,0,0,rectangle,11.28033447,5.772766113,1,0,0,3,-1,"[105,53,93,97,64,85,146,78,21,58]",11.28033447,5.772766113,1,0,0,0,69,69,30,1,Turquiose,Turquiose.jpg,Turquiose,Turquiose.jpg,,
,,,,,,,,,,,,,,,,,,-1,,,,,,,,,,,,,,,,,,,,,,,,,,,60dcf6a5aa967e04dc3c10c2,001,2021-12-05_23h18.10.038,jm_natural_scene_simialrity_2-12-2021,2021.2.3,MacIntel,60.0024001,60dcf6a5aa967e04dc3c10c2,61ad71e11ddd29ccf7a27d5b,61ad72b97e028f1d19acf521,,,,,,-36.32446289,-94.69445801,1,0,0,response5disk,1.5198,-8.82409668,-6.420043945,1,0,0,rectangle,-8.82409668,-6.420043945,1,0,0,3,-3,"[105,53,93,97,64,85,146,78,21,58]",-8.82409668,-6.420043945,1,0,0,0,70,70,61,1,Turquiose,Turquiose.jpg,LightGreen,LightGreen.jpg,,
,,,,,,,,,,,,,,,,,,1,,,,,,,,,,,,,,,,,,,,,,,,,,,60dcf6a5aa967e04dc3c10c2,001,2021-12-05_23h18.10.038,jm_natural_scene_simialrity_2-12-2021,2021.2.3,MacIntel,60.0024001,60dcf6a5aa967e04dc3c10c2,61ad71e11ddd29ccf7a27d5b,61ad72b97e028f1d19acf521,,,,,,33.78668213,-96.62823486,1,0,0,response3disk,1.0001,-3.620056152,-5.757904053,1,0,0,rectangle,-3.620056152,-5.757904053,1,0,0,3,-2,"[105,53,93,97,64,85,146,78,21,58]",-3.620056152,-5.757904053,1,0,0,0,71,71,72,1,DarkBlue,DarkBlue.jpg,Turquiose,Turquiose.jpg,,
,,,,,,,,,,,,,,,,,,3,,,,,,,,,,,,,,,,,,,,,,,,,,,60dcf6a5aa967e04dc3c10c2,001,2021-12-05_23h18.10.038,jm_natural_scene_simialrity_2-12-2021,2021.2.3,MacIntel,60.0024001,60dcf6a5aa967e04dc3c10c2,61ad71e11ddd29ccf7a27d5b,61ad72b97e028f1d19acf521,,,,,,98.68640137,43.87780762,1,0,0,response1disk,1.0489,16.18151855,0.517944336,1,0,0,rectangle,16.18151855,0.517944336,1,0,0,3,-3,"[105,53,93,97,64,85,146,78,21,58]",16.18151855,0.517944336,1,0,0,0,72,72,58,1,Pink,Pink.jpg,Yellow,Yellow.jpg,,
,,,,,,,,,,,,,,,,,,2,,,,,,,,,,,,,,,,,,,,,,,,,,,60dcf6a5aa967e04dc3c10c2,001,2021-12-05_23h18.10.038,jm_natural_scene_simialrity_2-12-2021,2021.2.3,MacIntel,60.0024001,60dcf6a5aa967e04dc3c10c2,61ad71e11ddd29ccf7a27d5b,61ad72b97e028f1d19acf521,,,,,,89.87164307,-56.92120361,1,0,0,response3disk,3.0486,10.46722412,1.329467773,1,0,0,rectangle,10.46722412,1.329467773,1,0,0,3,-2,"[105,53,93,97,64,85,146,78,21,58]",10.46722412,1.329467773,1,0,0,0,73,73,8,1,Red,Red.jpg,Purple,Purple.jpg,,
,,,,,,,,,,,,,,,,,,3,,,,,,,,,,,,,,,,,,,,,,,,,,,60dcf6a5aa967e04dc3c10c2,001,2021-12-05_23h18.10.038,jm_natural_scene_simialrity_2-12-2021,2021.2.3,MacIntel,60.0024001,60dcf6a5aa967e04dc3c10c2,61ad71e11ddd29ccf7a27d5b,61ad72b97e028f1d19acf521,,,,,,99.72796631,37.86401367,1,0,0,response1disk,1.3459,5.801940918,3.198120117,1,0,0,rectangle,5.801940918,3.198120117,1,0,0,3,-4,"[105,53,93,97,64,85,146,78,21,58]",5.801940918,3.198120117,1,0,0,0,74,74,7,1,Red,Red.jpg,Pink,Pink.jpg,,
,,,,,,,,,,,,,,,,,,-3,,,,,,,,,,,,,,,,,,,,,,,,,,,60dcf6a5aa967e04dc3c10c2,001,2021-12-05_23h18.10.038,jm_natural_scene_simialrity_2-12-2021,2021.2.3,MacIntel,60.0024001,60dcf6a5aa967e04dc3c10c2,61ad71e11ddd29ccf7a27d5b,61ad72b97e028f1d19acf521,,,,,,-84.24212646,48.72210693,1,0,0,response7disk,1.3617,1.362060547,-0.176391602,1,0,0,rectangle,1.362060547,-0.176391602,1,0,0,3,-2,"[105,53,93,97,64,85,146,78,21,58]",1.362060547,-0.176391602,1,0,0,0,75,75,54,1,DarkGreen,DarkGreen.jpg,Yellow,Yellow.jpg,,
,,,,,,,,,,,,,,,,,,-3,,,,,,,,,,,,,,,,,,,,,,,,,,,60dcf6a5aa967e04dc3c10c2,001,2021-12-05_23h18.10.038,jm_natural_scene_simialrity_2-12-2021,2021.2.3,MacIntel,60.0024001,60dcf6a5aa967e04dc3c10c2,61ad71e11ddd29ccf7a27d5b,61ad72b97e028f1d19acf521,,,,,,-76.49249268,24.80755615,1,0,0,response7disk,1.2671,3.079101563,-12.30322266,1,0,0,rectangle,3.079101563,-12.30322266,1,0,0,3,-1,"[105,53,93,97,64,85,146,78,21,58]",3.079101563,-12.30322266,1,0,0,0,76,76,56,1,LightBlue,LightBlue.jpg,Yellow,Yellow.jpg,,
,,,,,,,,,,,,,,,,,,4,,,,,,,,,,,,,,,,,,,,,,,,,,,60dcf6a5aa967e04dc3c10c2,001,2021-12-05_23h18.10.038,jm_natural_scene_simialrity_2-12-2021,2021.2.3,MacIntel,60.0024001,60dcf6a5aa967e04dc3c10c2,61ad71e11ddd29ccf7a27d5b,61ad72b97e028f1d19acf521,,,,,,27.7734375,114.0452881,1,0,0,response1disk,0.7327,0.367736816,-6.320739746,1,0,0,rectangle,-38.98791504,110.2070313,1,0,0,-4,-4,"[105,53,93,97,64,85,146,78,21,58]",15.39880371,-5.629089355,1,0,0,0,77,77,9,1,Yellow,Yellow.jpg,Yellow,Yellow.jpg,response7disk_3,rectangle
,,,,,,,,,,,,,,,,,,-4,,,,,,,,,,,,,,,,,,,,,,,,,,,60dcf6a5aa967e04dc3c10c2,001,2021-12-05_23h18.10.038,jm_natural_scene_simialrity_2-12-2021,2021.2.3,MacIntel,60.0024001,60dcf6a5aa967e04dc3c10c2,61ad71e11ddd29ccf7a27d5b,61ad72b97e028f1d19acf521,,,,,,-71.82958984,71.94549561,1,0,0,response7disk,1.1489,1.716369629,-4.056365967,1,0,0,rectangle,1.716369629,-4.056365967,1,0,0,-4,-1,"[105,53,93,97,64,85,146,78,21,58]",1.716369629,-4.056365967,1,0,0,0,78,78,6,1,Red,Red.jpg,DarkBlue,DarkBlue.jpg,,
,,,,,,,,,,,,,,,,,,1,,,,,,,,,,,,,,,,,,,,,,,,,,,60dcf6a5aa967e04dc3c10c2,001,2021-12-05_23h18.10.038,jm_natural_scene_simialrity_2-12-2021,2021.2.3,MacIntel,60.0024001,60dcf6a5aa967e04dc3c10c2,61ad71e11ddd29ccf7a27d5b,61ad72b97e028f1d19acf521,,,,,,51.78894043,-83.88653564,1,0,0,response3disk,1.4167,13.16033936,-17.76312256,1,0,0,rectangle,13.16033936,-17.76312256,1,0,0,-4,3,"[105,53,93,97,64,85,146,78,21,58]",13.16033936,-17.76312256,1,0,0,0,79,79,37,1,LightBlue,LightBlue.jpg,Pink,Pink.jpg,,
,,,,,,,,,,,,,,,,,,-3,,,,,,,,,,,,,,,,,,,,,,,,,,,60dcf6a5aa967e04dc3c10c2,001,2021-12-05_23h18.10.038,jm_natural_scene_simialrity_2-12-2021,2021.2.3,MacIntel,60.0024001,60dcf6a5aa967e04dc3c10c2,61ad71e11ddd29ccf7a27d5b,61ad72b97e028f1d19acf521,,,,,,-73.98571777,40.4039917,1,0,0,response7disk,0.9824,0.991760254,-1.937561035,1,0,0,rectangle,0.991760254,-1.937561035,1,0,0,-4,-3,"[105,53,93,97,64,85,146,78,21,58]",0.991760254,-1.937561035,1,0,0,0,80,80,10,1,Yellow,Yellow.jpg,LightGreen,LightGreen.jpg,,
,,,,,,,,,,,,,,,,,,-1,,,,,,,,,,,,,,,,,,,,,,,,,,,60dcf6a5aa967e04dc3c10c2,001,2021-12-05_23h18.10.038,jm_natural_scene_simialrity_2-12-2021,2021.2.3,MacIntel,60.0024001,60dcf6a5aa967e04dc3c10c2,61ad71e11ddd29ccf7a27d5b,61ad72b97e028f1d19acf521,,,,,,-35.42626953,-114.2987061,1,0,0,response5disk,1.0995,-1.877624512,3.4793396,1,0,0,rectangle,-1.877624512,3.4793396,1,0,0,-4,-2,"[105,53,93,97,64,85,146,78,21,58]",-1.877624512,3.4793396,1,0,0,1,0,81,25,1,DarkGreen,DarkGreen.jpg,Turquiose,Turquiose.jpg,,
,,,,,,,,,,,,,,,,,,-1,,,,,,,,,,,,,,,,,,,,,,,,,,,60dcf6a5aa967e04dc3c10c2,001,2021-12-05_23h18.10.038,jm_natural_scene_simialrity_2-12-2021,2021.2.3,MacIntel,60.0024001,60dcf6a5aa967e04dc3c10c2,61ad71e11ddd29ccf7a27d5b,61ad72b97e028f1d19acf521,,,,,,-45.43139648,-83.27209473,1,0,0,response5disk,1.4494,13.23431396,2.099609375,1,0,0,rectangle,13.23431396,2.099609375,1,0,0,-4,-4,"[105,53,93,97,64,85,146,78,21,58]",13.23431396,2.099609375,1,0,0,1,1,82,71,1,LightBlue,LightBlue.jpg,Turquiose,Turquiose.jpg,,
,,,,,,,,,,,,,,,,,,-3,,,,,,,,,,,,,,,,,,,,,,,,,,,60dcf6a5aa967e04dc3c10c2,001,2021-12-05_23h18.10.038,jm_natural_scene_simialrity_2-12-2021,2021.2.3,MacIntel,60.0024001,60dcf6a5aa967e04dc3c10c2,61ad71e11ddd29ccf7a27d5b,61ad72b97e028f1d19acf521,,,,,,-107.0057373,31.50741577,1,0,0,response7disk,1.2658,21.56274414,6.330871582,1,0,0,rectangle,21.56274414,6.330871582,1,0,0,-4,3,"[105,53,93,97,64,85,146,78,21,58]",21.56274414,6.330871582,1,0,0,1,2,83,29,1,DarkGreen,DarkGreen.jpg,Purple,Purple.jpg,,
,,,,,,,,,,,,,,,,,,4,,,,,,,,,,,,,,,,,,,,,,,,,,,60dcf6a5aa967e04dc3c10c2,001,2021-12-05_23h18.10.038,jm_natural_scene_simialrity_2-12-2021,2021.2.3,MacIntel,60.0024001,60dcf6a5aa967e04dc3c10c2,61ad71e11ddd29ccf7a27d5b,61ad72b97e028f1d19acf521,,,,,,27.39208984,81.54229736,1,0,0,response1disk,0.7486,-2.619140625,3.141906738,1,0,0,rectangle,45.39105225,-78.90734863,1,0,0,1,1,"[105,53,93,97,64,85,146,78,21,58]",2.810852051,4.303497314,1,0,0,1,3,84,35,1,LightBlue,LightBlue.jpg,LightBlue,LightBlue.jpg,response3disk_3,rectangle
,,,,,,,,,,,,,,,,,,-3,,,,,,,,,,,,,,,,,,,,,,,,,,,60dcf6a5aa967e04dc3c10c2,001,2021-12-05_23h18.10.038,jm_natural_scene_simialrity_2-12-2021,2021.2.3,MacIntel,60.0024001,60dcf6a5aa967e04dc3c10c2,61ad71e11ddd29ccf7a27d5b,61ad72b97e028f1d19acf521,,,,,,-73.43487549,49.44802856,1,0,0,response7disk,0.9833,-4.643371582,3.9090271,1,0,0,rectangle,-4.643371582,3.9090271,1,0,0,1,1,"[105,53,93,97,64,85,146,78,21,58]",-4.643371582,3.9090271,1,0,0,1,4,85,13,1,Yellow,Yellow.jpg,LightBlue,LightBlue.jpg,,
,,,,,,,,,,,,,,,,,,3,,,,,,,,,,,,,,,,,,,,,,,,,,,60dcf6a5aa967e04dc3c10c2,001,2021-12-05_23h18.10.038,jm_natural_scene_simialrity_2-12-2021,2021.2.3,MacIntel,60.0024001,60dcf6a5aa967e04dc3c10c2,61ad71e11ddd29ccf7a27d5b,61ad72b97e028f1d19acf521,,,,,,103.8141479,44.32510376,1,0,0,response1disk,0.9493,0.173583984,2.81427002,1,0,0,rectangle,0.173583984,2.81427002,1,0,0,1,1,"[105,53,93,97,64,85,146,78,21,58]",0.173583984,2.81427002,1,0,0,1,5,86,7,1,Red,Red.jpg,Pink,Pink.jpg,,
,,,,,,,,,,,,,,,,,,3,,,,,,,,,,,,,,,,,,,,,,,,,,,60dcf6a5aa967e04dc3c10c2,001,2021-12-05_23h18.10.038,jm_natural_scene_simialrity_2-12-2021,2021.2.3,MacIntel,60.0024001,60dcf6a5aa967e04dc3c10c2,61ad71e11ddd29ccf7a27d5b,61ad72b97e028f1d19acf521,,,,,,76.94769287,42.21777344,1,0,0,response1disk,0.7327,-4.66619873,10.81399536,1,0,0,rectangle,-4.66619873,10.81399536,1,0,0,1,-4,"[105,53,93,97,64,85,146,78,21,58]",-4.66619873,10.81399536,1,0,0,1,6,87,80,1,Purple,Purple.jpg,Pink,Pink.jpg,,
,,,,,,,,,,,,,,,,,,-3,,,,,,,,,,,,,,,,,,,,,,,,,,,60dcf6a5aa967e04dc3c10c2,001,2021-12-05_23h18.10.038,jm_natural_scene_simialrity_2-12-2021,2021.2.3,MacIntel,60.0024001,60dcf6a5aa967e04dc3c10c2,61ad71e11ddd29ccf7a27d5b,61ad72b97e028f1d19acf521,,,,,,-76.95239258,35.05151367,1,0,0,response7disk,1.0159,2.803405762,3.244506836,1,0,0,rectangle,2.803405762,3.244506836,1,0,0,1,-3,"[105,53,93,97,64,85,146,78,21,58]",2.803405762,3.244506836,1,0,0,1,7,88,4,1,Red,Red.jpg,Turquiose,Turquiose.jpg,,
,,,,,,,,,,,,,,,,,,-3,,,,,,,,,,,,,,,,,,,,,,,,,,,60dcf6a5aa967e04dc3c10c2,001,2021-12-05_23h18.10.038,jm_natural_scene_simialrity_2-12-2021,2021.2.3,MacIntel,60.0024001,60dcf6a5aa967e04dc3c10c2,61ad71e11ddd29ccf7a27d5b,61ad72b97e028f1d19acf521,,,,,,-55.37969971,37.69390869,1,0,0,response7disk,0.8875,2.694580078,8.647064209,1,0,0,rectangle,2.694580078,8.647064209,1,0,0,1,-4,"[105,53,93,97,64,85,146,78,21,58]",2.694580078,8.647064209,1,0,0,1,8,89,53,1,LightGreen,LightGreen.jpg,Yellow,Yellow.jpg,,
,,,,,,,,,,,,,,,,,,-2,,,,,,,,,,,,,,,,,,,,,,,,,,,60dcf6a5aa967e04dc3c10c2,001,2021-12-05_23h18.10.038,jm_natural_scene_simialrity_2-12-2021,2021.2.3,MacIntel,60.0024001,60dcf6a5aa967e04dc3c10c2,61ad71e11ddd29ccf7a27d5b,61ad72b97e028f1d19acf521,,,,,,-81.85070801,-39.61486816,1,0,0,response5disk,1.1041,-5.037841797,-7.650512695,1,0,0,rectangle,-5.037841797,-7.650512695,1,0,0,1,-1,"[105,53,93,97,64,85,146,78,21,58]",-5.037841797,-7.650512695,1,0,0,1,9,90,22,1,LightGreen,LightGreen.jpg,Pink,Pink.jpg,,
,,,,,,,,,,,,,,,,,,-2,,,,,,,,,,,,,,,,,,,,,,,,,,,60dcf6a5aa967e04dc3c10c2,001,2021-12-05_23h18.10.038,jm_natural_scene_simialrity_2-12-2021,2021.2.3,MacIntel,60.0024001,60dcf6a5aa967e04dc3c10c2,61ad71e11ddd29ccf7a27d5b,61ad72b97e028f1d19acf521,,,,,,-88.28216553,-44.90881348,1,0,0,response5disk,0.8675,-3.583679199,-9.165374756,1,0,0,rectangle,-3.583679199,-9.165374756,1,0,0,1,-1,"[105,53,93,97,64,85,146,78,21,58]",-3.583679199,-9.165374756,1,0,0,1,10,91,56,1,LightBlue,LightBlue.jpg,Yellow,Yellow.jpg,,
,,,,,,,,,,,,,,,,,,-3,,,,,,,,,,,,,,,,,,,,,,,,,,,60dcf6a5aa967e04dc3c10c2,001,2021-12-05_23h18.10.038,jm_natural_scene_simialrity_2-12-2021,2021.2.3,MacIntel,60.0024001,60dcf6a5aa967e04dc3c10c2,61ad71e11ddd29ccf7a27d5b,61ad72b97e028f1d19acf521,,,,,,-88.92095947,70.71713257,1,0,0,response7disk,1.8494,-2.981506348,-14.11260986,1,0,0,rectangle,44.87213135,-91.15246582,1,0,0,1,1,"[105,53,93,97,64,85,146,78,21,58]",5.25390625,-0.605041504,1,0,0,1,11,92,40,1,DarkBlue,DarkBlue.jpg,Pink,Pink.jpg,response3disk_3,rectangle
,,,,,,,,,,,,,,,,,,-3,,,,,,,,,,,,,,,,,,,,,,,,,,,60dcf6a5aa967e04dc3c10c2,001,2021-12-05_23h18.10.038,jm_natural_scene_simialrity_2-12-2021,2021.2.3,MacIntel,60.0024001,60dcf6a5aa967e04dc3c10c2,61ad71e11ddd29ccf7a27d5b,61ad72b97e028f1d19acf521,,,,,,-75.12341309,48.79983521,1,0,0,response7disk,0.8642,-3.450805664,0.868988037,1,0,0,rectangle,-3.450805664,0.868988037,1,0,0,1,2,"[105,53,93,97,64,85,146,78,21,58]",-3.450805664,0.868988037,1,0,0,1,12,93,78,1,Pink,Pink.jpg,DarkBlue,DarkBlue.jpg,,
,,,,,,,,,,,,,,,,,,-3,,,,,,,,,,,,,,,,,,,,,,,,,,,60dcf6a5aa967e04dc3c10c2,001,2021-12-05_23h18.10.038,jm_natural_scene_simialrity_2-12-2021,2021.2.3,MacIntel,60.0024001,60dcf6a5aa967e04dc3c10c2,61ad71e11ddd29ccf7a27d5b,61ad72b97e028f1d19acf521,,,,,,-69.24017334,52.9909668,1,0,0,response7disk,0.7488,-6.884338379,2.965545654,1,0,0,rectangle,-6.884338379,2.965545654,1,0,0,1,-4,"[105,53,93,97,64,85,146,78,21,58]",-6.884338379,2.965545654,1,0,0,1,13,94,75,1,DarkBlue,DarkBlue.jpg,LightBlue,LightBlue.jpg,,
,,,,,,,,,,,,,,,,,,-3,,,,,,,,,,,,,,,,,,,,,,,,,,,60dcf6a5aa967e04dc3c10c2,001,2021-12-05_23h18.10.038,jm_natural_scene_simialrity_2-12-2021,2021.2.3,MacIntel,60.0024001,60dcf6a5aa967e04dc3c10c2,61ad71e11ddd29ccf7a27d5b,61ad72b97e028f1d19acf521,,,,,,-69.49981689,37.12545776,1,0,0,response7disk,0.6658,3.230102539,-0.126739502,1,0,0,rectangle,3.230102539,-0.126739502,1,0,0,1,1,"[105,53,93,97,64,85,146,78,21,58]",3.230102539,-0.126739502,1,0,0,1,14,95,47,1,DarkGreen,DarkGreen.jpg,Red,Red.jpg,,
,,,,,,,,,,,,,,,,,,-1,,,,,,,,,,,,,,,,,,,,,,,,,,,60dcf6a5aa967e04dc3c10c2,001,2021-12-05_23h18.10.038,jm_natural_scene_simialrity_2-12-2021,2021.2.3,MacIntel,60.0024001,60dcf6a5aa967e04dc3c10c2,61ad71e11ddd29ccf7a27d5b,61ad72b97e028f1d19acf521,,,,,,-47.24804688,-103.0147095,1,0,0,response5disk,1.1501,-1.298400879,-7.607299805,1,0,0,rectangle,-41.1315918,100.3546143,1,0,0,-4,-4,"[105,53,93,97,64,85,146,78,21,58]",-9.39642334,8.0078125,1,0,0,1,15,96,37,1,LightBlue,LightBlue.jpg,Pink,Pink.jpg,response7disk_3,rectangle
,,,,,,,,,,,,,,,,,,1,,,,,,,,,,,,,,,,,,,,,,,,,,,60dcf6a5aa967e04dc3c10c2,001,2021-12-05_23h18.10.038,jm_natural_scene_simialrity_2-12-2021,2021.2.3,MacIntel,60.0024001,60dcf6a5aa967e04dc3c10c2,61ad71e11ddd29ccf7a27d5b,61ad72b97e028f1d19acf521,,,,,,36.37036133,-108.6442261,1,0,0,response3disk,1.1332,10.31359863,-4.09677124,1,0,0,rectangle,10.31359863,-4.09677124,1,0,0,-4,-1,"[105,53,93,97,64,85,146,78,21,58]",10.31359863,-4.09677124,1,0,0,1,16,97,74,1,Purple,Purple.jpg,Turquiose,Turquiose.jpg,,
,,,,,,,,,,,,,,,,,,2,,,,,,,,,,,,,,,,,,,,,,,,,,,60dcf6a5aa967e04dc3c10c2,001,2021-12-05_23h18.10.038,jm_natural_scene_simialrity_2-12-2021,2021.2.3,MacIntel,60.0024001,60dcf6a5aa967e04dc3c10c2,61ad71e11ddd29ccf7a27d5b,61ad72b97e028f1d19acf521,,,,,,117.6201172,-52.57907104,1,0,0,response3disk,0.8988,-6.619750977,-15.69488525,1,0,0,rectangle,-6.619750977,-15.69488525,1,0,0,-4,2,"[105,53,93,97,64,85,146,78,21,58]",-6.619750977,-15.69488525,1,0,0,1,17,98,72,1,DarkBlue,DarkBlue.jpg,Turquiose,Turquiose.jpg,,
,,,,,,,,,,,,,,,,,,2,,,,,,,,,,,,,,,,,,,,,,,,,,,60dcf6a5aa967e04dc3c10c2,001,2021-12-05_23h18.10.038,jm_natural_scene_simialrity_2-12-2021,2021.2.3,MacIntel,60.0024001,60dcf6a5aa967e04dc3c10c2,61ad71e11ddd29ccf7a27d5b,61ad72b97e028f1d19acf521,,,,,,106.0615845,-66.69702148,1,0,0,response3disk,1.5341,8.94909668,5.881469727,1,0,0,rectangle,8.94909668,5.881469727,1,0,0,-4,1,"[105,53,93,97,64,85,146,78,21,58]",8.94909668,5.881469727,1,0,0,1,18,99,77,1,Purple,Purple.jpg,LightBlue,LightBlue.jpg,,
,,,,,,,,,,,,,,,,,,-2,,,,,,,,,,,,,,,,,,,,,,,,,,,60dcf6a5aa967e04dc3c10c2,001,2021-12-05_23h18.10.038,jm_natural_scene_simialrity_2-12-2021,2021.2.3,MacIntel,60.0024001,60dcf6a5aa967e04dc3c10c2,61ad71e11ddd29ccf7a27d5b,61ad72b97e028f1d19acf521,,,,,,-90.58544922,-25.12286377,1,0,0,response5disk,0.8657,-5.369384766,-5.449005127,1,0,0,rectangle,-5.369384766,-5.449005127,1,0,0,-4,-4,"[105,53,93,97,64,85,146,78,21,58]",-5.369384766,-5.449005127,1,0,0,1,19,100,64,1,Pink,Pink.jpg,LightGreen,LightGreen.jpg,,
,,,,,,,,,,,,,,,,,,-3,,,,,,,,,,,,,,,,,,,,,,,,,,,60dcf6a5aa967e04dc3c10c2,001,2021-12-05_23h18.10.038,jm_natural_scene_simialrity_2-12-2021,2021.2.3,MacIntel,60.0024001,60dcf6a5aa967e04dc3c10c2,61ad71e11ddd29ccf7a27d5b,61ad72b97e028f1d19acf521,,,,,,-82.37280273,50.5168457,1,0,0,response7disk,0.9514,1.906738281,15.68331909,1,0,0,rectangle,1.906738281,15.68331909,1,0,0,-4,1,"[105,53,93,97,64,85,146,78,21,58]",1.906738281,15.68331909,1,0,0,1,20,101,73,1,Pink,Pink.jpg,Turquiose,Turquiose.jpg,,
,,,,,,,,,,,,,,,,,,4,,,,,,,,,,,,,,,,,,,,,,,,,,,60dcf6a5aa967e04dc3c10c2,001,2021-12-05_23h18.10.038,jm_natural_scene_simialrity_2-12-2021,2021.2.3,MacIntel,60.0024001,60dcf6a5aa967e04dc3c10c2,61ad71e11ddd29ccf7a27d5b,61ad72b97e028f1d19acf521,,,,,,37.35406494,101.2296143,1,0,0,response1disk,0.8323,9.738098145,-2.156738281,1,0,0,rectangle,9.738098145,-2.156738281,1,0,0,-4,1,"[105,53,93,97,64,85,146,78,21,58]",9.738098145,-2.156738281,1,0,0,1,21,102,39,1,DarkBlue,DarkBlue.jpg,DarkBlue,DarkBlue.jpg,,
,,,,,,,,,,,,,,,,,,2,,,,,,,,,,,,,,,,,,,,,,,,,,,60dcf6a5aa967e04dc3c10c2,001,2021-12-05_23h18.10.038,jm_natural_scene_simialrity_2-12-2021,2021.2.3,MacIntel,60.0024001,60dcf6a5aa967e04dc3c10c2,61ad71e11ddd29ccf7a27d5b,61ad72b97e028f1d19acf521,,,,,,86.77905273,-44.9072876,1,0,0,response3disk,1.1505,-13.26708984,11.87902832,1,0,0,rectangle,-13.26708984,11.87902832,1,0,0,-4,-2,"[105,53,93,97,64,85,146,78,21,58]",-13.26708984,11.87902832,1,0,0,1,22,103,66,1,Turquiose,Turquiose.jpg,DarkGreen,DarkGreen.jpg,,
,,,,,,,,,,,,,,,,,,-3,,,,,,,,,,,,,,,,,,,,,,,,,,,60dcf6a5aa967e04dc3c10c2,001,2021-12-05_23h18.10.038,jm_natural_scene_simialrity_2-12-2021,2021.2.3,MacIntel,60.0024001,60dcf6a5aa967e04dc3c10c2,61ad71e11ddd29ccf7a27d5b,61ad72b97e028f1d19acf521,,,,,,-84.98553467,76.23083496,1,0,0,response7disk,0.8826,23.28234863,-10.30209351,1,0,0,rectangle,-94.99499512,45.47692871,1,0,0,-3,-3,"[105,53,93,97,64,85,146,78,21,58]",3.356750488,-16.41146851,1,0,0,1,23,104,46,1,LightGreen,LightGreen.jpg,Red,Red.jpg,response7disk_3,rectangle
,,,,,,,,,,,,,,,,,,2,,,,,,,,,,,,,,,,,,,,,,,,,,,60dcf6a5aa967e04dc3c10c2,001,2021-12-05_23h18.10.038,jm_natural_scene_simialrity_2-12-2021,2021.2.3,MacIntel,60.0024001,60dcf6a5aa967e04dc3c10c2,61ad71e11ddd29ccf7a27d5b,61ad72b97e028f1d19acf521,,,,,,108.7023315,-34.04351807,1,0,0,response3disk,1.5,-10.99884033,10.3270874,1,0,0,rectangle,-10.99884033,10.3270874,1,0,0,-3,2,"[105,53,93,97,64,85,146,78,21,58]",-10.99884033,10.3270874,1,0,0,1,24,105,8,1,Red,Red.jpg,Purple,Purple.jpg,,
,,,,,,,,,,,,,,,,,,2,,,,,,,,,,,,,,,,,,,,,,,,,,,60dcf6a5aa967e04dc3c10c2,001,2021-12-05_23h18.10.038,jm_natural_scene_simialrity_2-12-2021,2021.2.3,MacIntel,60.0024001,60dcf6a5aa967e04dc3c10c2,61ad71e11ddd29ccf7a27d5b,61ad72b97e028f1d19acf521,,,,,,104.4213867,-58.59381104,1,0,0,response3disk,0.9242,4.162475586,-7.482421875,1,0,0,rectangle,4.162475586,-7.482421875,1,0,0,-3,-4,"[105,53,93,97,64,85,146,78,21,58]",4.162475586,-7.482421875,1,0,0,1,25,106,61,1,Turquiose,Turquiose.jpg,LightGreen,LightGreen.jpg,,
,,,,,,,,,,,,,,,,,,2,,,,,,,,,,,,,,,,,,,,,,,,,,,60dcf6a5aa967e04dc3c10c2,001,2021-12-05_23h18.10.038,jm_natural_scene_simialrity_2-12-2021,2021.2.3,MacIntel,60.0024001,60dcf6a5aa967e04dc3c10c2,61ad71e11ddd29ccf7a27d5b,61ad72b97e028f1d19acf521,,,,,,97.3817749,-57.52764893,1,0,0,response3disk,1.1154,1.570739746,12.16799927,1,0,0,rectangle,1.570739746,12.16799927,1,0,0,-3,-2,"[105,53,93,97,64,85,146,78,21,58]",1.570739746,12.16799927,1,0,0,1,26,107,43,1,Pink,Pink.jpg,Purple,Purple.jpg,,
,,,,,,,,,,,,,,,,,,3,,,,,,,,,,,,,,,,,,,,,,,,,,,60dcf6a5aa967e04dc3c10c2,001,2021-12-05_23h18.10.038,jm_natural_scene_simialrity_2-12-2021,2021.2.3,MacIntel,60.0024001,60dcf6a5aa967e04dc3c10c2,61ad71e11ddd29ccf7a27d5b,61ad72b97e028f1d19acf521,,,,,,96.03479004,38.63763428,1,0,0,response1disk,0.7839,17.8013916,2.392150879,1,0,0,rectangle,17.8013916,2.392150879,1,0,0,-3,-3,"[105,53,93,97,64,85,146,78,21,58]",17.8013916,2.392150879,1,0,0,1,27,108,51,1,Pink,Pink.jpg,Red,Red.jpg,,
,,,,,,,,,,,,,,,,,,-3,,,,,,,,,,,,,,,,,,,,,,,,,,,60dcf6a5aa967e04dc3c10c2,001,2021-12-05_23h18.10.038,jm_natural_scene_simialrity_2-12-2021,2021.2.3,MacIntel,60.0024001,60dcf6a5aa967e04dc3c10c2,61ad71e11ddd29ccf7a27d5b,61ad72b97e028f1d19acf521,,,,,,-80.81439209,41.41705322,1,0,0,response7disk,0.9823,-1.00604248,2.59777832,1,0,0,rectangle,-1.00604248,2.59777832,1,0,0,-3,-1,"[105,53,93,97,64,85,146,78,21,58]",-1.00604248,2.59777832,1,0,0,1,28,109,11,1,Yellow,Yellow.jpg,DarkGreen,DarkGreen.jpg,,
,,,,,,,,,,,,,,,,,,3,,,,,,,,,,,,,,,,,,,,,,,,,,,60dcf6a5aa967e04dc3c10c2,001,2021-12-05_23h18.10.038,jm_natural_scene_simialrity_2-12-2021,2021.2.3,MacIntel,60.0024001,60dcf6a5aa967e04dc3c10c2,61ad71e11ddd29ccf7a27d5b,61ad72b97e028f1d19acf521,,,,,,119.1566162,66.03771973,1,0,0,response1disk,1.0326,-5.484191895,-9.574737549,1,0,0,rectangle,-5.484191895,-9.574737549,1,0,0,-3,-3,"[105,53,93,97,64,85,146,78,21,58]",-5.484191895,-9.574737549,1,0,0,1,29,110,60,1,DarkGreen,DarkGreen.jpg,LightGreen,LightGreen.jpg,,
,,,,,,,,,,,,,,,,,,-2,,,,,,,,,,,,,,,,,,,,,,,,,,,60dcf6a5aa967e04dc3c10c2,001,2021-12-05_23h18.10.038,jm_natural_scene_simialrity_2-12-2021,2021.2.3,MacIntel,60.0024001,60dcf6a5aa967e04dc3c10c2,61ad71e11ddd29ccf7a27d5b,61ad72b97e028f1d19acf521,,,,,,-77.64416504,-52.41723633,1,0,0,response5disk,2.2548,2.68737793,-15.33337402,1,0,0,rectangle,2.68737793,-15.33337402,1,0,0,-3,-3,"[105,53,93,97,64,85,146,78,21,58]",2.68737793,-15.33337402,1,0,0,1,30,111,70,1,Purple,Purple.jpg,DarkGreen,DarkGreen.jpg,,
,,,,,,,,,,,,,,,,,,4,,,,,,,,,,,,,,,,,,,,,,,,,,,60dcf6a5aa967e04dc3c10c2,001,2021-12-05_23h18.10.038,jm_natural_scene_simialrity_2-12-2021,2021.2.3,MacIntel,60.0024001,60dcf6a5aa967e04dc3c10c2,61ad71e11ddd29ccf7a27d5b,61ad72b97e028f1d19acf521,,,,,,34.9362793,99.78604126,1,0,0,response1disk,0.6983,2.334716797,10.8951416,1,0,0,rectangle,2.334716797,10.8951416,1,0,0,-3,-3,"[105,53,93,97,64,85,146,78,21,58]",2.334716797,10.8951416,1,0,0,1,31,112,0,1,Red,Red.jpg,Red,Red.jpg,,
,,,,,,,,,,,,,,,,,,4,,,,,,,,,,,,,,,,,,,,,,,,,,,60dcf6a5aa967e04dc3c10c2,001,2021-12-05_23h18.10.038,jm_natural_scene_simialrity_2-12-2021,2021.2.3,MacIntel,60.0024001,60dcf6a5aa967e04dc3c10c2,61ad71e11ddd29ccf7a27d5b,61ad72b97e028f1d19acf521,,,,,,47.38586426,72.79574585,1,0,0,response1disk,0.7394,6.758056641,5.209899902,1,0,0,rectangle,6.758056641,5.209899902,1,0,0,-3,-2,"[105,53,93,97,64,85,146,78,21,58]",6.758056641,5.209899902,1,0,0,1,32,113,44,1,Purple,Purple.jpg,Purple,Purple.jpg,,
,,,,,,,,,,,,,,,,,,2,,,,,,,,,,,,,,,,,,,,,,,,,,,60dcf6a5aa967e04dc3c10c2,001,2021-12-05_23h18.10.038,jm_natural_scene_simialrity_2-12-2021,2021.2.3,MacIntel,60.0024001,60dcf6a5aa967e04dc3c10c2,61ad71e11ddd29ccf7a27d5b,61ad72b97e028f1d19acf521,,,,,,103.527832,-30.42562866,1,0,0,response3disk,1.5162,10.89556885,7.517578125,1,0,0,rectangle,10.89556885,7.517578125,1,0,0,-3,2,"[105,53,93,97,64,85,146,78,21,58]",10.89556885,7.517578125,1,0,0,1,33,114,32,1,Turquiose,Turquiose.jpg,DarkBlue,DarkBlue.jpg,,
,,,,,,,,,,,,,,,,,,2,,,,,,,,,,,,,,,,,,,,,,,,,,,60dcf6a5aa967e04dc3c10c2,001,2021-12-05_23h18.10.038,jm_natural_scene_simialrity_2-12-2021,2021.2.3,MacIntel,60.0024001,60dcf6a5aa967e04dc3c10c2,61ad71e11ddd29ccf7a27d5b,61ad72b97e028f1d19acf521,,,,,,92.27709961,-58.25036621,1,0,0,response3disk,1.1199,3.406005859,-8.197387695,1,0,0,rectangle,3.406005859,-8.197387695,1,0,0,-3,-2,"[105,53,93,97,64,85,146,78,21,58]",3.406005859,-8.197387695,1,0,0,1,34,115,27,1,DarkGreen,DarkGreen.jpg,DarkBlue,DarkBlue.jpg,,
,,,,,,,,,,,,,,,,,,-1,,,,,,,,,,,,,,,,,,,,,,,,,,,60dcf6a5aa967e04dc3c10c2,001,2021-12-05_23h18.10.038,jm_natural_scene_simialrity_2-12-2021,2021.2.3,MacIntel,60.0024001,60dcf6a5aa967e04dc3c10c2,61ad71e11ddd29ccf7a27d5b,61ad72b97e028f1d19acf521,,,,,,-44.11322021,-90.09344482,1,0,0,response5disk,1.1822,4.606323242,-8.735046387,1,0,0,rectangle,4.606323242,-8.735046387,1,0,0,-3,-4,"[105,53,93,97,64,85,146,78,21,58]",4.606323242,-8.735046387,1,0,0,1,35,116,49,1,LightBlue,LightBlue.jpg,Red,Red.jpg,,
,,,,,,,,,,,,,,,,,,-3,,,,,,,,,,,,,,,,,,,,,,,,,,,60dcf6a5aa967e04dc3c10c2,001,2021-12-05_23h18.10.038,jm_natural_scene_simialrity_2-12-2021,2021.2.3,MacIntel,60.0024001,60dcf6a5aa967e04dc3c10c2,61ad71e11ddd29ccf7a27d5b,61ad72b97e028f1d19acf521,,,,,,-66.48626709,22.65875244,1,0,0,response7disk,0.7216,3.69708252,2.16015625,1,0,0,rectangle,3.69708252,2.16015625,1,0,0,-3,-2,"[105,53,93,97,64,85,146,78,21,58]",3.69708252,2.16015625,1,0,0,1,36,117,54,1,DarkGreen,DarkGreen.jpg,Yellow,Yellow.jpg,,
,,,,,,,,,,,,,,,,,,-2,,,,,,,,,,,,,,,,,,,,,,,,,,,60dcf6a5aa967e04dc3c10c2,001,2021-12-05_23h18.10.038,jm_natural_scene_simialrity_2-12-2021,2021.2.3,MacIntel,60.0024001,60dcf6a5aa967e04dc3c10c2,61ad71e11ddd29ccf7a27d5b,61ad72b97e028f1d19acf521,,,,,,-83.00164795,-36.98132324,1,0,0,response5disk,1.2998,-11.77362061,1.60144043,1,0,0,rectangle,-11.77362061,1.60144043,1,0,0,-3,-3,"[105,53,93,97,64,85,146,78,21,58]",-11.77362061,1.60144043,1,0,0,1,37,118,67,1,LightBlue,LightBlue.jpg,DarkGreen,DarkGreen.jpg,,
,,,,,,,,,,,,,,,,,,-3,,,,,,,,,,,,,,,,,,,,,,,,,,,60dcf6a5aa967e04dc3c10c2,001,2021-12-05_23h18.10.038,jm_natural_scene_simialrity_2-12-2021,2021.2.3,MacIntel,60.0024001,60dcf6a5aa967e04dc3c10c2,61ad71e11ddd29ccf7a27d5b,61ad72b97e028f1d19acf521,,,,,,-99.59771729,64.84289551,1,0,0,response7disk,0.817,-0.746276855,4.356079102,1,0,0,rectangle,-0.746276855,4.356079102,1,0,0,-3,2,"[105,53,93,97,64,85,146,78,21,58]",-0.746276855,4.356079102,1,0,0,1,38,119,33,1,Turquiose,Turquiose.jpg,Pink,Pink.jpg,,
,,,,,,,,,,,,,,,,,,-3,,,,,,,,,,,,,,,,,,,,,,,,,,,60dcf6a5aa967e04dc3c10c2,001,2021-12-05_23h18.10.038,jm_natural_scene_simialrity_2-12-2021,2021.2.3,MacIntel,60.0024001,60dcf6a5aa967e04dc3c10c2,61ad71e11ddd29ccf7a27d5b,61ad72b97e028f1d19acf521,,,,,,-110.0648193,45.22744751,1,0,0,response7disk,2.0181,8.33972168,1.580352783,1,0,0,rectangle,8.33972168,1.580352783,1,0,0,-3,2,"[105,53,93,97,64,85,146,78,21,58]",8.33972168,1.580352783,1,0,0,1,39,120,62,1,LightBlue,LightBlue.jpg,LightGreen,LightGreen.jpg,,
,,,,,,,,,,,,,,,,,,-4,,,,,,,,,,,,,,,,,,,,,,,,,,,60dcf6a5aa967e04dc3c10c2,001,2021-12-05_23h18.10.038,jm_natural_scene_simialrity_2-12-2021,2021.2.3,MacIntel,60.0024001,60dcf6a5aa967e04dc3c10c2,61ad71e11ddd29ccf7a27d5b,61ad72b97e028f1d19acf521,,,,,,-59.38635254,109.1468506,1,0,0,response7disk,0.9341,1.605285645,-1.121734619,1,0,0,rectangle,1.605285645,-1.121734619,1,0,0,-3,-4,"[105,53,93,97,64,85,146,78,21,58]",1.605285645,-1.121734619,1,0,0,1,40,121,14,1,Yellow,Yellow.jpg,DarkBlue,DarkBlue.jpg,,
,,,,,,,,,,,,,,,,,,-1,,,,,,,,,,,,,,,,,,,,,,,,,,,60dcf6a5aa967e04dc3c10c2,001,2021-12-05_23h18.10.038,jm_natural_scene_simialrity_2-12-2021,2021.2.3,MacIntel,60.0024001,60dcf6a5aa967e04dc3c10c2,61ad71e11ddd29ccf7a27d5b,61ad72b97e028f1d19acf521,,,,,,-46.94433594,-100.6084595,1,0,0,response5disk,1.7707,-7.87298584,-8.543212891,1,0,0,rectangle,-7.87298584,-8.543212891,1,0,0,-3,-3,"[105,53,93,97,64,85,146,78,21,58]",-7.87298584,-8.543212891,1,0,0,1,41,122,31,1,Turquiose,Turquiose.jpg,LightBlue,LightBlue.jpg,,
,,,,,,,,,,,,,,,,,,-3,,,,,,,,,,,,,,,,,,,,,,,,,,,60dcf6a5aa967e04dc3c10c2,001,2021-12-05_23h18.10.038,jm_natural_scene_simialrity_2-12-2021,2021.2.3,MacIntel,60.0024001,60dcf6a5aa967e04dc3c10c2,61ad71e11ddd29ccf7a27d5b,61ad72b97e028f1d19acf521,,,,,,-91.61706543,45.78778076,1,0,0,response7disk,0.9399,-3.10345459,4.112365723,1,0,0,rectangle,-3.10345459,4.112365723,1,0,0,-3,3,"[105,53,93,97,64,85,146,78,21,58]",-3.10345459,4.112365723,1,0,0,1,42,123,3,1,Red,Red.jpg,DarkGreen,DarkGreen.jpg,,
,,,,,,,,,,,,,,,,,,-3,,,,,,,,,,,,,,,,,,,,,,,,,,,60dcf6a5aa967e04dc3c10c2,001,2021-12-05_23h18.10.038,jm_natural_scene_simialrity_2-12-2021,2021.2.3,MacIntel,60.0024001,60dcf6a5aa967e04dc3c10c2,61ad71e11ddd29ccf7a27d5b,61ad72b97e028f1d19acf521,,,,,,-70.82281494,52.93692017,1,0,0,response7disk,0.7955,-9.618469238,-2.97454834,1,0,0,rectangle,-9.618469238,-2.97454834,1,0,0,-3,3,"[105,53,93,97,64,85,146,78,21,58]",-9.618469238,-2.97454834,1,0,0,1,43,124,69,1,Pink,Pink.jpg,DarkGreen,DarkGreen.jpg,,
,,,,,,,,,,,,,,,,,,-1,,,,,,,,,,,,,,,,,,,,,,,,,,,60dcf6a5aa967e04dc3c10c2,001,2021-12-05_23h18.10.038,jm_natural_scene_simialrity_2-12-2021,2021.2.3,MacIntel,60.0024001,60dcf6a5aa967e04dc3c10c2,61ad71e11ddd29ccf7a27d5b,61ad72b97e028f1d19acf521,,,,,,-52.38336182,-69.79516602,1,0,0,response5disk,1.1812,-5.917602539,-20.49996948,1,0,0,rectangle,-5.917602539,-20.49996948,1,0,0,-3,3,"[105,53,93,97,64,85,146,78,21,58]",-5.917602539,-20.49996948,1,0,0,1,44,125,65,1,Purple,Purple.jpg,LightGreen,LightGreen.jpg,,
,,,,,,,,,,,,,,,,,,-3,,,,,,,,,,,,,,,,,,,,,,,,,,,60dcf6a5aa967e04dc3c10c2,001,2021-12-05_23h18.10.038,jm_natural_scene_simialrity_2-12-2021,2021.2.3,MacIntel,60.0024001,60dcf6a5aa967e04dc3c10c2,61ad71e11ddd29ccf7a27d5b,61ad72b97e028f1d19acf521,,,,,,-92.45141602,44.5736084,1,0,0,response7disk,0.7405,-6.381225586,1.041046143,1,0,0,rectangle,-6.381225586,1.041046143,1,0,0,-3,2,"[105,53,93,97,64,85,146,78,21,58]",-6.381225586,1.041046143,1,0,0,1,45,126,12,1,Yellow,Yellow.jpg,Turquiose,Turquiose.jpg,,
,,,,,,,,,,,,,,,,,,4,,,,,,,,,,,,,,,,,,,,,,,,,,,60dcf6a5aa967e04dc3c10c2,001,2021-12-05_23h18.10.038,jm_natural_scene_simialrity_2-12-2021,2021.2.3,MacIntel,60.0024001,60dcf6a5aa967e04dc3c10c2,61ad71e11ddd29ccf7a27d5b,61ad72b97e028f1d19acf521,,,,,,56.04083252,101.6335449,1,0,0,response1disk,0.7129,8.47253418,-1.324035645,1,0,0,rectangle,8.47253418,-1.324035645,1,0,0,-3,-1,"[105,53,93,97,64,85,146,78,21,58]",8.47253418,-1.324035645,1,0,0,1,46,127,42,1,Pink,Pink.jpg,Pink,Pink.jpg,,
,,,,,,,,,,,,,,,,,,1,,,,,,,,,,,,,,,,,,,,,,,,,,,60dcf6a5aa967e04dc3c10c2,001,2021-12-05_23h18.10.038,jm_natural_scene_simialrity_2-12-2021,2021.2.3,MacIntel,60.0024001,60dcf6a5aa967e04dc3c10c2,61ad71e11ddd29ccf7a27d5b,61ad72b97e028f1d19acf521,,,,,,56.86651611,-102.6355591,1,0,0,response3disk,1.47,-11.22705078,-3.821044922,1,0,0,rectangle,-11.22705078,-3.821044922,1,0,0,-3,2,"[105,53,93,97,64,85,146,78,21,58]",-11.22705078,-3.821044922,1,0,0,1,47,128,36,1,LightBlue,LightBlue.jpg,DarkBlue,DarkBlue.jpg,,
,,,,,,,,,,,,,,,,,,-3,,,,,,,,,,,,,,,,,,,,,,,,,,,60dcf6a5aa967e04dc3c10c2,001,2021-12-05_23h18.10.038,jm_natural_scene_simialrity_2-12-2021,2021.2.3,MacIntel,60.0024001,60dcf6a5aa967e04dc3c10c2,61ad71e11ddd29ccf7a27d5b,61ad72b97e028f1d19acf521,,,,,,-83.36328125,40.16186523,1,0,0,response7disk,0.8163,14.41424561,-17.41156006,1,0,0,rectangle,14.41424561,-17.41156006,1,0,0,-3,1,"[105,53,93,97,64,85,146,78,21,58]",14.41424561,-17.41156006,1,0,0,1,48,129,52,1,Purple,Purple.jpg,Red,Red.jpg,,
,,,,,,,,,,,,,,,,,,2,,,,,,,,,,,,,,,,,,,,,,,,,,,60dcf6a5aa967e04dc3c10c2,001,2021-12-05_23h18.10.038,jm_natural_scene_simialrity_2-12-2021,2021.2.3,MacIntel,60.0024001,60dcf6a5aa967e04dc3c10c2,61ad71e11ddd29ccf7a27d5b,61ad72b97e028f1d19acf521,,,,,,99.86743164,-55.48937988,1,0,0,response3disk,1.0295,6.560119629,-12.73590088,1,0,0,rectangle,6.560119629,-12.73590088,1,0,0,-3,3,"[105,53,93,97,64,85,146,78,21,58]",6.560119629,-12.73590088,1,0,0,1,49,130,58,1,Pink,Pink.jpg,Yellow,Yellow.jpg,,
,,,,,,,,,,,,,,,,,,-3,,,,,,,,,,,,,,,,,,,,,,,,,,,60dcf6a5aa967e04dc3c10c2,001,2021-12-05_23h18.10.038,jm_natural_scene_simialrity_2-12-2021,2021.2.3,MacIntel,60.0024001,60dcf6a5aa967e04dc3c10c2,61ad71e11ddd29ccf7a27d5b,61ad72b97e028f1d19acf521,,,,,,-106.1046753,44.83758545,1,0,0,response7disk,1.3073,-14.13366699,11.83209229,1,0,0,rectangle,-14.13366699,11.83209229,1,0,0,-3,2,"[105,53,93,97,64,85,146,78,21,58]",-14.13366699,11.83209229,1,0,0,1,50,131,48,1,Turquiose,Turquiose.jpg,Red,Red.jpg,,
,,,,,,,,,,,,,,,,,,-3,,,,,,,,,,,,,,,,,,,,,,,,,,,60dcf6a5aa967e04dc3c10c2,001,2021-12-05_23h18.10.038,jm_natural_scene_simialrity_2-12-2021,2021.2.3,MacIntel,60.0024001,60dcf6a5aa967e04dc3c10c2,61ad71e11ddd29ccf7a27d5b,61ad72b97e028f1d19acf521,,,,,,-73.98510742,27.60665894,1,0,0,response7disk,0.8153,10.01947021,-8.383361816,1,0,0,rectangle,10.01947021,-8.383361816,1,0,0,-3,3,"[105,53,93,97,64,85,146,78,21,58]",10.01947021,-8.383361816,1,0,0,1,51,132,10,1,Yellow,Yellow.jpg,LightGreen,LightGreen.jpg,,
,,,,,,,,,,,,,,,,,,-3,,,,,,,,,,,,,,,,,,,,,,,,,,,60dcf6a5aa967e04dc3c10c2,001,2021-12-05_23h18.10.038,jm_natural_scene_simialrity_2-12-2021,2021.2.3,MacIntel,60.0024001,60dcf6a5aa967e04dc3c10c2,61ad71e11ddd29ccf7a27d5b,61ad72b97e028f1d19acf521,,,,,,-64.91992188,21.1769104,1,0,0,response7disk,0.7059,-19.47558594,-6.437316895,1,0,0,rectangle,-19.47558594,-6.437316895,1,0,0,-3,3,"[105,53,93,97,64,85,146,78,21,58]",-19.47558594,-6.437316895,1,0,0,1,52,133,2,1,Red,Red.jpg,LightGreen,LightGreen.jpg,,
,,,,,,,,,,,,,,,,,,4,,,,,,,,,,,,,,,,,,,,,,,,,,,60dcf6a5aa967e04dc3c10c2,001,2021-12-05_23h18.10.038,jm_natural_scene_simialrity_2-12-2021,2021.2.3,MacIntel,60.0024001,60dcf6a5aa967e04dc3c10c2,61ad71e11ddd29ccf7a27d5b,61ad72b97e028f1d19acf521,,,,,,29.28717041,110.4545288,1,0,0,response1disk,0.8163,1.101501465,4.726074219,1,0,0,rectangle,1.101501465,4.726074219,1,0,0,-3,-3,"[105,53,93,97,64,85,146,78,21,58]",1.101501465,4.726074219,1,0,0,1,53,134,17,1,LightGreen,LightGreen.jpg,LightGreen,LightGreen.jpg,,
,,,,,,,,,,,,,,,,,,1,,,,,,,,,,,,,,,,,,,,,,,,,,,60dcf6a5aa967e04dc3c10c2,001,2021-12-05_23h18.10.038,jm_natural_scene_simialrity_2-12-2021,2021.2.3,MacIntel,60.0024001,60dcf6a5aa967e04dc3c10c2,61ad71e11ddd29ccf7a27d5b,61ad72b97e028f1d19acf521,,,,,,51.18847656,-103.6992798,1,0,0,response3disk,0.8671,-4.545288086,-11.04302979,1,0,0,rectangle,-4.545288086,-11.04302979,1,0,0,-3,1,"[105,53,93,97,64,85,146,78,21,58]",-4.545288086,-11.04302979,1,0,0,1,54,135,21,1,LightGreen,LightGreen.jpg,DarkBlue,DarkBlue.jpg,,
,,,,,,,,,,,,,,,,,,-3,,,,,,,,,,,,,,,,,,,,,,,,,,,60dcf6a5aa967e04dc3c10c2,001,2021-12-05_23h18.10.038,jm_natural_scene_simialrity_2-12-2021,2021.2.3,MacIntel,60.0024001,60dcf6a5aa967e04dc3c10c2,61ad71e11ddd29ccf7a27d5b,61ad72b97e028f1d19acf521,,,,,,-72.96075439,45.86819458,1,0,0,response7disk,0.7983,3.140991211,2.302886963,1,0,0,rectangle,3.140991211,2.302886963,1,0,0,-3,-4,"[105,53,93,97,64,85,146,78,21,58]",3.140991211,2.302886963,1,0,0,1,55,136,55,1,Turquiose,Turquiose.jpg,Yellow,Yellow.jpg,,
,,,,,,,,,,,,,,,,,,-3,,,,,,,,,,,,,,,,,,,,,,,,,,,60dcf6a5aa967e04dc3c10c2,001,2021-12-05_23h18.10.038,jm_natural_scene_simialrity_2-12-2021,2021.2.3,MacIntel,60.0024001,60dcf6a5aa967e04dc3c10c2,61ad71e11ddd29ccf7a27d5b,61ad72b97e028f1d19acf521,,,,,,-70.15631104,36.41583252,1,0,0,response7disk,0.7539,-14.95471191,-5.238922119,1,0,0,rectangle,-14.95471191,-5.238922119,1,0,0,-3,-3,"[105,53,93,97,64,85,146,78,21,58]",-14.95471191,-5.238922119,1,0,0,1,56,137,41,1,DarkBlue,DarkBlue.jpg,Purple,Purple.jpg,,
,,,,,,,,,,,,,,,,,,2,,,,,,,,,,,,,,,,,,,,,,,,,,,60dcf6a5aa967e04dc3c10c2,001,2021-12-05_23h18.10.038,jm_natural_scene_simialrity_2-12-2021,2021.2.3,MacIntel,60.0024001,60dcf6a5aa967e04dc3c10c2,61ad71e11ddd29ccf7a27d5b,61ad72b97e028f1d19acf521,,,,,,98.27020264,-45.17544556,1,0,0,response3disk,1.2171,6.573669434,-10.4095459,1,0,0,rectangle,6.573669434,-10.4095459,1,0,0,-3,-1,"[105,53,93,97,64,85,146,78,21,58]",6.573669434,-10.4095459,1,0,0,1,57,138,15,1,Yellow,Yellow.jpg,Pink,Pink.jpg,,
,,,,,,,,,,,,,,,,,,-2,,,,,,,,,,,,,,,,,,,,,,,,,,,60dcf6a5aa967e04dc3c10c2,001,2021-12-05_23h18.10.038,jm_natural_scene_simialrity_2-12-2021,2021.2.3,MacIntel,60.0024001,60dcf6a5aa967e04dc3c10c2,61ad71e11ddd29ccf7a27d5b,61ad72b97e028f1d19acf521,,,,,,-66.65631104,-36.90454102,1,0,0,response5disk,1.2159,-11.01977539,-9.199920654,1,0,0,rectangle,-11.01977539,-9.199920654,1,0,0,-3,-4,"[105,53,93,97,64,85,146,78,21,58]",-11.01977539,-9.199920654,1,0,0,1,58,139,23,1,LightGreen,LightGreen.jpg,Purple,Purple.jpg,,
,,,,,,,,,,,,,,,,,,3,,,,,,,,,,,,,,,,,,,,,,,,,,,60dcf6a5aa967e04dc3c10c2,001,2021-12-05_23h18.10.038,jm_natural_scene_simialrity_2-12-2021,2021.2.3,MacIntel,60.0024001,60dcf6a5aa967e04dc3c10c2,61ad71e11ddd29ccf7a27d5b,61ad72b97e028f1d19acf521,,,,,,97.9085083,40.07684326,1,0,0,response1disk,0.7318,5.701416016,4.275268555,1,0,0,rectangle,5.701416016,4.275268555,1,0,0,-3,-2,"[105,53,93,97,64,85,146,78,21,58]",5.701416016,4.275268555,1,0,0,1,59,140,45,1,Yellow,Yellow.jpg,Red,Red.jpg,,
,,,,,,,,,,,,,,,,,,2,,,,,,,,,,,,,,,,,,,,,,,,,,,60dcf6a5aa967e04dc3c10c2,001,2021-12-05_23h18.10.038,jm_natural_scene_simialrity_2-12-2021,2021.2.3,MacIntel,60.0024001,60dcf6a5aa967e04dc3c10c2,61ad71e11ddd29ccf7a27d5b,61ad72b97e028f1d19acf521,,,,,,80.27227783,-59.65997314,1,0,0,response3disk,1.1461,3.174621582,-2.960449219,1,0,0,rectangle,3.174621582,-2.960449219,1,0,0,-3,2,"[105,53,93,97,64,85,146,78,21,58]",3.174621582,-2.960449219,1,0,0,1,60,141,5,1,Red,Red.jpg,LightBlue,LightBlue.jpg,,
,,,,,,,,,,,,,,,,,,4,,,,,,,,,,,,,,,,,,,,,,,,,,,60dcf6a5aa967e04dc3c10c2,001,2021-12-05_23h18.10.038,jm_natural_scene_simialrity_2-12-2021,2021.2.3,MacIntel,60.0024001,60dcf6a5aa967e04dc3c10c2,61ad71e11ddd29ccf7a27d5b,61ad72b97e028f1d19acf521,,,,,,38.03863525,93.21420288,1,0,0,response1disk,0.651,-0.609008789,15.66491699,1,0,0,rectangle,-0.609008789,15.66491699,1,0,0,-3,-1,"[105,53,93,97,64,85,146,78,21,58]",-0.609008789,15.66491699,1,0,0,1,61,142,9,1,Yellow,Yellow.jpg,Yellow,Yellow.jpg,,
,,,,,,,,,,,,,,,,,,-1,,,,,,,,,,,,,,,,,,,,,,,,,,,60dcf6a5aa967e04dc3c10c2,001,2021-12-05_23h18.10.038,jm_natural_scene_simialrity_2-12-2021,2021.2.3,MacIntel,60.0024001,60dcf6a5aa967e04dc3c10c2,61ad71e11ddd29ccf7a27d5b,61ad72b97e028f1d19acf521,,,,,,-38.546875,-88.67578125,1,0,0,response5disk,0.7662,6.660339355,-11.52459717,1,0,0,rectangle,6.660339355,-11.52459717,1,0,0,-3,-1,"[105,53,93,97,64,85,146,78,21,58]",6.660339355,-11.52459717,1,0,0,1,62,143,79,1,Purple,Purple.jpg,DarkBlue,DarkBlue.jpg,,
,,,,,,,,,,,,,,,,,,4,,,,,,,,,,,,,,,,,,,,,,,,,,,60dcf6a5aa967e04dc3c10c2,001,2021-12-05_23h18.10.038,jm_natural_scene_simialrity_2-12-2021,2021.2.3,MacIntel,60.0024001,60dcf6a5aa967e04dc3c10c2,61ad71e11ddd29ccf7a27d5b,61ad72b97e028f1d19acf521,,,,,,47.62805176,64.7149353,1,0,0,response1disk,0.7314,16.71990967,9.242553711,1,0,0,rectangle,16.71990967,9.242553711,1,0,0,-3,-2,"[105,53,93,97,64,85,146,78,21,58]",16.71990967,9.242553711,1,0,0,1,63,144,30,1,Turquiose,Turquiose.jpg,Turquiose,Turquiose.jpg,,
,,,,,,,,,,,,,,,,,,-3,,,,,,,,,,,,,,,,,,,,,,,,,,,60dcf6a5aa967e04dc3c10c2,001,2021-12-05_23h18.10.038,jm_natural_scene_simialrity_2-12-2021,2021.2.3,MacIntel,60.0024001,60dcf6a5aa967e04dc3c10c2,61ad71e11ddd29ccf7a27d5b,61ad72b97e028f1d19acf521,,,,,,-101.3720703,68.6036377,1,0,0,response7disk,1.0317,-1.361999512,-2.239807129,1,0,0,rectangle,-85.24310303,-44.52243042,1,0,0,-3,-2,"[105,53,93,97,64,85,146,78,21,58]",-3.278991699,-15.22161865,1,0,0,1,64,145,50,1,DarkBlue,DarkBlue.jpg,Red,Red.jpg,response5disk_3,rectangle
,,,,,,,,,,,,,,,,,,1,,,,,,,,,,,,,,,,,,,,,,,,,,,60dcf6a5aa967e04dc3c10c2,001,2021-12-05_23h18.10.038,jm_natural_scene_simialrity_2-12-2021,2021.2.3,MacIntel,60.0024001,60dcf6a5aa967e04dc3c10c2,61ad71e11ddd29ccf7a27d5b,61ad72b97e028f1d19acf521,,,,,,68.35388184,-105.6988525,1,0,0,response3disk,1.1511,-5.79309082,-16.68850708,1,0,0,rectangle,-5.79309082,-16.68850708,1,0,0,-3,3,"[105,53,93,97,64,85,146,78,21,58]",-5.79309082,-16.68850708,1,0,0,1,65,146,76,1,Pink,Pink.jpg,LightBlue,LightBlue.jpg,,
,,,,,,,,,,,,,,,,,,-3,,,,,,,,,,,,,,,,,,,,,,,,,,,60dcf6a5aa967e04dc3c10c2,001,2021-12-05_23h18.10.038,jm_natural_scene_simialrity_2-12-2021,2021.2.3,MacIntel,60.0024001,60dcf6a5aa967e04dc3c10c2,61ad71e11ddd29ccf7a27d5b,61ad72b97e028f1d19acf521,,,,,,-93.75976563,33.24267578,1,0,0,response7disk,1.3653,-3.34588623,3.516052246,1,0,0,rectangle,-3.34588623,3.516052246,1,0,0,-3,-1,"[105,53,93,97,64,85,146,78,21,58]",-3.34588623,3.516052246,1,0,0,1,66,147,16,1,Yellow,Yellow.jpg,Purple,Purple.jpg,,
,,,,,,,,,,,,,,,,,,-2,,,,,,,,,,,,,,,,,,,,,,,,,,,60dcf6a5aa967e04dc3c10c2,001,2021-12-05_23h18.10.038,jm_natural_scene_simialrity_2-12-2021,2021.2.3,MacIntel,60.0024001,60dcf6a5aa967e04dc3c10c2,61ad71e11ddd29ccf7a27d5b,61ad72b97e028f1d19acf521,,,,,,-120.6864624,-50.3862915,1,0,0,response5disk,1.5255,10.17565918,-4.84979248,1,0,0,rectangle,10.17565918,-4.84979248,1,0,0,-3,-2,"[105,53,93,97,64,85,146,78,21,58]",10.17565918,-4.84979248,1,0,0,1,67,148,34,1,Turquiose,Turquiose.jpg,Purple,Purple.jpg,,
,,,,,,,,,,,,,,,,,,-1,,,,,,,,,,,,,,,,,,,,,,,,,,,60dcf6a5aa967e04dc3c10c2,001,2021-12-05_23h18.10.038,jm_natural_scene_simialrity_2-12-2021,2021.2.3,MacIntel,60.0024001,60dcf6a5aa967e04dc3c10c2,61ad71e11ddd29ccf7a27d5b,61ad72b97e028f1d19acf521,,,,,,-27.87506104,-91.70977783,1,0,0,response5disk,0.9876,-2.975646973,5.976318359,1,0,0,rectangle,-2.975646973,5.976318359,1,0,0,-3,-4,"[105,53,93,97,64,85,146,78,21,58]",-2.975646973,5.976318359,1,0,0,1,68,149,20,1,LightGreen,LightGreen.jpg,LightBlue,LightBlue.jpg,,
,,,,,,,,,,,,,,,,,,-1,,,,,,,,,,,,,,,,,,,,,,,,,,,60dcf6a5aa967e04dc3c10c2,001,2021-12-05_23h18.10.038,jm_natural_scene_simialrity_2-12-2021,2021.2.3,MacIntel,60.0024001,60dcf6a5aa967e04dc3c10c2,61ad71e11ddd29ccf7a27d5b,61ad72b97e028f1d19acf521,,,,,,-44.83843994,-76.6385498,1,0,0,response5disk,2.1004,8.110534668,-3.882263184,1,0,0,rectangle,8.110534668,-3.882263184,1,0,0,-3,2,"[105,53,93,97,64,85,146,78,21,58]",8.110534668,-3.882263184,1,0,0,1,69,150,63,1,DarkBlue,DarkBlue.jpg,LightGreen,LightGreen.jpg,,
,,,,,,,,,,,,,,,,,,-2,,,,,,,,,,,,,,,,,,,,,,,,,,,60dcf6a5aa967e04dc3c10c2,001,2021-12-05_23h18.10.038,jm_natural_scene_simialrity_2-12-2021,2021.2.3,MacIntel,60.0024001,60dcf6a5aa967e04dc3c10c2,61ad71e11ddd29ccf7a27d5b,61ad72b97e028f1d19acf521,,,,,,-84.42486572,-67.05114746,1,0,0,response5disk,1.2491,-1.590026855,-1.492736816,1,0,0,rectangle,-1.590026855,-1.492736816,1,0,0,-3,-4,"[105,53,93,97,64,85,146,78,21,58]",-1.590026855,-1.492736816,1,0,0,1,70,151,59,1,Purple,Purple.jpg,Yellow,Yellow.jpg,,
,,,,,,,,,,,,,,,,,,2,,,,,,,,,,,,,,,,,,,,,,,,,,,60dcf6a5aa967e04dc3c10c2,001,2021-12-05_23h18.10.038,jm_natural_scene_simialrity_2-12-2021,2021.2.3,MacIntel,60.0024001,60dcf6a5aa967e04dc3c10c2,61ad71e11ddd29ccf7a27d5b,61ad72b97e028f1d19acf521,,,,,,94.63214111,-42.46502686,1,0,0,response3disk,0.9493,15.66778564,5.689331055,1,0,0,rectangle,15.66778564,5.689331055,1,0,0,-3,1,"[105,53,93,97,64,85,146,78,21,58]",15.66778564,5.689331055,1,0,0,1,71,152,38,1,LightBlue,LightBlue.jpg,Purple,Purple.jpg,,
,,,,,,,,,,,,,,,,,,3,,,,,,,,,,,,,,,,,,,,,,,,,,,60dcf6a5aa967e04dc3c10c2,001,2021-12-05_23h18.10.038,jm_natural_scene_simialrity_2-12-2021,2021.2.3,MacIntel,60.0024001,60dcf6a5aa967e04dc3c10c2,61ad71e11ddd29ccf7a27d5b,61ad72b97e028f1d19acf521,,,,,,113.819458,52.06930542,1,0,0,response1disk,0.8987,-17.53649902,-4.523986816,1,0,0,rectangle,-17.53649902,-4.523986816,1,0,0,-3,-4,"[105,53,93,97,64,85,146,78,21,58]",-17.53649902,-4.523986816,1,0,0,1,72,153,18,1,LightGreen,LightGreen.jpg,DarkGreen,DarkGreen.jpg,,
,,,,,,,,,,,,,,,,,,-2,,,,,,,,,,,,,,,,,,,,,,,,,,,60dcf6a5aa967e04dc3c10c2,001,2021-12-05_23h18.10.038,jm_natural_scene_simialrity_2-12-2021,2021.2.3,MacIntel,60.0024001,60dcf6a5aa967e04dc3c10c2,61ad71e11ddd29ccf7a27d5b,61ad72b97e028f1d19acf521,,,,,,-94.91766357,-34.9074707,1,0,0,response5disk,0.9857,7.80255127,9.104064941,1,0,0,rectangle,7.80255127,9.104064941,1,0,0,-3,2,"[105,53,93,97,64,85,146,78,21,58]",7.80255127,9.104064941,1,0,0,1,73,154,28,1,DarkGreen,DarkGreen.jpg,Pink,Pink.jpg,,
,,,,,,,,,,,,,,,,,,4,,,,,,,,,,,,,,,,,,,,,,,,,,,60dcf6a5aa967e04dc3c10c2,001,2021-12-05_23h18.10.038,jm_natural_scene_simialrity_2-12-2021,2021.2.3,MacIntel,60.0024001,60dcf6a5aa967e04dc3c10c2,61ad71e11ddd29ccf7a27d5b,61ad72b97e028f1d19acf521,,,,,,47.54846191,141.6083374,1,0,0,response1disk,0.7146,1.042175293,17.26541138,1,0,0,rectangle,1.042175293,17.26541138,1,0,0,-3,1,"[105,53,93,97,64,85,146,78,21,58]",1.042175293,17.26541138,1,0,0,1,74,155,24,1,DarkGreen,DarkGreen.jpg,DarkGreen,DarkGreen.jpg,,
,,,,,,,,,,,,,,,,,,1,,,,,,,,,,,,,,,,,,,,,,,,,,,60dcf6a5aa967e04dc3c10c2,001,2021-12-05_23h18.10.038,jm_natural_scene_simialrity_2-12-2021,2021.2.3,MacIntel,60.0024001,60dcf6a5aa967e04dc3c10c2,61ad71e11ddd29ccf7a27d5b,61ad72b97e028f1d19acf521,,,,,,57.96502686,-93.81286621,1,0,0,response3disk,0.965,0.289611816,-3.106567383,1,0,0,rectangle,0.289611816,-3.106567383,1,0,0,-3,-2,"[105,53,93,97,64,85,146,78,21,58]",0.289611816,-3.106567383,1,0,0,1,75,156,19,1,LightGreen,LightGreen.jpg,Turquiose,Turquiose.jpg,,
,,,,,,,,,,,,,,,,,,2,,,,,,,,,,,,,,,,,,,,,,,,,,,60dcf6a5aa967e04dc3c10c2,001,2021-12-05_23h18.10.038,jm_natural_scene_simialrity_2-12-2021,2021.2.3,MacIntel,60.0024001,60dcf6a5aa967e04dc3c10c2,61ad71e11ddd29ccf7a27d5b,61ad72b97e028f1d19acf521,,,,,,99.48876953,-39.05236816,1,0,0,response3disk,1.2675,11.27734375,-0.976226807,1,0,0,rectangle,11.27734375,-0.976226807,1,0,0,-3,-3,"[105,53,93,97,64,85,146,78,21,58]",11.27734375,-0.976226807,1,0,0,1,76,157,1,1,Red,Red.jpg,Yellow,Yellow.jpg,,
,,,,,,,,,,,,,,,,,,-2,,,,,,,,,,,,,,,,,,,,,,,,,,,60dcf6a5aa967e04dc3c10c2,001,2021-12-05_23h18.10.038,jm_natural_scene_simialrity_2-12-2021,2021.2.3,MacIntel,60.0024001,60dcf6a5aa967e04dc3c10c2,61ad71e11ddd29ccf7a27d5b,61ad72b97e028f1d19acf521,,,,,,-96.95965576,-17.50634766,1,0,0,response5disk,0.9,0.752441406,-4.900604248,1,0,0,rectangle,0.752441406,-4.900604248,1,0,0,-3,-4,"[105,53,93,97,64,85,146,78,21,58]",0.752441406,-4.900604248,1,0,0,1,77,158,6,1,Red,Red.jpg,DarkBlue,DarkBlue.jpg,,
,,,,,,,,,,,,,,,,,,2,,,,,,,,,,,,,,,,,,,,,,,,,,,60dcf6a5aa967e04dc3c10c2,001,2021-12-05_23h18.10.038,jm_natural_scene_simialrity_2-12-2021,2021.2.3,MacIntel,60.0024001,60dcf6a5aa967e04dc3c10c2,61ad71e11ddd29ccf7a27d5b,61ad72b97e028f1d19acf521,,,,,,97.39245605,-40.82260132,1,0,0,response3disk,1.1051,-4.413085938,-1.032653809,1,0,0,rectangle,-4.413085938,-1.032653809,1,0,0,-3,-2,"[105,53,93,97,64,85,146,78,21,58]",-4.413085938,-1.032653809,1,0,0,1,78,159,68,1,DarkBlue,DarkBlue.jpg,DarkGreen,DarkGreen.jpg,,
,,,,,,,,,,,,,,,,,,-1,,,,,,,,,,,,,,,,,,,,,,,,,,,60dcf6a5aa967e04dc3c10c2,001,2021-12-05_23h18.10.038,jm_natural_scene_simialrity_2-12-2021,2021.2.3,MacIntel,60.0024001,60dcf6a5aa967e04dc3c10c2,61ad71e11ddd29ccf7a27d5b,61ad72b97e028f1d19acf521,,,,,,-46.30883789,-95.60980225,1,0,0,response5disk,1.5004,-4.598327637,-6.794952393,1,0,0,rectangle,-4.598327637,-6.794952393,1,0,0,-3,3,"[105,53,93,97,64,85,146,78,21,58]",-4.598327637,-6.794952393,1,0,0,1,79,160,26,1,DarkGreen,DarkGreen.jpg,LightBlue,LightBlue.jpg,,
,,,,,,,,,,,,,,,,,,-3,,,,,,,,,,,,,,,,,,,,,,,,,,,60dcf6a5aa967e04dc3c10c2,001,2021-12-05_23h18.10.038,jm_natural_scene_simialrity_2-12-2021,2021.2.3,MacIntel,60.0024001,60dcf6a5aa967e04dc3c10c2,61ad71e11ddd29ccf7a27d5b,61ad72b97e028f1d19acf521,,,,,,-98.24932861,56.56695557,1,0,0,response7disk,0.8999,-2.222595215,-0.386260986,1,0,0,rectangle,-2.222595215,-0.386260986,1,0,0,-3,-4,"[105,53,93,97,64,85,146,78,21,58]",-2.222595215,-0.386260986,1,0,0,1,80,161,57,1,DarkBlue,DarkBlue.jpg,Yellow,Yellow.jpg,,
