key_resp.keys,key_resp.rt,key_resp_16.keys,key_resp_16.rt,key_resp_2.keys,key_resp_2.rt,key_resp_3.keys,key_resp_3.rt,key_resp_19.keys,key_resp_19.rt,key_resp_10.keys,key_resp_10.rt,mouse_prac.x,mouse_prac.y,mouse_prac.leftButton,mouse_prac.midButton,mouse_prac.rightButton,mouse_prac.clicked_name,similarity,mouse_10.x,mouse_10.y,mouse_10.leftButton,mouse_10.midButton,mouse_10.rightButton,mouse_10.clicked_name,mouse_catch_prac.x,mouse_catch_prac.y,mouse_catch_prac.leftButton,mouse_catch_prac.midButton,mouse_catch_prac.rightButton,catchnumberprac,mouse_6.x,mouse_6.y,mouse_6.leftButton,mouse_6.midButton,mouse_6.rightButton,during_prac.thisRepN,during_prac.thisTrialN,during_prac.thisN,during_prac.thisIndex,during_prac.ran,trailimage1,trial1adress,trailimage2,trial2adress,participant,session,date,expName,psychopyVersion,OS,frameRate,PROLIFIC_PID,STUDY_ID,SESSION_ID,mouse_catch_prac.clicked_name,catchprac,mouse_6.clicked_name,key_resp_22.keys,key_resp_22.rt,mouse.x,mouse.y,mouse.leftButton,mouse.midButton,mouse.rightButton,mouse.clicked_name,response_time,mouse_2.x,mouse_2.y,mouse_2.leftButton,mouse_2.midButton,mouse_2.rightButton,mouse_2.clicked_name,mouse_3.x,mouse_3.y,mouse_3.leftButton,mouse_3.midButton,mouse_3.rightButton,catchresponse,catchnumber,catchtrialorder,mouse_11.x,mouse_11.y,mouse_11.leftButton,mouse_11.midButton,mouse_11.rightButton,trials_2.thisRepN,trials_2.thisTrialN,trials_2.thisN,trials_2.thisIndex,trials_2.ran,image1,image1adress,image2,image2adress,mouse_3.clicked_name,mouse_11.clicked_name
space,5.5422,space,1.8326,space,5.203,space,6.085,space,16.2917,space,2.7974,76,-45,1,0,0,response3disk_5,2,-3,0,1,0,0,rectangle_8,-3,0,1,0,0,1,-3,0,1,0,0,0,0,0,4,1,trail2,trail2.jpg,trail3,trail3.jpg,610c5b0a0f713891f0d5af7f,001,2021-12-06_02h18.05.622,jm_natural_scene_simialrity_2-12-2021,2021.2.3,Win32,144.5295563,610c5b0a0f713891f0d5af7f,61ad71e11ddd29ccf7a27d5b,61ad72d2836c9a04783d3053,,,,,,,,,,,,,,,,,,,,,,,,,,,,,,,,,,,,,,,,,,
,,,,,,,,,,,,115,-69,1,0,0,response3disk_5,2,-2,5,1,0,0,rectangle_8,-68,46,1,0,0,1,-9,9,1,0,0,0,1,1,3,1,trail2,trail2.jpg,trail2,trail2.jpg,610c5b0a0f713891f0d5af7f,001,2021-12-06_02h18.05.622,jm_natural_scene_simialrity_2-12-2021,2021.2.3,Win32,144.5295563,610c5b0a0f713891f0d5af7f,61ad71e11ddd29ccf7a27d5b,61ad72d2836c9a04783d3053,response7disk_7,-3,rectangle_4,,,,,,,,,,,,,,,,,,,,,,,,,,,,,,,,,,,,,,,
,,,,,,,,,,,,-49,-55,1,0,0,response5disk_5,-1,-6,5,1,0,0,rectangle_8,-6,5,1,0,0,1,-6,5,1,0,0,0,2,2,1,1,trail1,trail1.jpg,trail2,trail2.jpg,610c5b0a0f713891f0d5af7f,001,2021-12-06_02h18.05.622,jm_natural_scene_simialrity_2-12-2021,2021.2.3,Win32,144.5295563,610c5b0a0f713891f0d5af7f,61ad71e11ddd29ccf7a27d5b,61ad72d2836c9a04783d3053,,,,,,,,,,,,,,,,,,,,,,,,,,,,,,,,,,,,,,,,,,
,,,,,,,,,,,,30,31,1,0,0,response1disk_5,4,-5,1,1,0,0,rectangle_8,-83,65,1,0,0,1,-3,-5,1,0,0,0,3,3,2,1,trail1,trail1.jpg,trail3,trail3.jpg,610c5b0a0f713891f0d5af7f,001,2021-12-06_02h18.05.622,jm_natural_scene_simialrity_2-12-2021,2021.2.3,Win32,144.5295563,610c5b0a0f713891f0d5af7f,61ad71e11ddd29ccf7a27d5b,61ad72d2836c9a04783d3053,response7disk_7,-3,rectangle_4,,,,,,,,,,,,,,,,,,,,,,,,,,,,,,,,,,,,,,,
,,,,,,,,,,,,48,42,1,0,0,response1disk_5,3,-5,8,1,0,0,rectangle_8,-5,8,1,0,0,1,-5,8,1,0,0,0,4,4,0,1,trail1,trail1.jpg,trail1,trail1.jpg,610c5b0a0f713891f0d5af7f,001,2021-12-06_02h18.05.622,jm_natural_scene_simialrity_2-12-2021,2021.2.3,Win32,144.5295563,610c5b0a0f713891f0d5af7f,61ad71e11ddd29ccf7a27d5b,61ad72d2836c9a04783d3053,,,,,,,,,,,,,,,,,,,,,,,,,,,,,,,,,,,,,,,,,,
,,,,,,,,,,,,51,45,1,0,0,response1disk_5,3,-5,8,1,0,0,rectangle_8,-5,8,1,0,0,1,-5,8,1,0,0,0,5,5,5,1,trail3,trail3.jpg,trail3,trail3.jpg,610c5b0a0f713891f0d5af7f,001,2021-12-06_02h18.05.622,jm_natural_scene_simialrity_2-12-2021,2021.2.3,Win32,144.5295563,610c5b0a0f713891f0d5af7f,61ad71e11ddd29ccf7a27d5b,61ad72d2836c9a04783d3053,,,,,,,,,,,,,,,,,,,,,,,,,,,,,,,,,,,,,,,,,,
,,,,,,,,,,,,,,,,,,-3,,,,,,,,,,,,,,,,,,,,,,,,,,,610c5b0a0f713891f0d5af7f,001,2021-12-06_02h18.05.622,jm_natural_scene_simialrity_2-12-2021,2021.2.3,Win32,144.5295563,610c5b0a0f713891f0d5af7f,61ad71e11ddd29ccf7a27d5b,61ad72d2836c9a04783d3053,,,,space,1.1065,-89,40,1,0,0,response7disk,1.6741,-4,-12,1,0,0,rectangle,-4,-12,1,0,0,,2,"[52,17,123,150,38,115,22,89,143,36]",-4,-12,1,0,0,0,0,0,79,1,Purple,Purple.jpg,DarkBlue,DarkBlue.jpg,,
,,,,,,,,,,,,,,,,,,-3,,,,,,,,,,,,,,,,,,,,,,,,,,,610c5b0a0f713891f0d5af7f,001,2021-12-06_02h18.05.622,jm_natural_scene_simialrity_2-12-2021,2021.2.3,Win32,144.5295563,610c5b0a0f713891f0d5af7f,61ad71e11ddd29ccf7a27d5b,61ad72d2836c9a04783d3053,,,,,,-73,65,1,0,0,response7disk,1.3403,-1,0,1,0,0,rectangle,-1,0,1,0,0,,-2,"[52,17,123,150,38,115,22,89,143,36]",-1,0,1,0,0,0,1,1,31,1,Turquiose,Turquiose.jpg,LightBlue,LightBlue.jpg,,
,,,,,,,,,,,,,,,,,,3,,,,,,,,,,,,,,,,,,,,,,,,,,,610c5b0a0f713891f0d5af7f,001,2021-12-06_02h18.05.622,jm_natural_scene_simialrity_2-12-2021,2021.2.3,Win32,144.5295563,610c5b0a0f713891f0d5af7f,61ad71e11ddd29ccf7a27d5b,61ad72d2836c9a04783d3053,,,,,,53,52,1,0,0,response1disk,0.7849,4,6,1,0,0,rectangle,4,6,1,0,0,,-4,"[52,17,123,150,38,115,22,89,143,36]",4,6,1,0,0,0,2,2,0,1,Red,Red.jpg,Red,Red.jpg,,
,,,,,,,,,,,,,,,,,,-3,,,,,,,,,,,,,,,,,,,,,,,,,,,610c5b0a0f713891f0d5af7f,001,2021-12-06_02h18.05.622,jm_natural_scene_simialrity_2-12-2021,2021.2.3,Win32,144.5295563,610c5b0a0f713891f0d5af7f,61ad71e11ddd29ccf7a27d5b,61ad72d2836c9a04783d3053,,,,,,-68,53,1,0,0,response7disk,0.7711,-2,0,1,0,0,rectangle,-2,0,1,0,0,,1,"[52,17,123,150,38,115,22,89,143,36]",-2,0,1,0,0,0,3,3,41,1,DarkBlue,DarkBlue.jpg,Purple,Purple.jpg,,
,,,,,,,,,,,,,,,,,,-3,,,,,,,,,,,,,,,,,,,,,,,,,,,610c5b0a0f713891f0d5af7f,001,2021-12-06_02h18.05.622,jm_natural_scene_simialrity_2-12-2021,2021.2.3,Win32,144.5295563,610c5b0a0f713891f0d5af7f,61ad71e11ddd29ccf7a27d5b,61ad72d2836c9a04783d3053,,,,,,-87,50,1,0,0,response7disk,1.0346,-10,-2,1,0,0,rectangle,-10,-2,1,0,0,,-4,"[52,17,123,150,38,115,22,89,143,36]",-10,-2,1,0,0,0,4,4,4,1,Red,Red.jpg,Turquiose,Turquiose.jpg,,
,,,,,,,,,,,,,,,,,,2,,,,,,,,,,,,,,,,,,,,,,,,,,,610c5b0a0f713891f0d5af7f,001,2021-12-06_02h18.05.622,jm_natural_scene_simialrity_2-12-2021,2021.2.3,Win32,144.5295563,610c5b0a0f713891f0d5af7f,61ad71e11ddd29ccf7a27d5b,61ad72d2836c9a04783d3053,,,,,,72,-31,1,0,0,response3disk,2.1808,-2,9,1,0,0,rectangle,-2,9,1,0,0,,2,"[52,17,123,150,38,115,22,89,143,36]",-2,9,1,0,0,0,5,5,19,1,LightGreen,LightGreen.jpg,Turquiose,Turquiose.jpg,,
,,,,,,,,,,,,,,,,,,4,,,,,,,,,,,,,,,,,,,,,,,,,,,610c5b0a0f713891f0d5af7f,001,2021-12-06_02h18.05.622,jm_natural_scene_simialrity_2-12-2021,2021.2.3,Win32,144.5295563,610c5b0a0f713891f0d5af7f,61ad71e11ddd29ccf7a27d5b,61ad72d2836c9a04783d3053,,,,,,49,51,1,0,0,response1disk,0.9175,-6,-2,1,0,0,rectangle,-6,-2,1,0,0,,3,"[52,17,123,150,38,115,22,89,143,36]",-6,-2,1,0,0,0,6,6,39,1,DarkBlue,DarkBlue.jpg,DarkBlue,DarkBlue.jpg,,
,,,,,,,,,,,,,,,,,,-2,,,,,,,,,,,,,,,,,,,,,,,,,,,610c5b0a0f713891f0d5af7f,001,2021-12-06_02h18.05.622,jm_natural_scene_simialrity_2-12-2021,2021.2.3,Win32,144.5295563,610c5b0a0f713891f0d5af7f,61ad71e11ddd29ccf7a27d5b,61ad72d2836c9a04783d3053,,,,,,-73,-34,1,0,0,response5disk,1.2221,0,5,1,0,0,rectangle,0,5,1,0,0,,2,"[52,17,123,150,38,115,22,89,143,36]",0,5,1,0,0,0,7,7,63,1,DarkBlue,DarkBlue.jpg,LightGreen,LightGreen.jpg,,
,,,,,,,,,,,,,,,,,,-4,,,,,,,,,,,,,,,,,,,,,,,,,,,610c5b0a0f713891f0d5af7f,001,2021-12-06_02h18.05.622,jm_natural_scene_simialrity_2-12-2021,2021.2.3,Win32,144.5295563,610c5b0a0f713891f0d5af7f,61ad71e11ddd29ccf7a27d5b,61ad72d2836c9a04783d3053,,,,,,-43,79,1,0,0,response7disk,1.6806,-6,0,1,0,0,rectangle,-6,0,1,0,0,,-2,"[52,17,123,150,38,115,22,89,143,36]",-6,0,1,0,0,0,8,8,33,1,Turquiose,Turquiose.jpg,Pink,Pink.jpg,,
,,,,,,,,,,,,,,,,,,-4,,,,,,,,,,,,,,,,,,,,,,,,,,,610c5b0a0f713891f0d5af7f,001,2021-12-06_02h18.05.622,jm_natural_scene_simialrity_2-12-2021,2021.2.3,Win32,144.5295563,610c5b0a0f713891f0d5af7f,61ad71e11ddd29ccf7a27d5b,61ad72d2836c9a04783d3053,,,,,,-38,88,1,0,0,response7disk,1.132,-1,8,1,0,0,rectangle,-1,8,1,0,0,,3,"[52,17,123,150,38,115,22,89,143,36]",-1,8,1,0,0,0,9,9,76,1,Pink,Pink.jpg,LightBlue,LightBlue.jpg,,
,,,,,,,,,,,,,,,,,,-4,,,,,,,,,,,,,,,,,,,,,,,,,,,610c5b0a0f713891f0d5af7f,001,2021-12-06_02h18.05.622,jm_natural_scene_simialrity_2-12-2021,2021.2.3,Win32,144.5295563,610c5b0a0f713891f0d5af7f,61ad71e11ddd29ccf7a27d5b,61ad72d2836c9a04783d3053,,,,,,-53,89,1,0,0,response7disk,1.0079,-6,9,1,0,0,rectangle,-6,9,1,0,0,,3,"[52,17,123,150,38,115,22,89,143,36]",-6,9,1,0,0,0,10,10,57,1,DarkBlue,DarkBlue.jpg,Yellow,Yellow.jpg,,
,,,,,,,,,,,,,,,,,,-3,,,,,,,,,,,,,,,,,,,,,,,,,,,610c5b0a0f713891f0d5af7f,001,2021-12-06_02h18.05.622,jm_natural_scene_simialrity_2-12-2021,2021.2.3,Win32,144.5295563,610c5b0a0f713891f0d5af7f,61ad71e11ddd29ccf7a27d5b,61ad72d2836c9a04783d3053,,,,,,-67,35,1,0,0,response7disk,1.118,-1,9,1,0,0,rectangle,-1,9,1,0,0,,-4,"[52,17,123,150,38,115,22,89,143,36]",-1,9,1,0,0,0,11,11,62,1,LightBlue,LightBlue.jpg,LightGreen,LightGreen.jpg,,
,,,,,,,,,,,,,,,,,,1,,,,,,,,,,,,,,,,,,,,,,,,,,,610c5b0a0f713891f0d5af7f,001,2021-12-06_02h18.05.622,jm_natural_scene_simialrity_2-12-2021,2021.2.3,Win32,144.5295563,610c5b0a0f713891f0d5af7f,61ad71e11ddd29ccf7a27d5b,61ad72d2836c9a04783d3053,,,,,,52,-77,1,0,0,response3disk,2.3763,-1,10,1,0,0,rectangle,-1,10,1,0,0,,-2,"[52,17,123,150,38,115,22,89,143,36]",-1,10,1,0,0,0,12,12,71,1,LightBlue,LightBlue.jpg,Turquiose,Turquiose.jpg,,
,,,,,,,,,,,,,,,,,,-3,,,,,,,,,,,,,,,,,,,,,,,,,,,610c5b0a0f713891f0d5af7f,001,2021-12-06_02h18.05.622,jm_natural_scene_simialrity_2-12-2021,2021.2.3,Win32,144.5295563,610c5b0a0f713891f0d5af7f,61ad71e11ddd29ccf7a27d5b,61ad72d2836c9a04783d3053,,,,,,-54,47,1,0,0,response7disk,1.1389,-4,13,1,0,0,rectangle,-4,13,1,0,0,,-1,"[52,17,123,150,38,115,22,89,143,36]",-4,13,1,0,0,0,13,13,26,1,DarkGreen,DarkGreen.jpg,LightBlue,LightBlue.jpg,,
,,,,,,,,,,,,,,,,,,-4,,,,,,,,,,,,,,,,,,,,,,,,,,,610c5b0a0f713891f0d5af7f,001,2021-12-06_02h18.05.622,jm_natural_scene_simialrity_2-12-2021,2021.2.3,Win32,144.5295563,610c5b0a0f713891f0d5af7f,61ad71e11ddd29ccf7a27d5b,61ad72d2836c9a04783d3053,,,,,,-45,70,1,0,0,response7disk,0.8485,-2,6,1,0,0,rectangle,-2,6,1,0,0,,-2,"[52,17,123,150,38,115,22,89,143,36]",-2,6,1,0,0,0,14,14,68,1,DarkBlue,DarkBlue.jpg,DarkGreen,DarkGreen.jpg,,
,,,,,,,,,,,,,,,,,,-4,,,,,,,,,,,,,,,,,,,,,,,,,,,610c5b0a0f713891f0d5af7f,001,2021-12-06_02h18.05.622,jm_natural_scene_simialrity_2-12-2021,2021.2.3,Win32,144.5295563,610c5b0a0f713891f0d5af7f,61ad71e11ddd29ccf7a27d5b,61ad72d2836c9a04783d3053,,,,,,-62,99,1,0,0,response7disk,1.4585,-11,3,1,0,0,rectangle,-11,3,1,0,0,,-2,"[52,17,123,150,38,115,22,89,143,36]",-11,3,1,0,0,0,15,15,6,1,Red,Red.jpg,DarkBlue,DarkBlue.jpg,,
,,,,,,,,,,,,,,,,,,4,,,,,,,,,,,,,,,,,,,,,,,,,,,610c5b0a0f713891f0d5af7f,001,2021-12-06_02h18.05.622,jm_natural_scene_simialrity_2-12-2021,2021.2.3,Win32,144.5295563,610c5b0a0f713891f0d5af7f,61ad71e11ddd29ccf7a27d5b,61ad72d2836c9a04783d3053,,,,,,48,82,1,0,0,response1disk,0.9173,5,5,1,0,0,rectangle,-116,32,1,0,0,-3,-3,"[52,17,123,150,38,115,22,89,143,36]",-4,3,1,0,0,0,16,16,9,1,Yellow,Yellow.jpg,Yellow,Yellow.jpg,response7disk_3,rectangle
,,,,,,,,,,,,,,,,,,3,,,,,,,,,,,,,,,,,,,,,,,,,,,610c5b0a0f713891f0d5af7f,001,2021-12-06_02h18.05.622,jm_natural_scene_simialrity_2-12-2021,2021.2.3,Win32,144.5295563,610c5b0a0f713891f0d5af7f,61ad71e11ddd29ccf7a27d5b,61ad72d2836c9a04783d3053,,,,,,82,36,1,0,0,response1disk,1.5085,-4,10,1,0,0,rectangle,-4,10,1,0,0,-3,1,"[52,17,123,150,38,115,22,89,143,36]",-4,10,1,0,0,0,17,17,18,1,LightGreen,LightGreen.jpg,DarkGreen,DarkGreen.jpg,,
,,,,,,,,,,,,,,,,,,1,,,,,,,,,,,,,,,,,,,,,,,,,,,610c5b0a0f713891f0d5af7f,001,2021-12-06_02h18.05.622,jm_natural_scene_simialrity_2-12-2021,2021.2.3,Win32,144.5295563,610c5b0a0f713891f0d5af7f,61ad71e11ddd29ccf7a27d5b,61ad72d2836c9a04783d3053,,,,,,34,-65,1,0,0,response3disk,2.7847,8,19,1,0,0,rectangle,8,19,1,0,0,-3,2,"[52,17,123,150,38,115,22,89,143,36]",8,19,1,0,0,0,18,18,15,1,Yellow,Yellow.jpg,Pink,Pink.jpg,,
,,,,,,,,,,,,,,,,,,-3,,,,,,,,,,,,,,,,,,,,,,,,,,,610c5b0a0f713891f0d5af7f,001,2021-12-06_02h18.05.622,jm_natural_scene_simialrity_2-12-2021,2021.2.3,Win32,144.5295563,610c5b0a0f713891f0d5af7f,61ad71e11ddd29ccf7a27d5b,61ad72d2836c9a04783d3053,,,,,,-90,37,1,0,0,response7disk,1.299,-3,4,1,0,0,rectangle,-3,4,1,0,0,-3,-3,"[52,17,123,150,38,115,22,89,143,36]",-3,4,1,0,0,0,19,19,64,1,Pink,Pink.jpg,LightGreen,LightGreen.jpg,,
,,,,,,,,,,,,,,,,,,-4,,,,,,,,,,,,,,,,,,,,,,,,,,,610c5b0a0f713891f0d5af7f,001,2021-12-06_02h18.05.622,jm_natural_scene_simialrity_2-12-2021,2021.2.3,Win32,144.5295563,610c5b0a0f713891f0d5af7f,61ad71e11ddd29ccf7a27d5b,61ad72d2836c9a04783d3053,,,,,,-53,81,1,0,0,response7disk,1.5348,-5,2,1,0,0,rectangle,-5,2,1,0,0,-3,-4,"[52,17,123,150,38,115,22,89,143,36]",-5,2,1,0,0,0,20,20,56,1,LightBlue,LightBlue.jpg,Yellow,Yellow.jpg,,
,,,,,,,,,,,,,,,,,,4,,,,,,,,,,,,,,,,,,,,,,,,,,,610c5b0a0f713891f0d5af7f,001,2021-12-06_02h18.05.622,jm_natural_scene_simialrity_2-12-2021,2021.2.3,Win32,144.5295563,610c5b0a0f713891f0d5af7f,61ad71e11ddd29ccf7a27d5b,61ad72d2836c9a04783d3053,,,,,,33,62,1,0,0,response1disk,0.8681,10,2,1,0,0,rectangle,44,-106,1,0,0,1,1,"[52,17,123,150,38,115,22,89,143,36]",-1,1,1,0,0,0,21,21,24,1,DarkGreen,DarkGreen.jpg,DarkGreen,DarkGreen.jpg,response3disk_3,rectangle
,,,,,,,,,,,,,,,,,,-4,,,,,,,,,,,,,,,,,,,,,,,,,,,610c5b0a0f713891f0d5af7f,001,2021-12-06_02h18.05.622,jm_natural_scene_simialrity_2-12-2021,2021.2.3,Win32,144.5295563,610c5b0a0f713891f0d5af7f,61ad71e11ddd29ccf7a27d5b,61ad72d2836c9a04783d3053,,,,,,-57,70,1,0,0,response7disk,1.1317,1,5,1,0,0,rectangle,1,5,1,0,0,1,1,"[52,17,123,150,38,115,22,89,143,36]",1,5,1,0,0,0,22,22,52,1,Purple,Purple.jpg,Red,Red.jpg,,
,,,,,,,,,,,,,,,,,,-4,,,,,,,,,,,,,,,,,,,,,,,,,,,610c5b0a0f713891f0d5af7f,001,2021-12-06_02h18.05.622,jm_natural_scene_simialrity_2-12-2021,2021.2.3,Win32,144.5295563,610c5b0a0f713891f0d5af7f,61ad71e11ddd29ccf7a27d5b,61ad72d2836c9a04783d3053,,,,,,-40,72,1,0,0,response7disk,0.7987,-1,-2,1,0,0,rectangle,-1,-2,1,0,0,1,3,"[52,17,123,150,38,115,22,89,143,36]",-1,-2,1,0,0,0,23,23,50,1,DarkBlue,DarkBlue.jpg,Red,Red.jpg,,
,,,,,,,,,,,,,,,,,,-4,,,,,,,,,,,,,,,,,,,,,,,,,,,610c5b0a0f713891f0d5af7f,001,2021-12-06_02h18.05.622,jm_natural_scene_simialrity_2-12-2021,2021.2.3,Win32,144.5295563,610c5b0a0f713891f0d5af7f,61ad71e11ddd29ccf7a27d5b,61ad72d2836c9a04783d3053,,,,,,-50,71,1,0,0,response7disk,0.9236,2,-2,1,0,0,rectangle,2,-2,1,0,0,1,-1,"[52,17,123,150,38,115,22,89,143,36]",2,-2,1,0,0,0,24,24,37,1,LightBlue,LightBlue.jpg,Pink,Pink.jpg,,
,,,,,,,,,,,,,,,,,,-4,,,,,,,,,,,,,,,,,,,,,,,,,,,610c5b0a0f713891f0d5af7f,001,2021-12-06_02h18.05.622,jm_natural_scene_simialrity_2-12-2021,2021.2.3,Win32,144.5295563,610c5b0a0f713891f0d5af7f,61ad71e11ddd29ccf7a27d5b,61ad72d2836c9a04783d3053,,,,,,-46,76,1,0,0,response7disk,1.2778,-3,0,1,0,0,rectangle,-3,0,1,0,0,1,-4,"[52,17,123,150,38,115,22,89,143,36]",-3,0,1,0,0,0,25,25,48,1,Turquiose,Turquiose.jpg,Red,Red.jpg,,
,,,,,,,,,,,,,,,,,,1,,,,,,,,,,,,,,,,,,,,,,,,,,,610c5b0a0f713891f0d5af7f,001,2021-12-06_02h18.05.622,jm_natural_scene_simialrity_2-12-2021,2021.2.3,Win32,144.5295563,610c5b0a0f713891f0d5af7f,61ad71e11ddd29ccf7a27d5b,61ad72d2836c9a04783d3053,,,,,,31,-64,1,0,0,response3disk,1.9308,-9,7,1,0,0,rectangle,-9,7,1,0,0,1,-2,"[52,17,123,150,38,115,22,89,143,36]",-9,7,1,0,0,0,26,26,36,1,LightBlue,LightBlue.jpg,DarkBlue,DarkBlue.jpg,,
,,,,,,,,,,,,,,,,,,1,,,,,,,,,,,,,,,,,,,,,,,,,,,610c5b0a0f713891f0d5af7f,001,2021-12-06_02h18.05.622,jm_natural_scene_simialrity_2-12-2021,2021.2.3,Win32,144.5295563,610c5b0a0f713891f0d5af7f,61ad71e11ddd29ccf7a27d5b,61ad72d2836c9a04783d3053,,,,,,36,-70,1,0,0,response3disk,0.9926,-7,9,1,0,0,rectangle,-7,9,1,0,0,1,-2,"[52,17,123,150,38,115,22,89,143,36]",-7,9,1,0,0,0,27,27,75,1,DarkBlue,DarkBlue.jpg,LightBlue,LightBlue.jpg,,
,,,,,,,,,,,,,,,,,,-4,,,,,,,,,,,,,,,,,,,,,,,,,,,610c5b0a0f713891f0d5af7f,001,2021-12-06_02h18.05.622,jm_natural_scene_simialrity_2-12-2021,2021.2.3,Win32,144.5295563,610c5b0a0f713891f0d5af7f,61ad71e11ddd29ccf7a27d5b,61ad72d2836c9a04783d3053,,,,,,-31,73,1,0,0,response7disk,0.8333,10,-3,1,0,0,rectangle,10,-3,1,0,0,1,3,"[52,17,123,150,38,115,22,89,143,36]",10,-3,1,0,0,0,28,28,14,1,Yellow,Yellow.jpg,DarkBlue,DarkBlue.jpg,,
,,,,,,,,,,,,,,,,,,-4,,,,,,,,,,,,,,,,,,,,,,,,,,,610c5b0a0f713891f0d5af7f,001,2021-12-06_02h18.05.622,jm_natural_scene_simialrity_2-12-2021,2021.2.3,Win32,144.5295563,610c5b0a0f713891f0d5af7f,61ad71e11ddd29ccf7a27d5b,61ad72d2836c9a04783d3053,,,,,,-30,62,1,0,0,response7disk,1.0914,15,-17,1,0,0,rectangle,15,-17,1,0,0,1,-2,"[52,17,123,150,38,115,22,89,143,36]",15,-17,1,0,0,0,29,29,16,1,Yellow,Yellow.jpg,Purple,Purple.jpg,,
,,,,,,,,,,,,,,,,,,-4,,,,,,,,,,,,,,,,,,,,,,,,,,,610c5b0a0f713891f0d5af7f,001,2021-12-06_02h18.05.622,jm_natural_scene_simialrity_2-12-2021,2021.2.3,Win32,144.5295563,610c5b0a0f713891f0d5af7f,61ad71e11ddd29ccf7a27d5b,61ad72d2836c9a04783d3053,,,,,,-42,90,1,0,0,response7disk,3.1389,16,2,1,0,0,rectangle,16,2,1,0,0,1,2,"[52,17,123,150,38,115,22,89,143,36]",16,2,1,0,0,0,30,30,46,1,LightGreen,LightGreen.jpg,Red,Red.jpg,,
,,,,,,,,,,,,,,,,,,-4,,,,,,,,,,,,,,,,,,,,,,,,,,,610c5b0a0f713891f0d5af7f,001,2021-12-06_02h18.05.622,jm_natural_scene_simialrity_2-12-2021,2021.2.3,Win32,144.5295563,610c5b0a0f713891f0d5af7f,61ad71e11ddd29ccf7a27d5b,61ad72d2836c9a04783d3053,,,,,,-35,82,1,0,0,response7disk,1.1389,-2,9,1,0,0,rectangle,-2,9,1,0,0,1,-4,"[52,17,123,150,38,115,22,89,143,36]",-2,9,1,0,0,0,31,31,55,1,Turquiose,Turquiose.jpg,Yellow,Yellow.jpg,,
,,,,,,,,,,,,,,,,,,2,,,,,,,,,,,,,,,,,,,,,,,,,,,610c5b0a0f713891f0d5af7f,001,2021-12-06_02h18.05.622,jm_natural_scene_simialrity_2-12-2021,2021.2.3,Win32,144.5295563,610c5b0a0f713891f0d5af7f,61ad71e11ddd29ccf7a27d5b,61ad72d2836c9a04783d3053,,,,,,70,-40,1,0,0,response3disk,1.3265,-22,21,1,0,0,rectangle,-22,21,1,0,0,-3,-4,"[52,17,123,150,38,115,22,89,143,36]",-22,21,1,0,0,0,32,32,45,1,Yellow,Yellow.jpg,Red,Red.jpg,,
,,,,,,,,,,,,,,,,,,-4,,,,,,,,,,,,,,,,,,,,,,,,,,,610c5b0a0f713891f0d5af7f,001,2021-12-06_02h18.05.622,jm_natural_scene_simialrity_2-12-2021,2021.2.3,Win32,144.5295563,610c5b0a0f713891f0d5af7f,61ad71e11ddd29ccf7a27d5b,61ad72d2836c9a04783d3053,,,,,,-40,75,1,0,0,response7disk,1.0284,-1,5,1,0,0,rectangle,-1,5,1,0,0,-3,-3,"[52,17,123,150,38,115,22,89,143,36]",-1,5,1,0,0,0,33,33,3,1,Red,Red.jpg,DarkGreen,DarkGreen.jpg,,
,,,,,,,,,,,,,,,,,,-4,,,,,,,,,,,,,,,,,,,,,,,,,,,610c5b0a0f713891f0d5af7f,001,2021-12-06_02h18.05.622,jm_natural_scene_simialrity_2-12-2021,2021.2.3,Win32,144.5295563,610c5b0a0f713891f0d5af7f,61ad71e11ddd29ccf7a27d5b,61ad72d2836c9a04783d3053,,,,,,-32,71,1,0,0,response7disk,1.0139,-7,10,1,0,0,rectangle,-7,10,1,0,0,-3,-3,"[52,17,123,150,38,115,22,89,143,36]",-7,10,1,0,0,0,34,34,49,1,LightBlue,LightBlue.jpg,Red,Red.jpg,,
,,,,,,,,,,,,,,,,,,1,,,,,,,,,,,,,,,,,,,,,,,,,,,610c5b0a0f713891f0d5af7f,001,2021-12-06_02h18.05.622,jm_natural_scene_simialrity_2-12-2021,2021.2.3,Win32,144.5295563,610c5b0a0f713891f0d5af7f,61ad71e11ddd29ccf7a27d5b,61ad72d2836c9a04783d3053,,,,,,46,-56,1,0,0,response3disk,1.8401,-11,9,1,0,0,rectangle,80,-41,1,0,0,2,2,"[52,17,123,150,38,115,22,89,143,36]",7,-5,1,0,0,0,35,35,74,1,Purple,Purple.jpg,Turquiose,Turquiose.jpg,response3disk_3,rectangle
,,,,,,,,,,,,,,,,,,4,,,,,,,,,,,,,,,,,,,,,,,,,,,610c5b0a0f713891f0d5af7f,001,2021-12-06_02h18.05.622,jm_natural_scene_simialrity_2-12-2021,2021.2.3,Win32,144.5295563,610c5b0a0f713891f0d5af7f,61ad71e11ddd29ccf7a27d5b,61ad72d2836c9a04783d3053,,,,,,32,60,1,0,0,response1disk,0.8755,-5,10,1,0,0,rectangle,-5,10,1,0,0,2,-2,"[52,17,123,150,38,115,22,89,143,36]",-5,10,1,0,0,0,36,36,35,1,LightBlue,LightBlue.jpg,LightBlue,LightBlue.jpg,,
,,,,,,,,,,,,,,,,,,-3,,,,,,,,,,,,,,,,,,,,,,,,,,,610c5b0a0f713891f0d5af7f,001,2021-12-06_02h18.05.622,jm_natural_scene_simialrity_2-12-2021,2021.2.3,Win32,144.5295563,610c5b0a0f713891f0d5af7f,61ad71e11ddd29ccf7a27d5b,61ad72d2836c9a04783d3053,,,,,,-97,39,1,0,0,response7disk,1.2091,-16,4,1,0,0,rectangle,-43,109,1,0,0,-4,-4,"[52,17,123,150,38,115,22,89,143,36]",-8,4,1,0,0,0,37,37,59,1,Purple,Purple.jpg,Yellow,Yellow.jpg,response7disk_3,rectangle
,,,,,,,,,,,,,,,,,,4,,,,,,,,,,,,,,,,,,,,,,,,,,,610c5b0a0f713891f0d5af7f,001,2021-12-06_02h18.05.622,jm_natural_scene_simialrity_2-12-2021,2021.2.3,Win32,144.5295563,610c5b0a0f713891f0d5af7f,61ad71e11ddd29ccf7a27d5b,61ad72d2836c9a04783d3053,,,,,,40,68,1,0,0,response1disk,1.7847,1,3,1,0,0,rectangle,1,3,1,0,0,-4,-2,"[52,17,123,150,38,115,22,89,143,36]",1,3,1,0,0,0,38,38,60,1,DarkGreen,DarkGreen.jpg,LightGreen,LightGreen.jpg,,
,,,,,,,,,,,,,,,,,,4,,,,,,,,,,,,,,,,,,,,,,,,,,,610c5b0a0f713891f0d5af7f,001,2021-12-06_02h18.05.622,jm_natural_scene_simialrity_2-12-2021,2021.2.3,Win32,144.5295563,610c5b0a0f713891f0d5af7f,61ad71e11ddd29ccf7a27d5b,61ad72d2836c9a04783d3053,,,,,,40,92,1,0,0,response1disk,0.7917,-1,9,1,0,0,rectangle,-1,9,1,0,0,-4,-4,"[52,17,123,150,38,115,22,89,143,36]",-1,9,1,0,0,0,39,39,30,1,Turquiose,Turquiose.jpg,Turquiose,Turquiose.jpg,,
,,,,,,,,,,,,,,,,,,-4,,,,,,,,,,,,,,,,,,,,,,,,,,,610c5b0a0f713891f0d5af7f,001,2021-12-06_02h18.05.622,jm_natural_scene_simialrity_2-12-2021,2021.2.3,Win32,144.5295563,610c5b0a0f713891f0d5af7f,61ad71e11ddd29ccf7a27d5b,61ad72d2836c9a04783d3053,,,,,,-37,65,1,0,0,response7disk,0.7848,-6,6,1,0,0,rectangle,-6,6,1,0,0,-4,1,"[52,17,123,150,38,115,22,89,143,36]",-6,6,1,0,0,0,40,40,43,1,Pink,Pink.jpg,Purple,Purple.jpg,,
,,,,,,,,,,,,,,,,,,-4,,,,,,,,,,,,,,,,,,,,,,,,,,,610c5b0a0f713891f0d5af7f,001,2021-12-06_02h18.05.622,jm_natural_scene_simialrity_2-12-2021,2021.2.3,Win32,144.5295563,610c5b0a0f713891f0d5af7f,61ad71e11ddd29ccf7a27d5b,61ad72d2836c9a04783d3053,,,,,,-28,86,1,0,0,response7disk,0.7292,4,6,1,0,0,rectangle,4,6,1,0,0,-4,-4,"[52,17,123,150,38,115,22,89,143,36]",4,6,1,0,0,0,41,41,69,1,Pink,Pink.jpg,DarkGreen,DarkGreen.jpg,,
,,,,,,,,,,,,,,,,,,-4,,,,,,,,,,,,,,,,,,,,,,,,,,,610c5b0a0f713891f0d5af7f,001,2021-12-06_02h18.05.622,jm_natural_scene_simialrity_2-12-2021,2021.2.3,Win32,144.5295563,610c5b0a0f713891f0d5af7f,61ad71e11ddd29ccf7a27d5b,61ad72d2836c9a04783d3053,,,,,,-24,59,1,0,0,response7disk,0.9652,-3,1,1,0,0,rectangle,-3,1,1,0,0,-4,-1,"[52,17,123,150,38,115,22,89,143,36]",-3,1,1,0,0,0,42,42,28,1,DarkGreen,DarkGreen.jpg,Pink,Pink.jpg,,
,,,,,,,,,,,,,,,,,,-4,,,,,,,,,,,,,,,,,,,,,,,,,,,610c5b0a0f713891f0d5af7f,001,2021-12-06_02h18.05.622,jm_natural_scene_simialrity_2-12-2021,2021.2.3,Win32,144.5295563,610c5b0a0f713891f0d5af7f,61ad71e11ddd29ccf7a27d5b,61ad72d2836c9a04783d3053,,,,,,-38,74,1,0,0,response7disk,0.9172,-7,6,1,0,0,rectangle,-7,6,1,0,0,-4,1,"[52,17,123,150,38,115,22,89,143,36]",-7,6,1,0,0,0,43,43,54,1,DarkGreen,DarkGreen.jpg,Yellow,Yellow.jpg,,
,,,,,,,,,,,,,,,,,,2,,,,,,,,,,,,,,,,,,,,,,,,,,,610c5b0a0f713891f0d5af7f,001,2021-12-06_02h18.05.622,jm_natural_scene_simialrity_2-12-2021,2021.2.3,Win32,144.5295563,610c5b0a0f713891f0d5af7f,61ad71e11ddd29ccf7a27d5b,61ad72d2836c9a04783d3053,,,,,,47,-38,1,0,0,response3disk,1.3611,-3,6,1,0,0,rectangle,-3,6,1,0,0,-4,2,"[52,17,123,150,38,115,22,89,143,36]",-3,6,1,0,0,0,44,44,72,1,DarkBlue,DarkBlue.jpg,Turquiose,Turquiose.jpg,,
,,,,,,,,,,,,,,,,,,-4,,,,,,,,,,,,,,,,,,,,,,,,,,,610c5b0a0f713891f0d5af7f,001,2021-12-06_02h18.05.622,jm_natural_scene_simialrity_2-12-2021,2021.2.3,Win32,144.5295563,610c5b0a0f713891f0d5af7f,61ad71e11ddd29ccf7a27d5b,61ad72d2836c9a04783d3053,,,,,,-33,92,1,0,0,response7disk,1.6736,4,8,1,0,0,rectangle,4,8,1,0,0,-4,-2,"[52,17,123,150,38,115,22,89,143,36]",4,8,1,0,0,0,45,45,53,1,LightGreen,LightGreen.jpg,Yellow,Yellow.jpg,,
,,,,,,,,,,,,,,,,,,3,,,,,,,,,,,,,,,,,,,,,,,,,,,610c5b0a0f713891f0d5af7f,001,2021-12-06_02h18.05.622,jm_natural_scene_simialrity_2-12-2021,2021.2.3,Win32,144.5295563,610c5b0a0f713891f0d5af7f,61ad71e11ddd29ccf7a27d5b,61ad72d2836c9a04783d3053,,,,,,75,38,1,0,0,response1disk,1.722,-5,0,1,0,0,rectangle,-5,0,1,0,0,-4,-2,"[52,17,123,150,38,115,22,89,143,36]",-5,0,1,0,0,0,46,46,51,1,Pink,Pink.jpg,Red,Red.jpg,,
,,,,,,,,,,,,,,,,,,-1,,,,,,,,,,,,,,,,,,,,,,,,,,,610c5b0a0f713891f0d5af7f,001,2021-12-06_02h18.05.622,jm_natural_scene_simialrity_2-12-2021,2021.2.3,Win32,144.5295563,610c5b0a0f713891f0d5af7f,61ad71e11ddd29ccf7a27d5b,61ad72d2836c9a04783d3053,,,,,,-26,-105,1,0,0,response5disk,2.5763,1,3,1,0,0,rectangle,1,3,1,0,0,-4,-1,"[52,17,123,150,38,115,22,89,143,36]",1,3,1,0,0,0,47,47,80,1,Purple,Purple.jpg,Pink,Pink.jpg,,
,,,,,,,,,,,,,,,,,,2,,,,,,,,,,,,,,,,,,,,,,,,,,,610c5b0a0f713891f0d5af7f,001,2021-12-06_02h18.05.622,jm_natural_scene_simialrity_2-12-2021,2021.2.3,Win32,144.5295563,610c5b0a0f713891f0d5af7f,61ad71e11ddd29ccf7a27d5b,61ad72d2836c9a04783d3053,,,,,,80,-37,1,0,0,response3disk,1.2292,7,3,1,0,0,rectangle,7,3,1,0,0,-4,2,"[52,17,123,150,38,115,22,89,143,36]",7,3,1,0,0,0,48,48,7,1,Red,Red.jpg,Pink,Pink.jpg,,
,,,,,,,,,,,,,,,,,,-4,,,,,,,,,,,,,,,,,,,,,,,,,,,610c5b0a0f713891f0d5af7f,001,2021-12-06_02h18.05.622,jm_natural_scene_simialrity_2-12-2021,2021.2.3,Win32,144.5295563,610c5b0a0f713891f0d5af7f,61ad71e11ddd29ccf7a27d5b,61ad72d2836c9a04783d3053,,,,,,-30,65,1,0,0,response7disk,1.015,8,4,1,0,0,rectangle,8,4,1,0,0,-4,-1,"[52,17,123,150,38,115,22,89,143,36]",8,4,1,0,0,0,49,49,27,1,DarkGreen,DarkGreen.jpg,DarkBlue,DarkBlue.jpg,,
,,,,,,,,,,,,,,,,,,-4,,,,,,,,,,,,,,,,,,,,,,,,,,,610c5b0a0f713891f0d5af7f,001,2021-12-06_02h18.05.622,jm_natural_scene_simialrity_2-12-2021,2021.2.3,Win32,144.5295563,610c5b0a0f713891f0d5af7f,61ad71e11ddd29ccf7a27d5b,61ad72d2836c9a04783d3053,,,,,,-36,74,1,0,0,response7disk,0.8332,-3,14,1,0,0,rectangle,-3,14,1,0,0,-4,-3,"[52,17,123,150,38,115,22,89,143,36]",-3,14,1,0,0,0,50,50,67,1,LightBlue,LightBlue.jpg,DarkGreen,DarkGreen.jpg,,
,,,,,,,,,,,,,,,,,,-4,,,,,,,,,,,,,,,,,,,,,,,,,,,610c5b0a0f713891f0d5af7f,001,2021-12-06_02h18.05.622,jm_natural_scene_simialrity_2-12-2021,2021.2.3,Win32,144.5295563,610c5b0a0f713891f0d5af7f,61ad71e11ddd29ccf7a27d5b,61ad72d2836c9a04783d3053,,,,,,-37,81,1,0,0,response7disk,0.6527,-8,8,1,0,0,rectangle,-75,-43,1,0,0,-4,-2,"[52,17,123,150,38,115,22,89,143,36]",-8,2,1,0,0,0,51,51,12,1,Yellow,Yellow.jpg,Turquiose,Turquiose.jpg,response5disk_3,rectangle
,,,,,,,,,,,,,,,,,,1,,,,,,,,,,,,,,,,,,,,,,,,,,,610c5b0a0f713891f0d5af7f,001,2021-12-06_02h18.05.622,jm_natural_scene_simialrity_2-12-2021,2021.2.3,Win32,144.5295563,610c5b0a0f713891f0d5af7f,61ad71e11ddd29ccf7a27d5b,61ad72d2836c9a04783d3053,,,,,,35,-58,1,0,0,response3disk,2.4444,0,8,1,0,0,rectangle,0,8,1,0,0,-4,-3,"[52,17,123,150,38,115,22,89,143,36]",0,8,1,0,0,0,52,52,25,1,DarkGreen,DarkGreen.jpg,Turquiose,Turquiose.jpg,,
,,,,,,,,,,,,,,,,,,1,,,,,,,,,,,,,,,,,,,,,,,,,,,610c5b0a0f713891f0d5af7f,001,2021-12-06_02h18.05.622,jm_natural_scene_simialrity_2-12-2021,2021.2.3,Win32,144.5295563,610c5b0a0f713891f0d5af7f,61ad71e11ddd29ccf7a27d5b,61ad72d2836c9a04783d3053,,,,,,28,-77,1,0,0,response3disk,1.1389,-5,11,1,0,0,rectangle,-5,11,1,0,0,-4,-1,"[52,17,123,150,38,115,22,89,143,36]",-5,11,1,0,0,0,53,53,1,1,Red,Red.jpg,Yellow,Yellow.jpg,,
,,,,,,,,,,,,,,,,,,-3,,,,,,,,,,,,,,,,,,,,,,,,,,,610c5b0a0f713891f0d5af7f,001,2021-12-06_02h18.05.622,jm_natural_scene_simialrity_2-12-2021,2021.2.3,Win32,144.5295563,610c5b0a0f713891f0d5af7f,61ad71e11ddd29ccf7a27d5b,61ad72d2836c9a04783d3053,,,,,,-80,39,1,0,0,response7disk,2.5069,-1,6,1,0,0,rectangle,-1,6,1,0,0,-4,-4,"[52,17,123,150,38,115,22,89,143,36]",-1,6,1,0,0,0,54,54,65,1,Purple,Purple.jpg,LightGreen,LightGreen.jpg,,
,,,,,,,,,,,,,,,,,,-4,,,,,,,,,,,,,,,,,,,,,,,,,,,610c5b0a0f713891f0d5af7f,001,2021-12-06_02h18.05.622,jm_natural_scene_simialrity_2-12-2021,2021.2.3,Win32,144.5295563,610c5b0a0f713891f0d5af7f,61ad71e11ddd29ccf7a27d5b,61ad72d2836c9a04783d3053,,,,,,-42,61,1,0,0,response7disk,1.8402,-4,0,1,0,0,rectangle,-4,0,1,0,0,-4,-4,"[52,17,123,150,38,115,22,89,143,36]",-4,0,1,0,0,0,55,55,23,1,LightGreen,LightGreen.jpg,Purple,Purple.jpg,,
,,,,,,,,,,,,,,,,,,-4,,,,,,,,,,,,,,,,,,,,,,,,,,,610c5b0a0f713891f0d5af7f,001,2021-12-06_02h18.05.622,jm_natural_scene_simialrity_2-12-2021,2021.2.3,Win32,144.5295563,610c5b0a0f713891f0d5af7f,61ad71e11ddd29ccf7a27d5b,61ad72d2836c9a04783d3053,,,,,,-38,63,1,0,0,response7disk,0.8124,-6,-5,1,0,0,rectangle,-6,-5,1,0,0,-4,2,"[52,17,123,150,38,115,22,89,143,36]",-6,-5,1,0,0,0,56,56,40,1,DarkBlue,DarkBlue.jpg,Pink,Pink.jpg,,
,,,,,,,,,,,,,,,,,,-4,,,,,,,,,,,,,,,,,,,,,,,,,,,610c5b0a0f713891f0d5af7f,001,2021-12-06_02h18.05.622,jm_natural_scene_simialrity_2-12-2021,2021.2.3,Win32,144.5295563,610c5b0a0f713891f0d5af7f,61ad71e11ddd29ccf7a27d5b,61ad72d2836c9a04783d3053,,,,,,-34,71,1,0,0,response7disk,0.7639,-14,2,1,0,0,rectangle,-14,2,1,0,0,-4,-4,"[52,17,123,150,38,115,22,89,143,36]",-14,2,1,0,0,0,57,57,22,1,LightGreen,LightGreen.jpg,Pink,Pink.jpg,,
,,,,,,,,,,,,,,,,,,-4,,,,,,,,,,,,,,,,,,,,,,,,,,,610c5b0a0f713891f0d5af7f,001,2021-12-06_02h18.05.622,jm_natural_scene_simialrity_2-12-2021,2021.2.3,Win32,144.5295563,610c5b0a0f713891f0d5af7f,61ad71e11ddd29ccf7a27d5b,61ad72d2836c9a04783d3053,,,,,,-40,74,1,0,0,response7disk,0.7152,-2,0,1,0,0,rectangle,-2,0,1,0,0,-4,-2,"[52,17,123,150,38,115,22,89,143,36]",-2,0,1,0,0,0,58,58,8,1,Red,Red.jpg,Purple,Purple.jpg,,
,,,,,,,,,,,,,,,,,,-4,,,,,,,,,,,,,,,,,,,,,,,,,,,610c5b0a0f713891f0d5af7f,001,2021-12-06_02h18.05.622,jm_natural_scene_simialrity_2-12-2021,2021.2.3,Win32,144.5295563,610c5b0a0f713891f0d5af7f,61ad71e11ddd29ccf7a27d5b,61ad72d2836c9a04783d3053,,,,,,-28,65,1,0,0,response7disk,0.7082,-2,-3,1,0,0,rectangle,-2,-3,1,0,0,-4,1,"[52,17,123,150,38,115,22,89,143,36]",-2,-3,1,0,0,0,59,59,21,1,LightGreen,LightGreen.jpg,DarkBlue,DarkBlue.jpg,,
,,,,,,,,,,,,,,,,,,-2,,,,,,,,,,,,,,,,,,,,,,,,,,,610c5b0a0f713891f0d5af7f,001,2021-12-06_02h18.05.622,jm_natural_scene_simialrity_2-12-2021,2021.2.3,Win32,144.5295563,610c5b0a0f713891f0d5af7f,61ad71e11ddd29ccf7a27d5b,61ad72d2836c9a04783d3053,,,,,,-75,-31,1,0,0,response5disk,2.2499,-2,6,1,0,0,rectangle,-2,6,1,0,0,-4,3,"[52,17,123,150,38,115,22,89,143,36]",-2,6,1,0,0,0,60,60,32,1,Turquiose,Turquiose.jpg,DarkBlue,DarkBlue.jpg,,
,,,,,,,,,,,,,,,,,,-3,,,,,,,,,,,,,,,,,,,,,,,,,,,610c5b0a0f713891f0d5af7f,001,2021-12-06_02h18.05.622,jm_natural_scene_simialrity_2-12-2021,2021.2.3,Win32,144.5295563,610c5b0a0f713891f0d5af7f,61ad71e11ddd29ccf7a27d5b,61ad72d2836c9a04783d3053,,,,,,-71,31,1,0,0,response7disk,2.4863,13,12,1,0,0,rectangle,13,12,1,0,0,-4,-2,"[52,17,123,150,38,115,22,89,143,36]",13,12,1,0,0,0,61,61,34,1,Turquiose,Turquiose.jpg,Purple,Purple.jpg,,
,,,,,,,,,,,,,,,,,,-4,,,,,,,,,,,,,,,,,,,,,,,,,,,610c5b0a0f713891f0d5af7f,001,2021-12-06_02h18.05.622,jm_natural_scene_simialrity_2-12-2021,2021.2.3,Win32,144.5295563,610c5b0a0f713891f0d5af7f,61ad71e11ddd29ccf7a27d5b,61ad72d2836c9a04783d3053,,,,,,-46,73,1,0,0,response7disk,0.7153,1,-2,1,0,0,rectangle,1,-2,1,0,0,-4,-2,"[52,17,123,150,38,115,22,89,143,36]",1,-2,1,0,0,0,62,62,78,1,Pink,Pink.jpg,DarkBlue,DarkBlue.jpg,,
,,,,,,,,,,,,,,,,,,-3,,,,,,,,,,,,,,,,,,,,,,,,,,,610c5b0a0f713891f0d5af7f,001,2021-12-06_02h18.05.622,jm_natural_scene_simialrity_2-12-2021,2021.2.3,Win32,144.5295563,610c5b0a0f713891f0d5af7f,61ad71e11ddd29ccf7a27d5b,61ad72d2836c9a04783d3053,,,,,,-72,37,1,0,0,response7disk,2.6181,-11,7,1,0,0,rectangle,-11,7,1,0,0,-4,3,"[52,17,123,150,38,115,22,89,143,36]",-11,7,1,0,0,0,63,63,61,1,Turquiose,Turquiose.jpg,LightGreen,LightGreen.jpg,,
,,,,,,,,,,,,,,,,,,1,,,,,,,,,,,,,,,,,,,,,,,,,,,610c5b0a0f713891f0d5af7f,001,2021-12-06_02h18.05.622,jm_natural_scene_simialrity_2-12-2021,2021.2.3,Win32,144.5295563,610c5b0a0f713891f0d5af7f,61ad71e11ddd29ccf7a27d5b,61ad72d2836c9a04783d3053,,,,,,33,-47,1,0,0,response3disk,2.0138,-8,14,1,0,0,rectangle,-8,14,1,0,0,-4,-1,"[52,17,123,150,38,115,22,89,143,36]",-8,14,1,0,0,0,64,64,66,1,Turquiose,Turquiose.jpg,DarkGreen,DarkGreen.jpg,,
,,,,,,,,,,,,,,,,,,-4,,,,,,,,,,,,,,,,,,,,,,,,,,,610c5b0a0f713891f0d5af7f,001,2021-12-06_02h18.05.622,jm_natural_scene_simialrity_2-12-2021,2021.2.3,Win32,144.5295563,610c5b0a0f713891f0d5af7f,61ad71e11ddd29ccf7a27d5b,61ad72d2836c9a04783d3053,,,,,,-52,79,1,0,0,response7disk,4.8265,-9,15,1,0,0,rectangle,-9,15,1,0,0,-4,3,"[52,17,123,150,38,115,22,89,143,36]",-9,15,1,0,0,0,65,65,2,1,Red,Red.jpg,LightGreen,LightGreen.jpg,,
,,,,,,,,,,,,,,,,,,-4,,,,,,,,,,,,,,,,,,,,,,,,,,,610c5b0a0f713891f0d5af7f,001,2021-12-06_02h18.05.622,jm_natural_scene_simialrity_2-12-2021,2021.2.3,Win32,144.5295563,610c5b0a0f713891f0d5af7f,61ad71e11ddd29ccf7a27d5b,61ad72d2836c9a04783d3053,,,,,,-43,88,1,0,0,response7disk,0.7154,-11,11,1,0,0,rectangle,-11,11,1,0,0,-4,-1,"[52,17,123,150,38,115,22,89,143,36]",-11,11,1,0,0,0,66,66,11,1,Yellow,Yellow.jpg,DarkGreen,DarkGreen.jpg,,
,,,,,,,,,,,,,,,,,,-4,,,,,,,,,,,,,,,,,,,,,,,,,,,610c5b0a0f713891f0d5af7f,001,2021-12-06_02h18.05.622,jm_natural_scene_simialrity_2-12-2021,2021.2.3,Win32,144.5295563,610c5b0a0f713891f0d5af7f,61ad71e11ddd29ccf7a27d5b,61ad72d2836c9a04783d3053,,,,,,-47,56,1,0,0,response7disk,0.8604,-9,1,1,0,0,rectangle,-9,1,1,0,0,-4,3,"[52,17,123,150,38,115,22,89,143,36]",-9,1,1,0,0,0,67,67,47,1,DarkGreen,DarkGreen.jpg,Red,Red.jpg,,
,,,,,,,,,,,,,,,,,,4,,,,,,,,,,,,,,,,,,,,,,,,,,,610c5b0a0f713891f0d5af7f,001,2021-12-06_02h18.05.622,jm_natural_scene_simialrity_2-12-2021,2021.2.3,Win32,144.5295563,610c5b0a0f713891f0d5af7f,61ad71e11ddd29ccf7a27d5b,61ad72d2836c9a04783d3053,,,,,,28,78,1,0,0,response1disk,0.7847,3,5,1,0,0,rectangle,3,5,1,0,0,-4,-3,"[52,17,123,150,38,115,22,89,143,36]",3,5,1,0,0,0,68,68,77,1,Purple,Purple.jpg,LightBlue,LightBlue.jpg,,
,,,,,,,,,,,,,,,,,,-3,,,,,,,,,,,,,,,,,,,,,,,,,,,610c5b0a0f713891f0d5af7f,001,2021-12-06_02h18.05.622,jm_natural_scene_simialrity_2-12-2021,2021.2.3,Win32,144.5295563,610c5b0a0f713891f0d5af7f,61ad71e11ddd29ccf7a27d5b,61ad72d2836c9a04783d3053,,,,,,-88,42,1,0,0,response7disk,1.5,-16,10,1,0,0,rectangle,-16,10,1,0,0,-4,-2,"[52,17,123,150,38,115,22,89,143,36]",-16,10,1,0,0,0,69,69,70,1,Purple,Purple.jpg,DarkGreen,DarkGreen.jpg,,
,,,,,,,,,,,,,,,,,,-4,,,,,,,,,,,,,,,,,,,,,,,,,,,610c5b0a0f713891f0d5af7f,001,2021-12-06_02h18.05.622,jm_natural_scene_simialrity_2-12-2021,2021.2.3,Win32,144.5295563,610c5b0a0f713891f0d5af7f,61ad71e11ddd29ccf7a27d5b,61ad72d2836c9a04783d3053,,,,,,-49,65,1,0,0,response7disk,0.757,-10,0,1,0,0,rectangle,-10,0,1,0,0,-4,-1,"[52,17,123,150,38,115,22,89,143,36]",-10,0,1,0,0,0,70,70,73,1,Pink,Pink.jpg,Turquiose,Turquiose.jpg,,
,,,,,,,,,,,,,,,,,,-4,,,,,,,,,,,,,,,,,,,,,,,,,,,610c5b0a0f713891f0d5af7f,001,2021-12-06_02h18.05.622,jm_natural_scene_simialrity_2-12-2021,2021.2.3,Win32,144.5295563,610c5b0a0f713891f0d5af7f,61ad71e11ddd29ccf7a27d5b,61ad72d2836c9a04783d3053,,,,,,-29,65,1,0,0,response7disk,0.701,-1,1,1,0,0,rectangle,-1,1,1,0,0,-4,3,"[52,17,123,150,38,115,22,89,143,36]",-1,1,1,0,0,0,71,71,58,1,Pink,Pink.jpg,Yellow,Yellow.jpg,,
,,,,,,,,,,,,,,,,,,4,,,,,,,,,,,,,,,,,,,,,,,,,,,610c5b0a0f713891f0d5af7f,001,2021-12-06_02h18.05.622,jm_natural_scene_simialrity_2-12-2021,2021.2.3,Win32,144.5295563,610c5b0a0f713891f0d5af7f,61ad71e11ddd29ccf7a27d5b,61ad72d2836c9a04783d3053,,,,,,22,58,1,0,0,response1disk,1.2638,11,-13,1,0,0,rectangle,11,-13,1,0,0,-4,-1,"[52,17,123,150,38,115,22,89,143,36]",11,-13,1,0,0,0,72,72,38,1,LightBlue,LightBlue.jpg,Purple,Purple.jpg,,
,,,,,,,,,,,,,,,,,,4,,,,,,,,,,,,,,,,,,,,,,,,,,,610c5b0a0f713891f0d5af7f,001,2021-12-06_02h18.05.622,jm_natural_scene_simialrity_2-12-2021,2021.2.3,Win32,144.5295563,610c5b0a0f713891f0d5af7f,61ad71e11ddd29ccf7a27d5b,61ad72d2836c9a04783d3053,,,,,,33,66,1,0,0,response1disk,0.6806,8,-16,1,0,0,rectangle,8,-16,1,0,0,-4,-2,"[52,17,123,150,38,115,22,89,143,36]",8,-16,1,0,0,0,73,73,42,1,Pink,Pink.jpg,Pink,Pink.jpg,,
,,,,,,,,,,,,,,,,,,4,,,,,,,,,,,,,,,,,,,,,,,,,,,610c5b0a0f713891f0d5af7f,001,2021-12-06_02h18.05.622,jm_natural_scene_simialrity_2-12-2021,2021.2.3,Win32,144.5295563,610c5b0a0f713891f0d5af7f,61ad71e11ddd29ccf7a27d5b,61ad72d2836c9a04783d3053,,,,,,29,83,1,0,0,response1disk,0.6041,-5,1,1,0,0,rectangle,-5,1,1,0,0,-4,-4,"[52,17,123,150,38,115,22,89,143,36]",-5,1,1,0,0,0,74,74,17,1,LightGreen,LightGreen.jpg,LightGreen,LightGreen.jpg,,
,,,,,,,,,,,,,,,,,,-4,,,,,,,,,,,,,,,,,,,,,,,,,,,610c5b0a0f713891f0d5af7f,001,2021-12-06_02h18.05.622,jm_natural_scene_simialrity_2-12-2021,2021.2.3,Win32,144.5295563,610c5b0a0f713891f0d5af7f,61ad71e11ddd29ccf7a27d5b,61ad72d2836c9a04783d3053,,,,,,-57,96,1,0,0,response7disk,1.4246,-11,8,1,0,0,rectangle,-11,8,1,0,0,-4,2,"[52,17,123,150,38,115,22,89,143,36]",-11,8,1,0,0,0,75,75,20,1,LightGreen,LightGreen.jpg,LightBlue,LightBlue.jpg,,
,,,,,,,,,,,,,,,,,,-3,,,,,,,,,,,,,,,,,,,,,,,,,,,610c5b0a0f713891f0d5af7f,001,2021-12-06_02h18.05.622,jm_natural_scene_simialrity_2-12-2021,2021.2.3,Win32,144.5295563,610c5b0a0f713891f0d5af7f,61ad71e11ddd29ccf7a27d5b,61ad72d2836c9a04783d3053,,,,,,-83,57,1,0,0,response7disk,6.5972,-1,-4,1,0,0,rectangle,-1,-4,1,0,0,-4,-4,"[52,17,123,150,38,115,22,89,143,36]",-1,-4,1,0,0,0,76,76,5,1,Red,Red.jpg,LightBlue,LightBlue.jpg,,
,,,,,,,,,,,,,,,,,,4,,,,,,,,,,,,,,,,,,,,,,,,,,,610c5b0a0f713891f0d5af7f,001,2021-12-06_02h18.05.622,jm_natural_scene_simialrity_2-12-2021,2021.2.3,Win32,144.5295563,610c5b0a0f713891f0d5af7f,61ad71e11ddd29ccf7a27d5b,61ad72d2836c9a04783d3053,,,,,,22,71,1,0,0,response1disk,0.6111,5,-20,1,0,0,rectangle,5,-20,1,0,0,-4,-1,"[52,17,123,150,38,115,22,89,143,36]",5,-20,1,0,0,0,77,77,44,1,Purple,Purple.jpg,Purple,Purple.jpg,,
,,,,,,,,,,,,,,,,,,-4,,,,,,,,,,,,,,,,,,,,,,,,,,,610c5b0a0f713891f0d5af7f,001,2021-12-06_02h18.05.622,jm_natural_scene_simialrity_2-12-2021,2021.2.3,Win32,144.5295563,610c5b0a0f713891f0d5af7f,61ad71e11ddd29ccf7a27d5b,61ad72d2836c9a04783d3053,,,,,,-69,96,1,0,0,response7disk,1.8612,-18,17,1,0,0,rectangle,-18,17,1,0,0,-3,-4,"[52,17,123,150,38,115,22,89,143,36]",-18,17,1,0,0,0,78,78,10,1,Yellow,Yellow.jpg,LightGreen,LightGreen.jpg,,
,,,,,,,,,,,,,,,,,,-4,,,,,,,,,,,,,,,,,,,,,,,,,,,610c5b0a0f713891f0d5af7f,001,2021-12-06_02h18.05.622,jm_natural_scene_simialrity_2-12-2021,2021.2.3,Win32,144.5295563,610c5b0a0f713891f0d5af7f,61ad71e11ddd29ccf7a27d5b,61ad72d2836c9a04783d3053,,,,,,-41,84,1,0,0,response7disk,1.1605,-14,5,1,0,0,rectangle,-14,5,1,0,0,-3,3,"[52,17,123,150,38,115,22,89,143,36]",-14,5,1,0,0,0,79,79,13,1,Yellow,Yellow.jpg,LightBlue,LightBlue.jpg,,
,,,,,,,,,,,,,,,,,,-3,,,,,,,,,,,,,,,,,,,,,,,,,,,610c5b0a0f713891f0d5af7f,001,2021-12-06_02h18.05.622,jm_natural_scene_simialrity_2-12-2021,2021.2.3,Win32,144.5295563,610c5b0a0f713891f0d5af7f,61ad71e11ddd29ccf7a27d5b,61ad72d2836c9a04783d3053,,,,,,-92,40,1,0,0,response7disk,3.7016,-14,15,1,0,0,rectangle,-14,15,1,0,0,-3,3,"[52,17,123,150,38,115,22,89,143,36]",-14,15,1,0,0,0,80,80,29,1,DarkGreen,DarkGreen.jpg,Purple,Purple.jpg,,
,,,,,,,,,,,,,,,,,,-4,,,,,,,,,,,,,,,,,,,,,,,,,,,610c5b0a0f713891f0d5af7f,001,2021-12-06_02h18.05.622,jm_natural_scene_simialrity_2-12-2021,2021.2.3,Win32,144.5295563,610c5b0a0f713891f0d5af7f,61ad71e11ddd29ccf7a27d5b,61ad72d2836c9a04783d3053,,,,,,-39,75,1,0,0,response7disk,0.6596,-12,-1,1,0,0,rectangle,-12,-1,1,0,0,-3,-3,"[52,17,123,150,38,115,22,89,143,36]",-12,-1,1,0,0,1,0,81,22,1,LightGreen,LightGreen.jpg,Pink,Pink.jpg,,
,,,,,,,,,,,,,,,,,,2,,,,,,,,,,,,,,,,,,,,,,,,,,,610c5b0a0f713891f0d5af7f,001,2021-12-06_02h18.05.622,jm_natural_scene_simialrity_2-12-2021,2021.2.3,Win32,144.5295563,610c5b0a0f713891f0d5af7f,61ad71e11ddd29ccf7a27d5b,61ad72d2836c9a04783d3053,,,,,,56,-25,1,0,0,response3disk,1.4999,-6,10,1,0,0,rectangle,-6,10,1,0,0,-3,-1,"[52,17,123,150,38,115,22,89,143,36]",-6,10,1,0,0,1,1,82,38,1,LightBlue,LightBlue.jpg,Purple,Purple.jpg,,
,,,,,,,,,,,,,,,,,,-2,,,,,,,,,,,,,,,,,,,,,,,,,,,610c5b0a0f713891f0d5af7f,001,2021-12-06_02h18.05.622,jm_natural_scene_simialrity_2-12-2021,2021.2.3,Win32,144.5295563,610c5b0a0f713891f0d5af7f,61ad71e11ddd29ccf7a27d5b,61ad72d2836c9a04783d3053,,,,,,-58,-35,1,0,0,response5disk,1.7986,9,-7,1,0,0,rectangle,9,-7,1,0,0,-3,-2,"[52,17,123,150,38,115,22,89,143,36]",9,-7,1,0,0,1,2,83,74,1,Purple,Purple.jpg,Turquiose,Turquiose.jpg,,
,,,,,,,,,,,,,,,,,,-4,,,,,,,,,,,,,,,,,,,,,,,,,,,610c5b0a0f713891f0d5af7f,001,2021-12-06_02h18.05.622,jm_natural_scene_simialrity_2-12-2021,2021.2.3,Win32,144.5295563,610c5b0a0f713891f0d5af7f,61ad71e11ddd29ccf7a27d5b,61ad72d2836c9a04783d3053,,,,,,-48,63,1,0,0,response7disk,0.7158,-8,1,1,0,0,rectangle,-8,1,1,0,0,-3,1,"[52,17,123,150,38,115,22,89,143,36]",-8,1,1,0,0,1,3,84,27,1,DarkGreen,DarkGreen.jpg,DarkBlue,DarkBlue.jpg,,
,,,,,,,,,,,,,,,,,,2,,,,,,,,,,,,,,,,,,,,,,,,,,,610c5b0a0f713891f0d5af7f,001,2021-12-06_02h18.05.622,jm_natural_scene_simialrity_2-12-2021,2021.2.3,Win32,144.5295563,610c5b0a0f713891f0d5af7f,61ad71e11ddd29ccf7a27d5b,61ad72d2836c9a04783d3053,,,,,,57,-46,1,0,0,response3disk,1.1527,-20,11,1,0,0,rectangle,-20,11,1,0,0,-3,1,"[52,17,123,150,38,115,22,89,143,36]",-20,11,1,0,0,1,4,85,45,1,Yellow,Yellow.jpg,Red,Red.jpg,,
,,,,,,,,,,,,,,,,,,-4,,,,,,,,,,,,,,,,,,,,,,,,,,,610c5b0a0f713891f0d5af7f,001,2021-12-06_02h18.05.622,jm_natural_scene_simialrity_2-12-2021,2021.2.3,Win32,144.5295563,610c5b0a0f713891f0d5af7f,61ad71e11ddd29ccf7a27d5b,61ad72d2836c9a04783d3053,,,,,,-46,95,1,0,0,response7disk,0.7987,-2,14,1,0,0,rectangle,-2,14,1,0,0,-3,-2,"[52,17,123,150,38,115,22,89,143,36]",-2,14,1,0,0,1,5,86,76,1,Pink,Pink.jpg,LightBlue,LightBlue.jpg,,
,,,,,,,,,,,,,,,,,,-4,,,,,,,,,,,,,,,,,,,,,,,,,,,610c5b0a0f713891f0d5af7f,001,2021-12-06_02h18.05.622,jm_natural_scene_simialrity_2-12-2021,2021.2.3,Win32,144.5295563,610c5b0a0f713891f0d5af7f,61ad71e11ddd29ccf7a27d5b,61ad72d2836c9a04783d3053,,,,,,-38,91,1,0,0,response7disk,1.0417,-13,8,1,0,0,rectangle,-13,8,1,0,0,-3,1,"[52,17,123,150,38,115,22,89,143,36]",-13,8,1,0,0,1,6,87,2,1,Red,Red.jpg,LightGreen,LightGreen.jpg,,
,,,,,,,,,,,,,,,,,,-4,,,,,,,,,,,,,,,,,,,,,,,,,,,610c5b0a0f713891f0d5af7f,001,2021-12-06_02h18.05.622,jm_natural_scene_simialrity_2-12-2021,2021.2.3,Win32,144.5295563,610c5b0a0f713891f0d5af7f,61ad71e11ddd29ccf7a27d5b,61ad72d2836c9a04783d3053,,,,,,-38,81,1,0,0,response7disk,0.5835,-6,12,1,0,0,rectangle,-61,-37,1,0,0,-3,-2,"[52,17,123,150,38,115,22,89,143,36]",-8,-2,1,0,0,1,7,88,72,1,DarkBlue,DarkBlue.jpg,Turquiose,Turquiose.jpg,response5disk_3,rectangle
,,,,,,,,,,,,,,,,,,-4,,,,,,,,,,,,,,,,,,,,,,,,,,,610c5b0a0f713891f0d5af7f,001,2021-12-06_02h18.05.622,jm_natural_scene_simialrity_2-12-2021,2021.2.3,Win32,144.5295563,610c5b0a0f713891f0d5af7f,61ad71e11ddd29ccf7a27d5b,61ad72d2836c9a04783d3053,,,,,,-32,99,1,0,0,response7disk,0.7707,3,9,1,0,0,rectangle,3,9,1,0,0,-3,-1,"[52,17,123,150,38,115,22,89,143,36]",3,9,1,0,0,1,8,89,41,1,DarkBlue,DarkBlue.jpg,Purple,Purple.jpg,,
,,,,,,,,,,,,,,,,,,4,,,,,,,,,,,,,,,,,,,,,,,,,,,610c5b0a0f713891f0d5af7f,001,2021-12-06_02h18.05.622,jm_natural_scene_simialrity_2-12-2021,2021.2.3,Win32,144.5295563,610c5b0a0f713891f0d5af7f,61ad71e11ddd29ccf7a27d5b,61ad72d2836c9a04783d3053,,,,,,29,92,1,0,0,response1disk,0.5487,5,14,1,0,0,rectangle,5,14,1,0,0,-3,-4,"[52,17,123,150,38,115,22,89,143,36]",5,14,1,0,0,1,9,90,24,1,DarkGreen,DarkGreen.jpg,DarkGreen,DarkGreen.jpg,,
,,,,,,,,,,,,,,,,,,1,,,,,,,,,,,,,,,,,,,,,,,,,,,610c5b0a0f713891f0d5af7f,001,2021-12-06_02h18.05.622,jm_natural_scene_simialrity_2-12-2021,2021.2.3,Win32,144.5295563,610c5b0a0f713891f0d5af7f,61ad71e11ddd29ccf7a27d5b,61ad72d2836c9a04783d3053,,,,,,37,-67,1,0,0,response3disk,1.209,-14,-4,1,0,0,rectangle,-14,-4,1,0,0,-3,-2,"[52,17,123,150,38,115,22,89,143,36]",-14,-4,1,0,0,1,10,91,25,1,DarkGreen,DarkGreen.jpg,Turquiose,Turquiose.jpg,,
,,,,,,,,,,,,,,,,,,-4,,,,,,,,,,,,,,,,,,,,,,,,,,,610c5b0a0f713891f0d5af7f,001,2021-12-06_02h18.05.622,jm_natural_scene_simialrity_2-12-2021,2021.2.3,Win32,144.5295563,610c5b0a0f713891f0d5af7f,61ad71e11ddd29ccf7a27d5b,61ad72d2836c9a04783d3053,,,,,,-29,70,1,0,0,response7disk,0.7431,-12,9,1,0,0,rectangle,-12,9,1,0,0,-3,-4,"[52,17,123,150,38,115,22,89,143,36]",-12,9,1,0,0,1,11,92,59,1,Purple,Purple.jpg,Yellow,Yellow.jpg,,
,,,,,,,,,,,,,,,,,,-4,,,,,,,,,,,,,,,,,,,,,,,,,,,610c5b0a0f713891f0d5af7f,001,2021-12-06_02h18.05.622,jm_natural_scene_simialrity_2-12-2021,2021.2.3,Win32,144.5295563,610c5b0a0f713891f0d5af7f,61ad71e11ddd29ccf7a27d5b,61ad72d2836c9a04783d3053,,,,,,-29,76,1,0,0,response7disk,0.5556,-11,7,1,0,0,rectangle,-11,7,1,0,0,-3,-4,"[52,17,123,150,38,115,22,89,143,36]",-11,7,1,0,0,1,12,93,14,1,Yellow,Yellow.jpg,DarkBlue,DarkBlue.jpg,,
,,,,,,,,,,,,,,,,,,2,,,,,,,,,,,,,,,,,,,,,,,,,,,610c5b0a0f713891f0d5af7f,001,2021-12-06_02h18.05.622,jm_natural_scene_simialrity_2-12-2021,2021.2.3,Win32,144.5295563,610c5b0a0f713891f0d5af7f,61ad71e11ddd29ccf7a27d5b,61ad72d2836c9a04783d3053,,,,,,77,-50,1,0,0,response3disk,2.7015,6,-4,1,0,0,rectangle,6,-4,1,0,0,-3,-1,"[52,17,123,150,38,115,22,89,143,36]",6,-4,1,0,0,1,13,94,71,1,LightBlue,LightBlue.jpg,Turquiose,Turquiose.jpg,,
,,,,,,,,,,,,,,,,,,-4,,,,,,,,,,,,,,,,,,,,,,,,,,,610c5b0a0f713891f0d5af7f,001,2021-12-06_02h18.05.622,jm_natural_scene_simialrity_2-12-2021,2021.2.3,Win32,144.5295563,610c5b0a0f713891f0d5af7f,61ad71e11ddd29ccf7a27d5b,61ad72d2836c9a04783d3053,,,,,,-20,51,1,0,0,response7disk,1.0349,-2,7,1,0,0,rectangle,-2,7,1,0,0,-3,-1,"[52,17,123,150,38,115,22,89,143,36]",-2,7,1,0,0,1,14,95,68,1,DarkBlue,DarkBlue.jpg,DarkGreen,DarkGreen.jpg,,
,,,,,,,,,,,,,,,,,,4,,,,,,,,,,,,,,,,,,,,,,,,,,,610c5b0a0f713891f0d5af7f,001,2021-12-06_02h18.05.622,jm_natural_scene_simialrity_2-12-2021,2021.2.3,Win32,144.5295563,610c5b0a0f713891f0d5af7f,61ad71e11ddd29ccf7a27d5b,61ad72d2836c9a04783d3053,,,,,,40,82,1,0,0,response1disk,0.6527,6,12,1,0,0,rectangle,6,12,1,0,0,-3,3,"[52,17,123,150,38,115,22,89,143,36]",6,12,1,0,0,1,15,96,44,1,Purple,Purple.jpg,Purple,Purple.jpg,,
,,,,,,,,,,,,,,,,,,-4,,,,,,,,,,,,,,,,,,,,,,,,,,,610c5b0a0f713891f0d5af7f,001,2021-12-06_02h18.05.622,jm_natural_scene_simialrity_2-12-2021,2021.2.3,Win32,144.5295563,610c5b0a0f713891f0d5af7f,61ad71e11ddd29ccf7a27d5b,61ad72d2836c9a04783d3053,,,,,,-36,69,1,0,0,response7disk,1.0553,0,7,1,0,0,rectangle,0,7,1,0,0,-3,-2,"[52,17,123,150,38,115,22,89,143,36]",0,7,1,0,0,1,16,97,15,1,Yellow,Yellow.jpg,Pink,Pink.jpg,,
,,,,,,,,,,,,,,,,,,4,,,,,,,,,,,,,,,,,,,,,,,,,,,610c5b0a0f713891f0d5af7f,001,2021-12-06_02h18.05.622,jm_natural_scene_simialrity_2-12-2021,2021.2.3,Win32,144.5295563,610c5b0a0f713891f0d5af7f,61ad71e11ddd29ccf7a27d5b,61ad72d2836c9a04783d3053,,,,,,23,94,1,0,0,response1disk,0.6319,2,2,1,0,0,rectangle,2,2,1,0,0,-3,-4,"[52,17,123,150,38,115,22,89,143,36]",2,2,1,0,0,1,17,98,42,1,Pink,Pink.jpg,Pink,Pink.jpg,,
,,,,,,,,,,,,,,,,,,-4,,,,,,,,,,,,,,,,,,,,,,,,,,,610c5b0a0f713891f0d5af7f,001,2021-12-06_02h18.05.622,jm_natural_scene_simialrity_2-12-2021,2021.2.3,Win32,144.5295563,610c5b0a0f713891f0d5af7f,61ad71e11ddd29ccf7a27d5b,61ad72d2836c9a04783d3053,,,,,,-48,90,1,0,0,response7disk,1.618,0,0,1,0,0,rectangle,0,0,1,0,0,-3,-2,"[52,17,123,150,38,115,22,89,143,36]",0,0,1,0,0,1,18,99,70,1,Purple,Purple.jpg,DarkGreen,DarkGreen.jpg,,
,,,,,,,,,,,,,,,,,,-4,,,,,,,,,,,,,,,,,,,,,,,,,,,610c5b0a0f713891f0d5af7f,001,2021-12-06_02h18.05.622,jm_natural_scene_simialrity_2-12-2021,2021.2.3,Win32,144.5295563,610c5b0a0f713891f0d5af7f,61ad71e11ddd29ccf7a27d5b,61ad72d2836c9a04783d3053,,,,,,-43,71,1,0,0,response7disk,0.7431,-14,-4,1,0,0,rectangle,-14,-4,1,0,0,-3,-1,"[52,17,123,150,38,115,22,89,143,36]",-14,-4,1,0,0,1,19,100,64,1,Pink,Pink.jpg,LightGreen,LightGreen.jpg,,
,,,,,,,,,,,,,,,,,,-4,,,,,,,,,,,,,,,,,,,,,,,,,,,610c5b0a0f713891f0d5af7f,001,2021-12-06_02h18.05.622,jm_natural_scene_simialrity_2-12-2021,2021.2.3,Win32,144.5295563,610c5b0a0f713891f0d5af7f,61ad71e11ddd29ccf7a27d5b,61ad72d2836c9a04783d3053,,,,,,-34,55,1,0,0,response7disk,0.6805,-11,5,1,0,0,rectangle,-11,5,1,0,0,-3,-3,"[52,17,123,150,38,115,22,89,143,36]",-11,5,1,0,0,1,20,101,56,1,LightBlue,LightBlue.jpg,Yellow,Yellow.jpg,,
,,,,,,,,,,,,,,,,,,-4,,,,,,,,,,,,,,,,,,,,,,,,,,,610c5b0a0f713891f0d5af7f,001,2021-12-06_02h18.05.622,jm_natural_scene_simialrity_2-12-2021,2021.2.3,Win32,144.5295563,610c5b0a0f713891f0d5af7f,61ad71e11ddd29ccf7a27d5b,61ad72d2836c9a04783d3053,,,,,,-29,72,1,0,0,response7disk,0.6675,-5,4,1,0,0,rectangle,-5,4,1,0,0,-3,-4,"[52,17,123,150,38,115,22,89,143,36]",-5,4,1,0,0,1,21,102,26,1,DarkGreen,DarkGreen.jpg,LightBlue,LightBlue.jpg,,
,,,,,,,,,,,,,,,,,,-4,,,,,,,,,,,,,,,,,,,,,,,,,,,610c5b0a0f713891f0d5af7f,001,2021-12-06_02h18.05.622,jm_natural_scene_simialrity_2-12-2021,2021.2.3,Win32,144.5295563,610c5b0a0f713891f0d5af7f,61ad71e11ddd29ccf7a27d5b,61ad72d2836c9a04783d3053,,,,,,-31,75,1,0,0,response7disk,0.548,-5,0,1,0,0,rectangle,-5,0,1,0,0,-3,-2,"[52,17,123,150,38,115,22,89,143,36]",-5,0,1,0,0,1,22,103,75,1,DarkBlue,DarkBlue.jpg,LightBlue,LightBlue.jpg,,
,,,,,,,,,,,,,,,,,,-4,,,,,,,,,,,,,,,,,,,,,,,,,,,610c5b0a0f713891f0d5af7f,001,2021-12-06_02h18.05.622,jm_natural_scene_simialrity_2-12-2021,2021.2.3,Win32,144.5295563,610c5b0a0f713891f0d5af7f,61ad71e11ddd29ccf7a27d5b,61ad72d2836c9a04783d3053,,,,,,-27,68,1,0,0,response7disk,0.6111,4,-4,1,0,0,rectangle,4,-4,1,0,0,-3,-3,"[52,17,123,150,38,115,22,89,143,36]",4,-4,1,0,0,1,23,104,34,1,Turquiose,Turquiose.jpg,Purple,Purple.jpg,,
,,,,,,,,,,,,,,,,,,-4,,,,,,,,,,,,,,,,,,,,,,,,,,,610c5b0a0f713891f0d5af7f,001,2021-12-06_02h18.05.622,jm_natural_scene_simialrity_2-12-2021,2021.2.3,Win32,144.5295563,610c5b0a0f713891f0d5af7f,61ad71e11ddd29ccf7a27d5b,61ad72d2836c9a04783d3053,,,,,,-27,65,1,0,0,response7disk,0.486,-13,2,1,0,0,rectangle,-13,2,1,0,0,-3,2,"[52,17,123,150,38,115,22,89,143,36]",-13,2,1,0,0,1,24,105,46,1,LightGreen,LightGreen.jpg,Red,Red.jpg,,
,,,,,,,,,,,,,,,,,,-4,,,,,,,,,,,,,,,,,,,,,,,,,,,610c5b0a0f713891f0d5af7f,001,2021-12-06_02h18.05.622,jm_natural_scene_simialrity_2-12-2021,2021.2.3,Win32,144.5295563,610c5b0a0f713891f0d5af7f,61ad71e11ddd29ccf7a27d5b,61ad72d2836c9a04783d3053,,,,,,-41,72,1,0,0,response7disk,0.5556,-5,-5,1,0,0,rectangle,-5,-5,1,0,0,-3,2,"[52,17,123,150,38,115,22,89,143,36]",-5,-5,1,0,0,1,25,106,11,1,Yellow,Yellow.jpg,DarkGreen,DarkGreen.jpg,,
,,,,,,,,,,,,,,,,,,-4,,,,,,,,,,,,,,,,,,,,,,,,,,,610c5b0a0f713891f0d5af7f,001,2021-12-06_02h18.05.622,jm_natural_scene_simialrity_2-12-2021,2021.2.3,Win32,144.5295563,610c5b0a0f713891f0d5af7f,61ad71e11ddd29ccf7a27d5b,61ad72d2836c9a04783d3053,,,,,,-24,72,1,0,0,response7disk,0.472,-9,0,1,0,0,rectangle,-9,0,1,0,0,-3,-2,"[52,17,123,150,38,115,22,89,143,36]",-9,0,1,0,0,1,26,107,5,1,Red,Red.jpg,LightBlue,LightBlue.jpg,,
,,,,,,,,,,,,,,,,,,-4,,,,,,,,,,,,,,,,,,,,,,,,,,,610c5b0a0f713891f0d5af7f,001,2021-12-06_02h18.05.622,jm_natural_scene_simialrity_2-12-2021,2021.2.3,Win32,144.5295563,610c5b0a0f713891f0d5af7f,61ad71e11ddd29ccf7a27d5b,61ad72d2836c9a04783d3053,,,,,,-39,72,1,0,0,response7disk,0.5069,-2,0,1,0,0,rectangle,-2,0,1,0,0,-3,3,"[52,17,123,150,38,115,22,89,143,36]",-2,0,1,0,0,1,27,108,13,1,Yellow,Yellow.jpg,LightBlue,LightBlue.jpg,,
,,,,,,,,,,,,,,,,,,-4,,,,,,,,,,,,,,,,,,,,,,,,,,,610c5b0a0f713891f0d5af7f,001,2021-12-06_02h18.05.622,jm_natural_scene_simialrity_2-12-2021,2021.2.3,Win32,144.5295563,610c5b0a0f713891f0d5af7f,61ad71e11ddd29ccf7a27d5b,61ad72d2836c9a04783d3053,,,,,,-29,77,1,0,0,response7disk,0.4722,-1,3,1,0,0,rectangle,-1,3,1,0,0,-3,3,"[52,17,123,150,38,115,22,89,143,36]",-1,3,1,0,0,1,28,109,3,1,Red,Red.jpg,DarkGreen,DarkGreen.jpg,,
,,,,,,,,,,,,,,,,,,-4,,,,,,,,,,,,,,,,,,,,,,,,,,,610c5b0a0f713891f0d5af7f,001,2021-12-06_02h18.05.622,jm_natural_scene_simialrity_2-12-2021,2021.2.3,Win32,144.5295563,610c5b0a0f713891f0d5af7f,61ad71e11ddd29ccf7a27d5b,61ad72d2836c9a04783d3053,,,,,,-25,57,1,0,0,response7disk,0.4237,0,-7,1,0,0,rectangle,0,-7,1,0,0,-3,-2,"[52,17,123,150,38,115,22,89,143,36]",0,-7,1,0,0,1,29,110,67,1,LightBlue,LightBlue.jpg,DarkGreen,DarkGreen.jpg,,
,,,,,,,,,,,,,,,,,,4,,,,,,,,,,,,,,,,,,,,,,,,,,,610c5b0a0f713891f0d5af7f,001,2021-12-06_02h18.05.622,jm_natural_scene_simialrity_2-12-2021,2021.2.3,Win32,144.5295563,610c5b0a0f713891f0d5af7f,61ad71e11ddd29ccf7a27d5b,61ad72d2836c9a04783d3053,,,,,,41,70,1,0,0,response1disk,0.7431,-2,2,1,0,0,rectangle,-2,2,1,0,0,-3,-3,"[52,17,123,150,38,115,22,89,143,36]",-2,2,1,0,0,1,30,111,7,1,Red,Red.jpg,Pink,Pink.jpg,,
,,,,,,,,,,,,,,,,,,4,,,,,,,,,,,,,,,,,,,,,,,,,,,610c5b0a0f713891f0d5af7f,001,2021-12-06_02h18.05.622,jm_natural_scene_simialrity_2-12-2021,2021.2.3,Win32,144.5295563,610c5b0a0f713891f0d5af7f,61ad71e11ddd29ccf7a27d5b,61ad72d2836c9a04783d3053,,,,,,43,74,1,0,0,response1disk,0.6043,22,8,1,0,0,rectangle,22,8,1,0,0,-3,-3,"[52,17,123,150,38,115,22,89,143,36]",22,8,1,0,0,1,31,112,60,1,DarkGreen,DarkGreen.jpg,LightGreen,LightGreen.jpg,,
,,,,,,,,,,,,,,,,,,-4,,,,,,,,,,,,,,,,,,,,,,,,,,,610c5b0a0f713891f0d5af7f,001,2021-12-06_02h18.05.622,jm_natural_scene_simialrity_2-12-2021,2021.2.3,Win32,144.5295563,610c5b0a0f713891f0d5af7f,61ad71e11ddd29ccf7a27d5b,61ad72d2836c9a04783d3053,,,,,,-36,70,1,0,0,response7disk,0.5763,-12,7,1,0,0,rectangle,-12,7,1,0,0,-3,-4,"[52,17,123,150,38,115,22,89,143,36]",-12,7,1,0,0,1,32,113,6,1,Red,Red.jpg,DarkBlue,DarkBlue.jpg,,
,,,,,,,,,,,,,,,,,,-4,,,,,,,,,,,,,,,,,,,,,,,,,,,610c5b0a0f713891f0d5af7f,001,2021-12-06_02h18.05.622,jm_natural_scene_simialrity_2-12-2021,2021.2.3,Win32,144.5295563,610c5b0a0f713891f0d5af7f,61ad71e11ddd29ccf7a27d5b,61ad72d2836c9a04783d3053,,,,,,-35,79,1,0,0,response7disk,0.4793,-12,8,1,0,0,rectangle,-84,-35,1,0,0,-3,-2,"[52,17,123,150,38,115,22,89,143,36]",-10,2,1,0,0,1,33,114,49,1,LightBlue,LightBlue.jpg,Red,Red.jpg,response5disk_3,rectangle
,,,,,,,,,,,,,,,,,,-4,,,,,,,,,,,,,,,,,,,,,,,,,,,610c5b0a0f713891f0d5af7f,001,2021-12-06_02h18.05.622,jm_natural_scene_simialrity_2-12-2021,2021.2.3,Win32,144.5295563,610c5b0a0f713891f0d5af7f,61ad71e11ddd29ccf7a27d5b,61ad72d2836c9a04783d3053,,,,,,-37,69,1,0,0,response7disk,0.9722,-14,13,1,0,0,rectangle,-14,13,1,0,0,-3,3,"[52,17,123,150,38,115,22,89,143,36]",-14,13,1,0,0,1,34,115,55,1,Turquiose,Turquiose.jpg,Yellow,Yellow.jpg,,
,,,,,,,,,,,,,,,,,,4,,,,,,,,,,,,,,,,,,,,,,,,,,,610c5b0a0f713891f0d5af7f,001,2021-12-06_02h18.05.622,jm_natural_scene_simialrity_2-12-2021,2021.2.3,Win32,144.5295563,610c5b0a0f713891f0d5af7f,61ad71e11ddd29ccf7a27d5b,61ad72d2836c9a04783d3053,,,,,,24,90,1,0,0,response1disk,0.6418,-3,-1,1,0,0,rectangle,-3,-1,1,0,0,-3,-2,"[52,17,123,150,38,115,22,89,143,36]",-3,-1,1,0,0,1,35,116,9,1,Yellow,Yellow.jpg,Yellow,Yellow.jpg,,
,,,,,,,,,,,,,,,,,,-4,,,,,,,,,,,,,,,,,,,,,,,,,,,610c5b0a0f713891f0d5af7f,001,2021-12-06_02h18.05.622,jm_natural_scene_simialrity_2-12-2021,2021.2.3,Win32,144.5295563,610c5b0a0f713891f0d5af7f,61ad71e11ddd29ccf7a27d5b,61ad72d2836c9a04783d3053,,,,,,-34,68,1,0,0,response7disk,0.4234,-3,5,1,0,0,rectangle,-3,5,1,0,0,-3,-3,"[52,17,123,150,38,115,22,89,143,36]",-3,5,1,0,0,1,36,117,79,1,Purple,Purple.jpg,DarkBlue,DarkBlue.jpg,,
,,,,,,,,,,,,,,,,,,-4,,,,,,,,,,,,,,,,,,,,,,,,,,,610c5b0a0f713891f0d5af7f,001,2021-12-06_02h18.05.622,jm_natural_scene_simialrity_2-12-2021,2021.2.3,Win32,144.5295563,610c5b0a0f713891f0d5af7f,61ad71e11ddd29ccf7a27d5b,61ad72d2836c9a04783d3053,,,,,,-26,70,1,0,0,response7disk,0.4931,2,-7,1,0,0,rectangle,2,-7,1,0,0,-3,2,"[52,17,123,150,38,115,22,89,143,36]",2,-7,1,0,0,1,37,118,69,1,Pink,Pink.jpg,DarkGreen,DarkGreen.jpg,,
,,,,,,,,,,,,,,,,,,-4,,,,,,,,,,,,,,,,,,,,,,,,,,,610c5b0a0f713891f0d5af7f,001,2021-12-06_02h18.05.622,jm_natural_scene_simialrity_2-12-2021,2021.2.3,Win32,144.5295563,610c5b0a0f713891f0d5af7f,61ad71e11ddd29ccf7a27d5b,61ad72d2836c9a04783d3053,,,,,,-28,82,1,0,0,response7disk,0.5833,-3,5,1,0,0,rectangle,-3,5,1,0,0,-3,-3,"[52,17,123,150,38,115,22,89,143,36]",-3,5,1,0,0,1,38,119,61,1,Turquiose,Turquiose.jpg,LightGreen,LightGreen.jpg,,
,,,,,,,,,,,,,,,,,,-4,,,,,,,,,,,,,,,,,,,,,,,,,,,610c5b0a0f713891f0d5af7f,001,2021-12-06_02h18.05.622,jm_natural_scene_simialrity_2-12-2021,2021.2.3,Win32,144.5295563,610c5b0a0f713891f0d5af7f,61ad71e11ddd29ccf7a27d5b,61ad72d2836c9a04783d3053,,,,,,-30,71,1,0,0,response7disk,0.4446,-6,8,1,0,0,rectangle,-6,8,1,0,0,-3,-3,"[52,17,123,150,38,115,22,89,143,36]",-6,8,1,0,0,1,39,120,57,1,DarkBlue,DarkBlue.jpg,Yellow,Yellow.jpg,,
,,,,,,,,,,,,,,,,,,-4,,,,,,,,,,,,,,,,,,,,,,,,,,,610c5b0a0f713891f0d5af7f,001,2021-12-06_02h18.05.622,jm_natural_scene_simialrity_2-12-2021,2021.2.3,Win32,144.5295563,610c5b0a0f713891f0d5af7f,61ad71e11ddd29ccf7a27d5b,61ad72d2836c9a04783d3053,,,,,,-37,70,1,0,0,response7disk,0.4028,-3,6,1,0,0,rectangle,-3,6,1,0,0,-3,-1,"[52,17,123,150,38,115,22,89,143,36]",-3,6,1,0,0,1,40,121,20,1,LightGreen,LightGreen.jpg,LightBlue,LightBlue.jpg,,
,,,,,,,,,,,,,,,,,,-4,,,,,,,,,,,,,,,,,,,,,,,,,,,610c5b0a0f713891f0d5af7f,001,2021-12-06_02h18.05.622,jm_natural_scene_simialrity_2-12-2021,2021.2.3,Win32,144.5295563,610c5b0a0f713891f0d5af7f,61ad71e11ddd29ccf7a27d5b,61ad72d2836c9a04783d3053,,,,,,-27,69,1,0,0,response7disk,0.5416,0,8,1,0,0,rectangle,62,-41,1,0,0,2,2,"[52,17,123,150,38,115,22,89,143,36]",-15,1,1,0,0,1,41,122,37,1,LightBlue,LightBlue.jpg,Pink,Pink.jpg,response3disk_3,rectangle
,,,,,,,,,,,,,,,,,,-4,,,,,,,,,,,,,,,,,,,,,,,,,,,610c5b0a0f713891f0d5af7f,001,2021-12-06_02h18.05.622,jm_natural_scene_simialrity_2-12-2021,2021.2.3,Win32,144.5295563,610c5b0a0f713891f0d5af7f,61ad71e11ddd29ccf7a27d5b,61ad72d2836c9a04783d3053,,,,,,-34,66,1,0,0,response7disk,0.7161,5,-9,1,0,0,rectangle,5,-9,1,0,0,2,1,"[52,17,123,150,38,115,22,89,143,36]",5,-9,1,0,0,1,42,123,53,1,LightGreen,LightGreen.jpg,Yellow,Yellow.jpg,,
,,,,,,,,,,,,,,,,,,-4,,,,,,,,,,,,,,,,,,,,,,,,,,,610c5b0a0f713891f0d5af7f,001,2021-12-06_02h18.05.622,jm_natural_scene_simialrity_2-12-2021,2021.2.3,Win32,144.5295563,610c5b0a0f713891f0d5af7f,61ad71e11ddd29ccf7a27d5b,61ad72d2836c9a04783d3053,,,,,,-40,67,1,0,0,response7disk,0.4512,-7,-9,1,0,0,rectangle,-7,-9,1,0,0,2,-1,"[52,17,123,150,38,115,22,89,143,36]",-7,-9,1,0,0,1,43,124,78,1,Pink,Pink.jpg,DarkBlue,DarkBlue.jpg,,
,,,,,,,,,,,,,,,,,,-4,,,,,,,,,,,,,,,,,,,,,,,,,,,610c5b0a0f713891f0d5af7f,001,2021-12-06_02h18.05.622,jm_natural_scene_simialrity_2-12-2021,2021.2.3,Win32,144.5295563,610c5b0a0f713891f0d5af7f,61ad71e11ddd29ccf7a27d5b,61ad72d2836c9a04783d3053,,,,,,-43,75,1,0,0,response7disk,0.5141,-5,-3,1,0,0,rectangle,-5,-3,1,0,0,2,2,"[52,17,123,150,38,115,22,89,143,36]",-5,-3,1,0,0,1,44,125,48,1,Turquiose,Turquiose.jpg,Red,Red.jpg,,
,,,,,,,,,,,,,,,,,,-2,,,,,,,,,,,,,,,,,,,,,,,,,,,610c5b0a0f713891f0d5af7f,001,2021-12-06_02h18.05.622,jm_natural_scene_simialrity_2-12-2021,2021.2.3,Win32,144.5295563,610c5b0a0f713891f0d5af7f,61ad71e11ddd29ccf7a27d5b,61ad72d2836c9a04783d3053,,,,,,-55,-32,1,0,0,response5disk,1.6046,-2,20,1,0,0,rectangle,-2,20,1,0,0,2,-2,"[52,17,123,150,38,115,22,89,143,36]",-2,20,1,0,0,1,45,126,19,1,LightGreen,LightGreen.jpg,Turquiose,Turquiose.jpg,,
,,,,,,,,,,,,,,,,,,4,,,,,,,,,,,,,,,,,,,,,,,,,,,610c5b0a0f713891f0d5af7f,001,2021-12-06_02h18.05.622,jm_natural_scene_simialrity_2-12-2021,2021.2.3,Win32,144.5295563,610c5b0a0f713891f0d5af7f,61ad71e11ddd29ccf7a27d5b,61ad72d2836c9a04783d3053,,,,,,44,93,1,0,0,response1disk,0.8055,7,13,1,0,0,rectangle,7,13,1,0,0,2,-2,"[52,17,123,150,38,115,22,89,143,36]",7,13,1,0,0,1,46,127,35,1,LightBlue,LightBlue.jpg,LightBlue,LightBlue.jpg,,
,,,,,,,,,,,,,,,,,,4,,,,,,,,,,,,,,,,,,,,,,,,,,,610c5b0a0f713891f0d5af7f,001,2021-12-06_02h18.05.622,jm_natural_scene_simialrity_2-12-2021,2021.2.3,Win32,144.5295563,610c5b0a0f713891f0d5af7f,61ad71e11ddd29ccf7a27d5b,61ad72d2836c9a04783d3053,,,,,,41,82,1,0,0,response1disk,0.6597,16,-2,1,0,0,rectangle,16,-2,1,0,0,2,-1,"[52,17,123,150,38,115,22,89,143,36]",16,-2,1,0,0,1,47,128,0,1,Red,Red.jpg,Red,Red.jpg,,
,,,,,,,,,,,,,,,,,,2,,,,,,,,,,,,,,,,,,,,,,,,,,,610c5b0a0f713891f0d5af7f,001,2021-12-06_02h18.05.622,jm_natural_scene_simialrity_2-12-2021,2021.2.3,Win32,144.5295563,610c5b0a0f713891f0d5af7f,61ad71e11ddd29ccf7a27d5b,61ad72d2836c9a04783d3053,,,,,,60,-43,1,0,0,response3disk,1.3606,-9,3,1,0,0,rectangle,-9,3,1,0,0,2,1,"[52,17,123,150,38,115,22,89,143,36]",-9,3,1,0,0,1,48,129,77,1,Purple,Purple.jpg,LightBlue,LightBlue.jpg,,
,,,,,,,,,,,,,,,,,,-4,,,,,,,,,,,,,,,,,,,,,,,,,,,610c5b0a0f713891f0d5af7f,001,2021-12-06_02h18.05.622,jm_natural_scene_simialrity_2-12-2021,2021.2.3,Win32,144.5295563,610c5b0a0f713891f0d5af7f,61ad71e11ddd29ccf7a27d5b,61ad72d2836c9a04783d3053,,,,,,-40,61,1,0,0,response7disk,1.104,-6,-2,1,0,0,rectangle,-6,-2,1,0,0,2,-3,"[52,17,123,150,38,115,22,89,143,36]",-6,-2,1,0,0,1,49,130,52,1,Purple,Purple.jpg,Red,Red.jpg,,
,,,,,,,,,,,,,,,,,,-4,,,,,,,,,,,,,,,,,,,,,,,,,,,610c5b0a0f713891f0d5af7f,001,2021-12-06_02h18.05.622,jm_natural_scene_simialrity_2-12-2021,2021.2.3,Win32,144.5295563,610c5b0a0f713891f0d5af7f,61ad71e11ddd29ccf7a27d5b,61ad72d2836c9a04783d3053,,,,,,-39,80,1,0,0,response7disk,0.7286,1,4,1,0,0,rectangle,1,4,1,0,0,2,-3,"[52,17,123,150,38,115,22,89,143,36]",1,4,1,0,0,1,50,131,33,1,Turquiose,Turquiose.jpg,Pink,Pink.jpg,,
,,,,,,,,,,,,,,,,,,4,,,,,,,,,,,,,,,,,,,,,,,,,,,610c5b0a0f713891f0d5af7f,001,2021-12-06_02h18.05.622,jm_natural_scene_simialrity_2-12-2021,2021.2.3,Win32,144.5295563,610c5b0a0f713891f0d5af7f,61ad71e11ddd29ccf7a27d5b,61ad72d2836c9a04783d3053,,,,,,32,76,1,0,0,response1disk,0.5209,11,2,1,0,0,rectangle,11,2,1,0,0,2,-3,"[52,17,123,150,38,115,22,89,143,36]",11,2,1,0,0,1,51,132,17,1,LightGreen,LightGreen.jpg,LightGreen,LightGreen.jpg,,
,,,,,,,,,,,,,,,,,,-4,,,,,,,,,,,,,,,,,,,,,,,,,,,610c5b0a0f713891f0d5af7f,001,2021-12-06_02h18.05.622,jm_natural_scene_simialrity_2-12-2021,2021.2.3,Win32,144.5295563,610c5b0a0f713891f0d5af7f,61ad71e11ddd29ccf7a27d5b,61ad72d2836c9a04783d3053,,,,,,-39,81,1,0,0,response7disk,0.9236,3,-3,1,0,0,rectangle,3,-3,1,0,0,2,-3,"[52,17,123,150,38,115,22,89,143,36]",3,-3,1,0,0,1,52,133,21,1,LightGreen,LightGreen.jpg,DarkBlue,DarkBlue.jpg,,
,,,,,,,,,,,,,,,,,,-4,,,,,,,,,,,,,,,,,,,,,,,,,,,610c5b0a0f713891f0d5af7f,001,2021-12-06_02h18.05.622,jm_natural_scene_simialrity_2-12-2021,2021.2.3,Win32,144.5295563,610c5b0a0f713891f0d5af7f,61ad71e11ddd29ccf7a27d5b,61ad72d2836c9a04783d3053,,,,,,-43,69,1,0,0,response7disk,0.7499,1,10,1,0,0,rectangle,1,10,1,0,0,2,-1,"[52,17,123,150,38,115,22,89,143,36]",1,10,1,0,0,1,53,134,10,1,Yellow,Yellow.jpg,LightGreen,LightGreen.jpg,,
,,,,,,,,,,,,,,,,,,-4,,,,,,,,,,,,,,,,,,,,,,,,,,,610c5b0a0f713891f0d5af7f,001,2021-12-06_02h18.05.622,jm_natural_scene_simialrity_2-12-2021,2021.2.3,Win32,144.5295563,610c5b0a0f713891f0d5af7f,61ad71e11ddd29ccf7a27d5b,61ad72d2836c9a04783d3053,,,,,,-36,75,1,0,0,response7disk,0.8338,-8,1,1,0,0,rectangle,-8,1,1,0,0,2,-2,"[52,17,123,150,38,115,22,89,143,36]",-8,1,1,0,0,1,54,135,8,1,Red,Red.jpg,Purple,Purple.jpg,,
,,,,,,,,,,,,,,,,,,-4,,,,,,,,,,,,,,,,,,,,,,,,,,,610c5b0a0f713891f0d5af7f,001,2021-12-06_02h18.05.622,jm_natural_scene_simialrity_2-12-2021,2021.2.3,Win32,144.5295563,610c5b0a0f713891f0d5af7f,61ad71e11ddd29ccf7a27d5b,61ad72d2836c9a04783d3053,,,,,,-26,71,1,0,0,response7disk,0.5414,7,-3,1,0,0,rectangle,7,-3,1,0,0,2,-2,"[52,17,123,150,38,115,22,89,143,36]",7,-3,1,0,0,1,55,136,43,1,Pink,Pink.jpg,Purple,Purple.jpg,,
,,,,,,,,,,,,,,,,,,-4,,,,,,,,,,,,,,,,,,,,,,,,,,,610c5b0a0f713891f0d5af7f,001,2021-12-06_02h18.05.622,jm_natural_scene_simialrity_2-12-2021,2021.2.3,Win32,144.5295563,610c5b0a0f713891f0d5af7f,61ad71e11ddd29ccf7a27d5b,61ad72d2836c9a04783d3053,,,,,,-26,59,1,0,0,response7disk,0.5969,-5,4,1,0,0,rectangle,-5,4,1,0,0,2,3,"[52,17,123,150,38,115,22,89,143,36]",-5,4,1,0,0,1,56,137,31,1,Turquiose,Turquiose.jpg,LightBlue,LightBlue.jpg,,
,,,,,,,,,,,,,,,,,,-4,,,,,,,,,,,,,,,,,,,,,,,,,,,610c5b0a0f713891f0d5af7f,001,2021-12-06_02h18.05.622,jm_natural_scene_simialrity_2-12-2021,2021.2.3,Win32,144.5295563,610c5b0a0f713891f0d5af7f,61ad71e11ddd29ccf7a27d5b,61ad72d2836c9a04783d3053,,,,,,-33,73,1,0,0,response7disk,0.5905,8,2,1,0,0,rectangle,8,2,1,0,0,2,-4,"[52,17,123,150,38,115,22,89,143,36]",8,2,1,0,0,1,57,138,4,1,Red,Red.jpg,Turquiose,Turquiose.jpg,,
,,,,,,,,,,,,,,,,,,-4,,,,,,,,,,,,,,,,,,,,,,,,,,,610c5b0a0f713891f0d5af7f,001,2021-12-06_02h18.05.622,jm_natural_scene_simialrity_2-12-2021,2021.2.3,Win32,144.5295563,610c5b0a0f713891f0d5af7f,61ad71e11ddd29ccf7a27d5b,61ad72d2836c9a04783d3053,,,,,,-28,64,1,0,0,response7disk,0.6176,-6,-1,1,0,0,rectangle,-6,-1,1,0,0,2,2,"[52,17,123,150,38,115,22,89,143,36]",-6,-1,1,0,0,1,58,139,12,1,Yellow,Yellow.jpg,Turquiose,Turquiose.jpg,,
,,,,,,,,,,,,,,,,,,4,,,,,,,,,,,,,,,,,,,,,,,,,,,610c5b0a0f713891f0d5af7f,001,2021-12-06_02h18.05.622,jm_natural_scene_simialrity_2-12-2021,2021.2.3,Win32,144.5295563,610c5b0a0f713891f0d5af7f,61ad71e11ddd29ccf7a27d5b,61ad72d2836c9a04783d3053,,,,,,42,69,1,0,0,response1disk,0.5762,2,-1,1,0,0,rectangle,2,-1,1,0,0,2,2,"[52,17,123,150,38,115,22,89,143,36]",2,-1,1,0,0,1,59,140,18,1,LightGreen,LightGreen.jpg,DarkGreen,DarkGreen.jpg,,
,,,,,,,,,,,,,,,,,,-3,,,,,,,,,,,,,,,,,,,,,,,,,,,610c5b0a0f713891f0d5af7f,001,2021-12-06_02h18.05.622,jm_natural_scene_simialrity_2-12-2021,2021.2.3,Win32,144.5295563,610c5b0a0f713891f0d5af7f,61ad71e11ddd29ccf7a27d5b,61ad72d2836c9a04783d3053,,,,,,-98,46,1,0,0,response7disk,4.8681,-1,3,1,0,0,rectangle,-1,3,1,0,0,2,1,"[52,17,123,150,38,115,22,89,143,36]",-1,3,1,0,0,1,60,141,65,1,Purple,Purple.jpg,LightGreen,LightGreen.jpg,,
,,,,,,,,,,,,,,,,,,-4,,,,,,,,,,,,,,,,,,,,,,,,,,,610c5b0a0f713891f0d5af7f,001,2021-12-06_02h18.05.622,jm_natural_scene_simialrity_2-12-2021,2021.2.3,Win32,144.5295563,610c5b0a0f713891f0d5af7f,61ad71e11ddd29ccf7a27d5b,61ad72d2836c9a04783d3053,,,,,,-34,80,1,0,0,response7disk,0.8751,13,-13,1,0,0,rectangle,-109,-38,1,0,0,2,-2,"[52,17,123,150,38,115,22,89,143,36]",-9,5,1,0,0,1,61,142,58,1,Pink,Pink.jpg,Yellow,Yellow.jpg,response5disk_3,rectangle
,,,,,,,,,,,,,,,,,,-4,,,,,,,,,,,,,,,,,,,,,,,,,,,610c5b0a0f713891f0d5af7f,001,2021-12-06_02h18.05.622,jm_natural_scene_simialrity_2-12-2021,2021.2.3,Win32,144.5295563,610c5b0a0f713891f0d5af7f,61ad71e11ddd29ccf7a27d5b,61ad72d2836c9a04783d3053,,,,,,-26,68,1,0,0,response7disk,0.75,-5,14,1,0,0,rectangle,-5,14,1,0,0,2,-2,"[52,17,123,150,38,115,22,89,143,36]",-5,14,1,0,0,1,62,143,36,1,LightBlue,LightBlue.jpg,DarkBlue,DarkBlue.jpg,,
,,,,,,,,,,,,,,,,,,-4,,,,,,,,,,,,,,,,,,,,,,,,,,,610c5b0a0f713891f0d5af7f,001,2021-12-06_02h18.05.622,jm_natural_scene_simialrity_2-12-2021,2021.2.3,Win32,144.5295563,610c5b0a0f713891f0d5af7f,61ad71e11ddd29ccf7a27d5b,61ad72d2836c9a04783d3053,,,,,,-26,75,1,0,0,response7disk,0.5136,4,0,1,0,0,rectangle,4,0,1,0,0,2,3,"[52,17,123,150,38,115,22,89,143,36]",4,0,1,0,0,1,63,144,32,1,Turquiose,Turquiose.jpg,DarkBlue,DarkBlue.jpg,,
,,,,,,,,,,,,,,,,,,4,,,,,,,,,,,,,,,,,,,,,,,,,,,610c5b0a0f713891f0d5af7f,001,2021-12-06_02h18.05.622,jm_natural_scene_simialrity_2-12-2021,2021.2.3,Win32,144.5295563,610c5b0a0f713891f0d5af7f,61ad71e11ddd29ccf7a27d5b,61ad72d2836c9a04783d3053,,,,,,42,60,1,0,0,response1disk,0.4653,-2,-12,1,0,0,rectangle,-2,-12,1,0,0,2,-2,"[52,17,123,150,38,115,22,89,143,36]",-2,-12,1,0,0,1,64,145,39,1,DarkBlue,DarkBlue.jpg,DarkBlue,DarkBlue.jpg,,
,,,,,,,,,,,,,,,,,,4,,,,,,,,,,,,,,,,,,,,,,,,,,,610c5b0a0f713891f0d5af7f,001,2021-12-06_02h18.05.622,jm_natural_scene_simialrity_2-12-2021,2021.2.3,Win32,144.5295563,610c5b0a0f713891f0d5af7f,61ad71e11ddd29ccf7a27d5b,61ad72d2836c9a04783d3053,,,,,,24,67,1,0,0,response1disk,0.4861,8,-18,1,0,0,rectangle,8,-18,1,0,0,2,-4,"[52,17,123,150,38,115,22,89,143,36]",8,-18,1,0,0,1,65,146,30,1,Turquiose,Turquiose.jpg,Turquiose,Turquiose.jpg,,
,,,,,,,,,,,,,,,,,,-4,,,,,,,,,,,,,,,,,,,,,,,,,,,610c5b0a0f713891f0d5af7f,001,2021-12-06_02h18.05.622,jm_natural_scene_simialrity_2-12-2021,2021.2.3,Win32,144.5295563,610c5b0a0f713891f0d5af7f,61ad71e11ddd29ccf7a27d5b,61ad72d2836c9a04783d3053,,,,,,-38,61,1,0,0,response7disk,0.4854,-15,-7,1,0,0,rectangle,-15,-7,1,0,0,2,-2,"[52,17,123,150,38,115,22,89,143,36]",-15,-7,1,0,0,1,66,147,50,1,DarkBlue,DarkBlue.jpg,Red,Red.jpg,,
,,,,,,,,,,,,,,,,,,-4,,,,,,,,,,,,,,,,,,,,,,,,,,,610c5b0a0f713891f0d5af7f,001,2021-12-06_02h18.05.622,jm_natural_scene_simialrity_2-12-2021,2021.2.3,Win32,144.5295563,610c5b0a0f713891f0d5af7f,61ad71e11ddd29ccf7a27d5b,61ad72d2836c9a04783d3053,,,,,,-27,76,1,0,0,response7disk,0.5487,-9,9,1,0,0,rectangle,-9,9,1,0,0,2,-3,"[52,17,123,150,38,115,22,89,143,36]",-9,9,1,0,0,1,67,148,66,1,Turquiose,Turquiose.jpg,DarkGreen,DarkGreen.jpg,,
,,,,,,,,,,,,,,,,,,-4,,,,,,,,,,,,,,,,,,,,,,,,,,,610c5b0a0f713891f0d5af7f,001,2021-12-06_02h18.05.622,jm_natural_scene_simialrity_2-12-2021,2021.2.3,Win32,144.5295563,610c5b0a0f713891f0d5af7f,61ad71e11ddd29ccf7a27d5b,61ad72d2836c9a04783d3053,,,,,,-31,76,1,0,0,response7disk,0.493,1,8,1,0,0,rectangle,-57,96,1,0,0,-4,-4,"[52,17,123,150,38,115,22,89,143,36]",-6,9,1,0,0,1,68,149,47,1,DarkGreen,DarkGreen.jpg,Red,Red.jpg,response7disk_3,rectangle
,,,,,,,,,,,,,,,,,,-4,,,,,,,,,,,,,,,,,,,,,,,,,,,610c5b0a0f713891f0d5af7f,001,2021-12-06_02h18.05.622,jm_natural_scene_simialrity_2-12-2021,2021.2.3,Win32,144.5295563,610c5b0a0f713891f0d5af7f,61ad71e11ddd29ccf7a27d5b,61ad72d2836c9a04783d3053,,,,,,-32,82,1,0,0,response7disk,0.7437,-11,11,1,0,0,rectangle,-11,11,1,0,0,-4,-3,"[52,17,123,150,38,115,22,89,143,36]",-11,11,1,0,0,1,69,150,28,1,DarkGreen,DarkGreen.jpg,Pink,Pink.jpg,,
,,,,,,,,,,,,,,,,,,-4,,,,,,,,,,,,,,,,,,,,,,,,,,,610c5b0a0f713891f0d5af7f,001,2021-12-06_02h18.05.622,jm_natural_scene_simialrity_2-12-2021,2021.2.3,Win32,144.5295563,610c5b0a0f713891f0d5af7f,61ad71e11ddd29ccf7a27d5b,61ad72d2836c9a04783d3053,,,,,,-34,86,1,0,0,response7disk,0.5896,3,7,1,0,0,rectangle,3,7,1,0,0,-4,-3,"[52,17,123,150,38,115,22,89,143,36]",3,7,1,0,0,1,70,151,40,1,DarkBlue,DarkBlue.jpg,Pink,Pink.jpg,,
,,,,,,,,,,,,,,,,,,-4,,,,,,,,,,,,,,,,,,,,,,,,,,,610c5b0a0f713891f0d5af7f,001,2021-12-06_02h18.05.622,jm_natural_scene_simialrity_2-12-2021,2021.2.3,Win32,144.5295563,610c5b0a0f713891f0d5af7f,61ad71e11ddd29ccf7a27d5b,61ad72d2836c9a04783d3053,,,,,,-40,76,1,0,0,response7disk,0.5976,4,5,1,0,0,rectangle,4,5,1,0,0,-4,-3,"[52,17,123,150,38,115,22,89,143,36]",4,5,1,0,0,1,71,152,16,1,Yellow,Yellow.jpg,Purple,Purple.jpg,,
,,,,,,,,,,,,,,,,,,-4,,,,,,,,,,,,,,,,,,,,,,,,,,,610c5b0a0f713891f0d5af7f,001,2021-12-06_02h18.05.622,jm_natural_scene_simialrity_2-12-2021,2021.2.3,Win32,144.5295563,610c5b0a0f713891f0d5af7f,61ad71e11ddd29ccf7a27d5b,61ad72d2836c9a04783d3053,,,,,,-24,70,1,0,0,response7disk,0.4236,-2,2,1,0,0,rectangle,-2,2,1,0,0,-4,3,"[52,17,123,150,38,115,22,89,143,36]",-2,2,1,0,0,1,72,153,29,1,DarkGreen,DarkGreen.jpg,Purple,Purple.jpg,,
,,,,,,,,,,,,,,,,,,-2,,,,,,,,,,,,,,,,,,,,,,,,,,,610c5b0a0f713891f0d5af7f,001,2021-12-06_02h18.05.622,jm_natural_scene_simialrity_2-12-2021,2021.2.3,Win32,144.5295563,610c5b0a0f713891f0d5af7f,61ad71e11ddd29ccf7a27d5b,61ad72d2836c9a04783d3053,,,,,,-64,-28,1,0,0,response5disk,1.2294,4,-17,1,0,0,rectangle,4,-17,1,0,0,-4,2,"[52,17,123,150,38,115,22,89,143,36]",4,-17,1,0,0,1,73,154,1,1,Red,Red.jpg,Yellow,Yellow.jpg,,
,,,,,,,,,,,,,,,,,,-4,,,,,,,,,,,,,,,,,,,,,,,,,,,610c5b0a0f713891f0d5af7f,001,2021-12-06_02h18.05.622,jm_natural_scene_simialrity_2-12-2021,2021.2.3,Win32,144.5295563,610c5b0a0f713891f0d5af7f,61ad71e11ddd29ccf7a27d5b,61ad72d2836c9a04783d3053,,,,,,-30,54,1,0,0,response7disk,0.9448,0,-6,1,0,0,rectangle,0,-6,1,0,0,-4,1,"[52,17,123,150,38,115,22,89,143,36]",0,-6,1,0,0,1,74,155,80,1,Purple,Purple.jpg,Pink,Pink.jpg,,
,,,,,,,,,,,,,,,,,,-2,,,,,,,,,,,,,,,,,,,,,,,,,,,610c5b0a0f713891f0d5af7f,001,2021-12-06_02h18.05.622,jm_natural_scene_simialrity_2-12-2021,2021.2.3,Win32,144.5295563,610c5b0a0f713891f0d5af7f,61ad71e11ddd29ccf7a27d5b,61ad72d2836c9a04783d3053,,,,,,-72,-46,1,0,0,response5disk,1.9098,-1,-7,1,0,0,rectangle,-1,-7,1,0,0,-4,-4,"[52,17,123,150,38,115,22,89,143,36]",-1,-7,1,0,0,1,75,156,23,1,LightGreen,LightGreen.jpg,Purple,Purple.jpg,,
,,,,,,,,,,,,,,,,,,1,,,,,,,,,,,,,,,,,,,,,,,,,,,610c5b0a0f713891f0d5af7f,001,2021-12-06_02h18.05.622,jm_natural_scene_simialrity_2-12-2021,2021.2.3,Win32,144.5295563,610c5b0a0f713891f0d5af7f,61ad71e11ddd29ccf7a27d5b,61ad72d2836c9a04783d3053,,,,,,54,-73,1,0,0,response3disk,1.757,6,2,1,0,0,rectangle,6,2,1,0,0,-4,-1,"[52,17,123,150,38,115,22,89,143,36]",6,2,1,0,0,1,76,157,51,1,Pink,Pink.jpg,Red,Red.jpg,,
,,,,,,,,,,,,,,,,,,-4,,,,,,,,,,,,,,,,,,,,,,,,,,,610c5b0a0f713891f0d5af7f,001,2021-12-06_02h18.05.622,jm_natural_scene_simialrity_2-12-2021,2021.2.3,Win32,144.5295563,610c5b0a0f713891f0d5af7f,61ad71e11ddd29ccf7a27d5b,61ad72d2836c9a04783d3053,,,,,,-38,71,1,0,0,response7disk,0.5696,-1,-1,1,0,0,rectangle,-1,-1,1,0,0,-4,-4,"[52,17,123,150,38,115,22,89,143,36]",-1,-1,1,0,0,1,77,158,54,1,DarkGreen,DarkGreen.jpg,Yellow,Yellow.jpg,,
,,,,,,,,,,,,,,,,,,-4,,,,,,,,,,,,,,,,,,,,,,,,,,,610c5b0a0f713891f0d5af7f,001,2021-12-06_02h18.05.622,jm_natural_scene_simialrity_2-12-2021,2021.2.3,Win32,144.5295563,610c5b0a0f713891f0d5af7f,61ad71e11ddd29ccf7a27d5b,61ad72d2836c9a04783d3053,,,,,,-28,80,1,0,0,response7disk,0.611,3,0,1,0,0,rectangle,3,0,1,0,0,-4,2,"[52,17,123,150,38,115,22,89,143,36]",3,0,1,0,0,1,78,159,73,1,Pink,Pink.jpg,Turquiose,Turquiose.jpg,,
,,,,,,,,,,,,,,,,,,-4,,,,,,,,,,,,,,,,,,,,,,,,,,,610c5b0a0f713891f0d5af7f,001,2021-12-06_02h18.05.622,jm_natural_scene_simialrity_2-12-2021,2021.2.3,Win32,144.5295563,610c5b0a0f713891f0d5af7f,61ad71e11ddd29ccf7a27d5b,61ad72d2836c9a04783d3053,,,,,,-20,59,1,0,0,response7disk,0.4443,15,-14,1,0,0,rectangle,15,-14,1,0,0,-4,3,"[52,17,123,150,38,115,22,89,143,36]",15,-14,1,0,0,1,79,160,62,1,LightBlue,LightBlue.jpg,LightGreen,LightGreen.jpg,,
,,,,,,,,,,,,,,,,,,-4,,,,,,,,,,,,,,,,,,,,,,,,,,,610c5b0a0f713891f0d5af7f,001,2021-12-06_02h18.05.622,jm_natural_scene_simialrity_2-12-2021,2021.2.3,Win32,144.5295563,610c5b0a0f713891f0d5af7f,61ad71e11ddd29ccf7a27d5b,61ad72d2836c9a04783d3053,,,,,,-31,53,1,0,0,response7disk,0.7639,5,9,1,0,0,rectangle,5,9,1,0,0,-4,1,"[52,17,123,150,38,115,22,89,143,36]",5,9,1,0,0,1,80,161,63,1,DarkBlue,DarkBlue.jpg,LightGreen,LightGreen.jpg,,
