key_resp.keys,key_resp.rt,key_resp_16.keys,key_resp_16.rt,key_resp_2.keys,key_resp_2.rt,key_resp_3.keys,key_resp_3.rt,key_resp_19.keys,key_resp_19.rt,key_resp_10.keys,key_resp_10.rt,mouse_prac.x,mouse_prac.y,mouse_prac.leftButton,mouse_prac.midButton,mouse_prac.rightButton,mouse_prac.clicked_name,similarity,mouse_10.x,mouse_10.y,mouse_10.leftButton,mouse_10.midButton,mouse_10.rightButton,mouse_10.clicked_name,mouse_catch_prac.x,mouse_catch_prac.y,mouse_catch_prac.leftButton,mouse_catch_prac.midButton,mouse_catch_prac.rightButton,catchnumberprac,mouse_6.x,mouse_6.y,mouse_6.leftButton,mouse_6.midButton,mouse_6.rightButton,during_prac.thisRepN,during_prac.thisTrialN,during_prac.thisN,during_prac.thisIndex,during_prac.ran,trailimage1,trial1adress,trailimage2,trial2adress,participant,session,date,expName,psychopyVersion,OS,frameRate,PROLIFIC_PID,STUDY_ID,SESSION_ID,mouse_catch_prac.clicked_name,catchprac,mouse_6.clicked_name,key_resp_22.keys,key_resp_22.rt,mouse.x,mouse.y,mouse.leftButton,mouse.midButton,mouse.rightButton,mouse.clicked_name,response_time,mouse_2.x,mouse_2.y,mouse_2.leftButton,mouse_2.midButton,mouse_2.rightButton,mouse_2.clicked_name,mouse_3.x,mouse_3.y,mouse_3.leftButton,mouse_3.midButton,mouse_3.rightButton,catchresponse,catchnumber,catchtrialorder,mouse_11.x,mouse_11.y,mouse_11.leftButton,mouse_11.midButton,mouse_11.rightButton,trials_2.thisRepN,trials_2.thisTrialN,trials_2.thisN,trials_2.thisIndex,trials_2.ran,image1,image1adress,image2,image2adress,mouse_3.clicked_name,mouse_11.clicked_name
space,1.0906,space,6.2341,space,4.5833,space,7.8458,space,25.1695,space,5.9427,81,-92,1,0,0,response3disk_5,1,-3,5,1,0,0,rectangle_8,-3,5,1,0,0,-1,-3,5,1,0,0,0,0,0,2,1,trail1,trail1.jpg,trail3,trail3.jpg,613a3838d8479f4bc5723974,001,2021-12-05_20h17.51.294,jm_natural_scene_simialrity_2-12-2021,2021.2.3,Win32,59.97361161,613a3838d8479f4bc5723974,61ad71e11ddd29ccf7a27d5b,61ad72a97e8cd868b15d234a,,,,,,,,,,,,,,,,,,,,,,,,,,,,,,,,,,,,,,,,,,
,,,,,,,,,,,,99,54,1,0,0,response1disk_5,3,-3,6,1,0,0,rectangle_8,54,-117,1,0,0,-1,-2,3,1,0,0,0,1,1,0,1,trail1,trail1.jpg,trail1,trail1.jpg,613a3838d8479f4bc5723974,001,2021-12-05_20h17.51.294,jm_natural_scene_simialrity_2-12-2021,2021.2.3,Win32,59.97361161,613a3838d8479f4bc5723974,61ad71e11ddd29ccf7a27d5b,61ad72a97e8cd868b15d234a,response3disk_7,1,rectangle_4,,,,,,,,,,,,,,,,,,,,,,,,,,,,,,,,,,,,,,,
,,,,,,,,,,,,-45,83,1,0,0,response7disk_5,-4,-5,3,1,0,0,rectangle_8,-5,3,1,0,0,-1,-5,3,1,0,0,0,2,2,4,1,trail2,trail2.jpg,trail3,trail3.jpg,613a3838d8479f4bc5723974,001,2021-12-05_20h17.51.294,jm_natural_scene_simialrity_2-12-2021,2021.2.3,Win32,59.97361161,613a3838d8479f4bc5723974,61ad71e11ddd29ccf7a27d5b,61ad72a97e8cd868b15d234a,,,,,,,,,,,,,,,,,,,,,,,,,,,,,,,,,,,,,,,,,,
,,,,,,,,,,,,-110,43,1,0,0,response7disk_5,-3,0,-4,1,0,0,rectangle_8,0,-4,1,0,0,-1,0,-4,1,0,0,0,3,3,1,1,trail1,trail1.jpg,trail2,trail2.jpg,613a3838d8479f4bc5723974,001,2021-12-05_20h17.51.294,jm_natural_scene_simialrity_2-12-2021,2021.2.3,Win32,59.97361161,613a3838d8479f4bc5723974,61ad71e11ddd29ccf7a27d5b,61ad72a97e8cd868b15d234a,,,,,,,,,,,,,,,,,,,,,,,,,,,,,,,,,,,,,,,,,,
,,,,,,,,,,,,41,100,1,0,0,response1disk_5,4,-16,-6,1,0,0,rectangle_8,-16,-6,1,0,0,-1,-16,-6,1,0,0,0,4,4,5,1,trail3,trail3.jpg,trail3,trail3.jpg,613a3838d8479f4bc5723974,001,2021-12-05_20h17.51.294,jm_natural_scene_simialrity_2-12-2021,2021.2.3,Win32,59.97361161,613a3838d8479f4bc5723974,61ad71e11ddd29ccf7a27d5b,61ad72a97e8cd868b15d234a,,,,,,,,,,,,,,,,,,,,,,,,,,,,,,,,,,,,,,,,,,
,,,,,,,,,,,,65,92,1,0,0,response1disk_5,4,-8,-2,1,0,0,rectangle_8,-8,-2,1,0,0,-1,-8,-2,1,0,0,0,5,5,3,1,trail2,trail2.jpg,trail2,trail2.jpg,613a3838d8479f4bc5723974,001,2021-12-05_20h17.51.294,jm_natural_scene_simialrity_2-12-2021,2021.2.3,Win32,59.97361161,613a3838d8479f4bc5723974,61ad71e11ddd29ccf7a27d5b,61ad72a97e8cd868b15d234a,,,,,,,,,,,,,,,,,,,,,,,,,,,,,,,,,,,,,,,,,,
,,,,,,,,,,,,,,,,,,4,,,,,,,,,,,,,,,,,,,,,,,,,,,613a3838d8479f4bc5723974,001,2021-12-05_20h17.51.294,jm_natural_scene_simialrity_2-12-2021,2021.2.3,Win32,59.97361161,613a3838d8479f4bc5723974,61ad71e11ddd29ccf7a27d5b,61ad72a97e8cd868b15d234a,,,,space,1.8437,31,101,1,0,0,response1disk,1,-3,16,1,0,0,rectangle,-3,16,1,0,0,,-2,"[116,55,152,161,0,39,53,56,21,41]",-3,16,1,0,0,0,0,0,44,1,Purple,Purple.jpg,Purple,Purple.jpg,,
,,,,,,,,,,,,,,,,,,4,,,,,,,,,,,,,,,,,,,,,,,,,,,613a3838d8479f4bc5723974,001,2021-12-05_20h17.51.294,jm_natural_scene_simialrity_2-12-2021,2021.2.3,Win32,59.97361161,613a3838d8479f4bc5723974,61ad71e11ddd29ccf7a27d5b,61ad72a97e8cd868b15d234a,,,,,,65,84,1,0,0,response1disk,2.2829,-5,-5,1,0,0,rectangle,-5,-5,1,0,0,,3,"[116,55,152,161,0,39,53,56,21,41]",-5,-5,1,0,0,0,1,1,45,1,Yellow,Yellow.jpg,Red,Red.jpg,,
,,,,,,,,,,,,,,,,,,-4,,,,,,,,,,,,,,,,,,,,,,,,,,,613a3838d8479f4bc5723974,001,2021-12-05_20h17.51.294,jm_natural_scene_simialrity_2-12-2021,2021.2.3,Win32,59.97361161,613a3838d8479f4bc5723974,61ad71e11ddd29ccf7a27d5b,61ad72a97e8cd868b15d234a,,,,,,-45,84,1,0,0,response7disk,1.5349,-10,0,1,0,0,rectangle,-10,0,1,0,0,,-4,"[116,55,152,161,0,39,53,56,21,41]",-10,0,1,0,0,0,2,2,66,1,Turquiose,Turquiose.jpg,DarkGreen,DarkGreen.jpg,,
,,,,,,,,,,,,,,,,,,-3,,,,,,,,,,,,,,,,,,,,,,,,,,,613a3838d8479f4bc5723974,001,2021-12-05_20h17.51.294,jm_natural_scene_simialrity_2-12-2021,2021.2.3,Win32,59.97361161,613a3838d8479f4bc5723974,61ad71e11ddd29ccf7a27d5b,61ad72a97e8cd868b15d234a,,,,,,-102,41,1,0,0,response7disk,1.3665,6,-5,1,0,0,rectangle,6,-5,1,0,0,,3,"[116,55,152,161,0,39,53,56,21,41]",6,-5,1,0,0,0,3,3,74,1,Purple,Purple.jpg,Turquiose,Turquiose.jpg,,
,,,,,,,,,,,,,,,,,,-4,,,,,,,,,,,,,,,,,,,,,,,,,,,613a3838d8479f4bc5723974,001,2021-12-05_20h17.51.294,jm_natural_scene_simialrity_2-12-2021,2021.2.3,Win32,59.97361161,613a3838d8479f4bc5723974,61ad71e11ddd29ccf7a27d5b,61ad72a97e8cd868b15d234a,,,,,,-21,89,1,0,0,response7disk,0.9499,5,2,1,0,0,rectangle,5,2,1,0,0,,2,"[116,55,152,161,0,39,53,56,21,41]",5,2,1,0,0,0,4,4,49,1,LightBlue,LightBlue.jpg,Red,Red.jpg,,
,,,,,,,,,,,,,,,,,,-4,,,,,,,,,,,,,,,,,,,,,,,,,,,613a3838d8479f4bc5723974,001,2021-12-05_20h17.51.294,jm_natural_scene_simialrity_2-12-2021,2021.2.3,Win32,59.97361161,613a3838d8479f4bc5723974,61ad71e11ddd29ccf7a27d5b,61ad72a97e8cd868b15d234a,,,,,,-41,62,1,0,0,response7disk,1.0164,-8,-11,1,0,0,rectangle,-8,-11,1,0,0,,3,"[116,55,152,161,0,39,53,56,21,41]",-8,-11,1,0,0,0,5,5,54,1,DarkGreen,DarkGreen.jpg,Yellow,Yellow.jpg,,
,,,,,,,,,,,,,,,,,,-4,,,,,,,,,,,,,,,,,,,,,,,,,,,613a3838d8479f4bc5723974,001,2021-12-05_20h17.51.294,jm_natural_scene_simialrity_2-12-2021,2021.2.3,Win32,59.97361161,613a3838d8479f4bc5723974,61ad71e11ddd29ccf7a27d5b,61ad72a97e8cd868b15d234a,,,,,,-39,62,1,0,0,response7disk,1.0338,-2,-8,1,0,0,rectangle,-2,-8,1,0,0,,-4,"[116,55,152,161,0,39,53,56,21,41]",-2,-8,1,0,0,0,6,6,47,1,DarkGreen,DarkGreen.jpg,Red,Red.jpg,,
,,,,,,,,,,,,,,,,,,4,,,,,,,,,,,,,,,,,,,,,,,,,,,613a3838d8479f4bc5723974,001,2021-12-05_20h17.51.294,jm_natural_scene_simialrity_2-12-2021,2021.2.3,Win32,59.97361161,613a3838d8479f4bc5723974,61ad71e11ddd29ccf7a27d5b,61ad72a97e8cd868b15d234a,,,,,,46,89,1,0,0,response1disk,0.7996,4,7,1,0,0,rectangle,4,7,1,0,0,,2,"[116,55,152,161,0,39,53,56,21,41]",4,7,1,0,0,0,7,7,17,1,LightGreen,LightGreen.jpg,LightGreen,LightGreen.jpg,,
,,,,,,,,,,,,,,,,,,-4,,,,,,,,,,,,,,,,,,,,,,,,,,,613a3838d8479f4bc5723974,001,2021-12-05_20h17.51.294,jm_natural_scene_simialrity_2-12-2021,2021.2.3,Win32,59.97361161,613a3838d8479f4bc5723974,61ad71e11ddd29ccf7a27d5b,61ad72a97e8cd868b15d234a,,,,,,-38,72,1,0,0,response7disk,0.9336,-3,7,1,0,0,rectangle,-3,7,1,0,0,,1,"[116,55,152,161,0,39,53,56,21,41]",-3,7,1,0,0,0,8,8,48,1,Turquiose,Turquiose.jpg,Red,Red.jpg,,
,,,,,,,,,,,,,,,,,,1,,,,,,,,,,,,,,,,,,,,,,,,,,,613a3838d8479f4bc5723974,001,2021-12-05_20h17.51.294,jm_natural_scene_simialrity_2-12-2021,2021.2.3,Win32,59.97361161,613a3838d8479f4bc5723974,61ad71e11ddd29ccf7a27d5b,61ad72a97e8cd868b15d234a,,,,,,48,-109,1,0,0,response3disk,1.7166,3,9,1,0,0,rectangle,3,9,1,0,0,,-1,"[116,55,152,161,0,39,53,56,21,41]",3,9,1,0,0,0,9,9,21,1,LightGreen,LightGreen.jpg,DarkBlue,DarkBlue.jpg,,
,,,,,,,,,,,,,,,,,,-2,,,,,,,,,,,,,,,,,,,,,,,,,,,613a3838d8479f4bc5723974,001,2021-12-05_20h17.51.294,jm_natural_scene_simialrity_2-12-2021,2021.2.3,Win32,59.97361161,613a3838d8479f4bc5723974,61ad71e11ddd29ccf7a27d5b,61ad72a97e8cd868b15d234a,,,,,,-65,-29,1,0,0,response5disk,2.2662,7,-1,1,0,0,rectangle,7,-1,1,0,0,,-2,"[116,55,152,161,0,39,53,56,21,41]",7,-1,1,0,0,0,10,10,36,1,LightBlue,LightBlue.jpg,DarkBlue,DarkBlue.jpg,,
,,,,,,,,,,,,,,,,,,-4,,,,,,,,,,,,,,,,,,,,,,,,,,,613a3838d8479f4bc5723974,001,2021-12-05_20h17.51.294,jm_natural_scene_simialrity_2-12-2021,2021.2.3,Win32,59.97361161,613a3838d8479f4bc5723974,61ad71e11ddd29ccf7a27d5b,61ad72a97e8cd868b15d234a,,,,,,-46,84,1,0,0,response7disk,0.7999,-8,9,1,0,0,rectangle,-8,9,1,0,0,,-2,"[116,55,152,161,0,39,53,56,21,41]",-8,9,1,0,0,0,11,11,73,1,Pink,Pink.jpg,Turquiose,Turquiose.jpg,,
,,,,,,,,,,,,,,,,,,4,,,,,,,,,,,,,,,,,,,,,,,,,,,613a3838d8479f4bc5723974,001,2021-12-05_20h17.51.294,jm_natural_scene_simialrity_2-12-2021,2021.2.3,Win32,59.97361161,613a3838d8479f4bc5723974,61ad71e11ddd29ccf7a27d5b,61ad72a97e8cd868b15d234a,,,,,,31,78,1,0,0,response1disk,0.7006,-5,14,1,0,0,rectangle,-5,14,1,0,0,,3,"[116,55,152,161,0,39,53,56,21,41]",-5,14,1,0,0,0,12,12,39,1,DarkBlue,DarkBlue.jpg,DarkBlue,DarkBlue.jpg,,
,,,,,,,,,,,,,,,,,,-4,,,,,,,,,,,,,,,,,,,,,,,,,,,613a3838d8479f4bc5723974,001,2021-12-05_20h17.51.294,jm_natural_scene_simialrity_2-12-2021,2021.2.3,Win32,59.97361161,613a3838d8479f4bc5723974,61ad71e11ddd29ccf7a27d5b,61ad72a97e8cd868b15d234a,,,,,,-55,103,1,0,0,response7disk,1.3164,5,-1,1,0,0,rectangle,5,-1,1,0,0,,-3,"[116,55,152,161,0,39,53,56,21,41]",5,-1,1,0,0,0,13,13,40,1,DarkBlue,DarkBlue.jpg,Pink,Pink.jpg,,
,,,,,,,,,,,,,,,,,,4,,,,,,,,,,,,,,,,,,,,,,,,,,,613a3838d8479f4bc5723974,001,2021-12-05_20h17.51.294,jm_natural_scene_simialrity_2-12-2021,2021.2.3,Win32,59.97361161,613a3838d8479f4bc5723974,61ad71e11ddd29ccf7a27d5b,61ad72a97e8cd868b15d234a,,,,,,35,74,1,0,0,response1disk,1.0332,2,13,1,0,0,rectangle,2,13,1,0,0,,-1,"[116,55,152,161,0,39,53,56,21,41]",2,13,1,0,0,0,14,14,60,1,DarkGreen,DarkGreen.jpg,LightGreen,LightGreen.jpg,,
,,,,,,,,,,,,,,,,,,-4,,,,,,,,,,,,,,,,,,,,,,,,,,,613a3838d8479f4bc5723974,001,2021-12-05_20h17.51.294,jm_natural_scene_simialrity_2-12-2021,2021.2.3,Win32,59.97361161,613a3838d8479f4bc5723974,61ad71e11ddd29ccf7a27d5b,61ad72a97e8cd868b15d234a,,,,,,-42,90,1,0,0,response7disk,1.0332,-8,-5,1,0,0,rectangle,-8,-5,1,0,0,,-4,"[116,55,152,161,0,39,53,56,21,41]",-8,-5,1,0,0,0,15,15,43,1,Pink,Pink.jpg,Purple,Purple.jpg,,
,,,,,,,,,,,,,,,,,,-4,,,,,,,,,,,,,,,,,,,,,,,,,,,613a3838d8479f4bc5723974,001,2021-12-05_20h17.51.294,jm_natural_scene_simialrity_2-12-2021,2021.2.3,Win32,59.97361161,613a3838d8479f4bc5723974,61ad71e11ddd29ccf7a27d5b,61ad72a97e8cd868b15d234a,,,,,,-42,87,1,0,0,response7disk,1.683,-7,-3,1,0,0,rectangle,-7,-3,1,0,0,,-4,"[116,55,152,161,0,39,53,56,21,41]",-7,-3,1,0,0,0,16,16,79,1,Purple,Purple.jpg,DarkBlue,DarkBlue.jpg,,
,,,,,,,,,,,,,,,,,,2,,,,,,,,,,,,,,,,,,,,,,,,,,,613a3838d8479f4bc5723974,001,2021-12-05_20h17.51.294,jm_natural_scene_simialrity_2-12-2021,2021.2.3,Win32,59.97361161,613a3838d8479f4bc5723974,61ad71e11ddd29ccf7a27d5b,61ad72a97e8cd868b15d234a,,,,,,100,-35,1,0,0,response3disk,1.5498,0,5,1,0,0,rectangle,0,5,1,0,0,,-3,"[116,55,152,161,0,39,53,56,21,41]",0,5,1,0,0,0,17,17,72,1,DarkBlue,DarkBlue.jpg,Turquiose,Turquiose.jpg,,
,,,,,,,,,,,,,,,,,,-4,,,,,,,,,,,,,,,,,,,,,,,,,,,613a3838d8479f4bc5723974,001,2021-12-05_20h17.51.294,jm_natural_scene_simialrity_2-12-2021,2021.2.3,Win32,59.97361161,613a3838d8479f4bc5723974,61ad71e11ddd29ccf7a27d5b,61ad72a97e8cd868b15d234a,,,,,,-57,91,1,0,0,response7disk,1.7994,1,15,1,0,0,rectangle,1,15,1,0,0,,1,"[116,55,152,161,0,39,53,56,21,41]",1,15,1,0,0,0,18,18,63,1,DarkBlue,DarkBlue.jpg,LightGreen,LightGreen.jpg,,
,,,,,,,,,,,,,,,,,,-4,,,,,,,,,,,,,,,,,,,,,,,,,,,613a3838d8479f4bc5723974,001,2021-12-05_20h17.51.294,jm_natural_scene_simialrity_2-12-2021,2021.2.3,Win32,59.97361161,613a3838d8479f4bc5723974,61ad71e11ddd29ccf7a27d5b,61ad72a97e8cd868b15d234a,,,,,,-31,86,1,0,0,response7disk,0.6833,10,18,1,0,0,rectangle,10,18,1,0,0,,3,"[116,55,152,161,0,39,53,56,21,41]",10,18,1,0,0,0,19,19,57,1,DarkBlue,DarkBlue.jpg,Yellow,Yellow.jpg,,
,,,,,,,,,,,,,,,,,,-4,,,,,,,,,,,,,,,,,,,,,,,,,,,613a3838d8479f4bc5723974,001,2021-12-05_20h17.51.294,jm_natural_scene_simialrity_2-12-2021,2021.2.3,Win32,59.97361161,613a3838d8479f4bc5723974,61ad71e11ddd29ccf7a27d5b,61ad72a97e8cd868b15d234a,,,,,,-47,70,1,0,0,response7disk,2.5163,-1,16,1,0,0,rectangle,-63,-102,1,0,0,-1,-1,"[116,55,152,161,0,39,53,56,21,41]",-1,0,1,0,0,0,20,20,56,1,LightBlue,LightBlue.jpg,Yellow,Yellow.jpg,response5disk_3,rectangle
,,,,,,,,,,,,,,,,,,-4,,,,,,,,,,,,,,,,,,,,,,,,,,,613a3838d8479f4bc5723974,001,2021-12-05_20h17.51.294,jm_natural_scene_simialrity_2-12-2021,2021.2.3,Win32,59.97361161,613a3838d8479f4bc5723974,61ad71e11ddd29ccf7a27d5b,61ad72a97e8cd868b15d234a,,,,,,-42,69,1,0,0,response7disk,1.8665,-12,11,1,0,0,rectangle,-12,11,1,0,0,-1,3,"[116,55,152,161,0,39,53,56,21,41]",-12,11,1,0,0,0,21,21,16,1,Yellow,Yellow.jpg,Purple,Purple.jpg,,
,,,,,,,,,,,,,,,,,,-4,,,,,,,,,,,,,,,,,,,,,,,,,,,613a3838d8479f4bc5723974,001,2021-12-05_20h17.51.294,jm_natural_scene_simialrity_2-12-2021,2021.2.3,Win32,59.97361161,613a3838d8479f4bc5723974,61ad71e11ddd29ccf7a27d5b,61ad72a97e8cd868b15d234a,,,,,,-28,54,1,0,0,response7disk,1.4829,0,9,1,0,0,rectangle,0,9,1,0,0,-1,3,"[116,55,152,161,0,39,53,56,21,41]",0,9,1,0,0,0,22,22,53,1,LightGreen,LightGreen.jpg,Yellow,Yellow.jpg,,
,,,,,,,,,,,,,,,,,,-4,,,,,,,,,,,,,,,,,,,,,,,,,,,613a3838d8479f4bc5723974,001,2021-12-05_20h17.51.294,jm_natural_scene_simialrity_2-12-2021,2021.2.3,Win32,59.97361161,613a3838d8479f4bc5723974,61ad71e11ddd29ccf7a27d5b,61ad72a97e8cd868b15d234a,,,,,,-34,63,1,0,0,response7disk,0.8,-3,8,1,0,0,rectangle,-3,8,1,0,0,-1,-4,"[116,55,152,161,0,39,53,56,21,41]",-3,8,1,0,0,0,23,23,10,1,Yellow,Yellow.jpg,LightGreen,LightGreen.jpg,,
,,,,,,,,,,,,,,,,,,3,,,,,,,,,,,,,,,,,,,,,,,,,,,613a3838d8479f4bc5723974,001,2021-12-05_20h17.51.294,jm_natural_scene_simialrity_2-12-2021,2021.2.3,Win32,59.97361161,613a3838d8479f4bc5723974,61ad71e11ddd29ccf7a27d5b,61ad72a97e8cd868b15d234a,,,,,,83,53,1,0,0,response1disk,1.883,2,8,1,0,0,rectangle,2,8,1,0,0,-1,1,"[116,55,152,161,0,39,53,56,21,41]",2,8,1,0,0,0,24,24,58,1,Pink,Pink.jpg,Yellow,Yellow.jpg,,
,,,,,,,,,,,,,,,,,,4,,,,,,,,,,,,,,,,,,,,,,,,,,,613a3838d8479f4bc5723974,001,2021-12-05_20h17.51.294,jm_natural_scene_simialrity_2-12-2021,2021.2.3,Win32,59.97361161,613a3838d8479f4bc5723974,61ad71e11ddd29ccf7a27d5b,61ad72a97e8cd868b15d234a,,,,,,30,64,1,0,0,response1disk,0.6333,-7,4,1,0,0,rectangle,-7,4,1,0,0,-1,2,"[116,55,152,161,0,39,53,56,21,41]",-7,4,1,0,0,0,25,25,0,1,Red,Red.jpg,Red,Red.jpg,,
,,,,,,,,,,,,,,,,,,4,,,,,,,,,,,,,,,,,,,,,,,,,,,613a3838d8479f4bc5723974,001,2021-12-05_20h17.51.294,jm_natural_scene_simialrity_2-12-2021,2021.2.3,Win32,59.97361161,613a3838d8479f4bc5723974,61ad71e11ddd29ccf7a27d5b,61ad72a97e8cd868b15d234a,,,,,,24,55,1,0,0,response1disk,0.6167,-6,8,1,0,0,rectangle,-6,8,1,0,0,-1,-1,"[116,55,152,161,0,39,53,56,21,41]",-6,8,1,0,0,0,26,26,24,1,DarkGreen,DarkGreen.jpg,DarkGreen,DarkGreen.jpg,,
,,,,,,,,,,,,,,,,,,3,,,,,,,,,,,,,,,,,,,,,,,,,,,613a3838d8479f4bc5723974,001,2021-12-05_20h17.51.294,jm_natural_scene_simialrity_2-12-2021,2021.2.3,Win32,59.97361161,613a3838d8479f4bc5723974,61ad71e11ddd29ccf7a27d5b,61ad72a97e8cd868b15d234a,,,,,,79,55,1,0,0,response1disk,1.2997,-3,12,1,0,0,rectangle,-3,12,1,0,0,-1,-1,"[116,55,152,161,0,39,53,56,21,41]",-3,12,1,0,0,0,27,27,15,1,Yellow,Yellow.jpg,Pink,Pink.jpg,,
,,,,,,,,,,,,,,,,,,-4,,,,,,,,,,,,,,,,,,,,,,,,,,,613a3838d8479f4bc5723974,001,2021-12-05_20h17.51.294,jm_natural_scene_simialrity_2-12-2021,2021.2.3,Win32,59.97361161,613a3838d8479f4bc5723974,61ad71e11ddd29ccf7a27d5b,61ad72a97e8cd868b15d234a,,,,,,-52,73,1,0,0,response7disk,1.2508,12,6,1,0,0,rectangle,12,6,1,0,0,-1,-3,"[116,55,152,161,0,39,53,56,21,41]",12,6,1,0,0,0,28,28,3,1,Red,Red.jpg,DarkGreen,DarkGreen.jpg,,
,,,,,,,,,,,,,,,,,,1,,,,,,,,,,,,,,,,,,,,,,,,,,,613a3838d8479f4bc5723974,001,2021-12-05_20h17.51.294,jm_natural_scene_simialrity_2-12-2021,2021.2.3,Win32,59.97361161,613a3838d8479f4bc5723974,61ad71e11ddd29ccf7a27d5b,61ad72a97e8cd868b15d234a,,,,,,58,-104,1,0,0,response3disk,1.5831,1,-7,1,0,0,rectangle,1,-7,1,0,0,-1,2,"[116,55,152,161,0,39,53,56,21,41]",1,-7,1,0,0,0,29,29,32,1,Turquiose,Turquiose.jpg,DarkBlue,DarkBlue.jpg,,
,,,,,,,,,,,,,,,,,,2,,,,,,,,,,,,,,,,,,,,,,,,,,,613a3838d8479f4bc5723974,001,2021-12-05_20h17.51.294,jm_natural_scene_simialrity_2-12-2021,2021.2.3,Win32,59.97361161,613a3838d8479f4bc5723974,61ad71e11ddd29ccf7a27d5b,61ad72a97e8cd868b15d234a,,,,,,87,-52,1,0,0,response3disk,1.7665,0,8,1,0,0,rectangle,0,8,1,0,0,-1,-3,"[116,55,152,161,0,39,53,56,21,41]",0,8,1,0,0,0,30,30,31,1,Turquiose,Turquiose.jpg,LightBlue,LightBlue.jpg,,
,,,,,,,,,,,,,,,,,,4,,,,,,,,,,,,,,,,,,,,,,,,,,,613a3838d8479f4bc5723974,001,2021-12-05_20h17.51.294,jm_natural_scene_simialrity_2-12-2021,2021.2.3,Win32,59.97361161,613a3838d8479f4bc5723974,61ad71e11ddd29ccf7a27d5b,61ad72a97e8cd868b15d234a,,,,,,63,97,1,0,0,response1disk,1.8662,-10,-2,1,0,0,rectangle,-10,-2,1,0,0,-1,2,"[116,55,152,161,0,39,53,56,21,41]",-10,-2,1,0,0,0,31,31,7,1,Red,Red.jpg,Pink,Pink.jpg,,
,,,,,,,,,,,,,,,,,,-4,,,,,,,,,,,,,,,,,,,,,,,,,,,613a3838d8479f4bc5723974,001,2021-12-05_20h17.51.294,jm_natural_scene_simialrity_2-12-2021,2021.2.3,Win32,59.97361161,613a3838d8479f4bc5723974,61ad71e11ddd29ccf7a27d5b,61ad72a97e8cd868b15d234a,,,,,,-56,81,1,0,0,response7disk,0.9332,-6,-3,1,0,0,rectangle,-6,-3,1,0,0,-1,3,"[116,55,152,161,0,39,53,56,21,41]",-6,-3,1,0,0,0,32,32,22,1,LightGreen,LightGreen.jpg,Pink,Pink.jpg,,
,,,,,,,,,,,,,,,,,,-3,,,,,,,,,,,,,,,,,,,,,,,,,,,613a3838d8479f4bc5723974,001,2021-12-05_20h17.51.294,jm_natural_scene_simialrity_2-12-2021,2021.2.3,Win32,59.97361161,613a3838d8479f4bc5723974,61ad71e11ddd29ccf7a27d5b,61ad72a97e8cd868b15d234a,,,,,,-64,29,1,0,0,response7disk,1.0665,16,-9,1,0,0,rectangle,16,-9,1,0,0,-1,3,"[116,55,152,161,0,39,53,56,21,41]",16,-9,1,0,0,0,33,33,77,1,Purple,Purple.jpg,LightBlue,LightBlue.jpg,,
,,,,,,,,,,,,,,,,,,-4,,,,,,,,,,,,,,,,,,,,,,,,,,,613a3838d8479f4bc5723974,001,2021-12-05_20h17.51.294,jm_natural_scene_simialrity_2-12-2021,2021.2.3,Win32,59.97361161,613a3838d8479f4bc5723974,61ad71e11ddd29ccf7a27d5b,61ad72a97e8cd868b15d234a,,,,,,-37,62,1,0,0,response7disk,0.8165,-9,7,1,0,0,rectangle,-9,7,1,0,0,-1,2,"[116,55,152,161,0,39,53,56,21,41]",-9,7,1,0,0,0,34,34,12,1,Yellow,Yellow.jpg,Turquiose,Turquiose.jpg,,
,,,,,,,,,,,,,,,,,,4,,,,,,,,,,,,,,,,,,,,,,,,,,,613a3838d8479f4bc5723974,001,2021-12-05_20h17.51.294,jm_natural_scene_simialrity_2-12-2021,2021.2.3,Win32,59.97361161,613a3838d8479f4bc5723974,61ad71e11ddd29ccf7a27d5b,61ad72a97e8cd868b15d234a,,,,,,31,85,1,0,0,response1disk,0.6999,0,5,1,0,0,rectangle,0,5,1,0,0,-1,-3,"[116,55,152,161,0,39,53,56,21,41]",0,5,1,0,0,0,35,35,18,1,LightGreen,LightGreen.jpg,DarkGreen,DarkGreen.jpg,,
,,,,,,,,,,,,,,,,,,-4,,,,,,,,,,,,,,,,,,,,,,,,,,,613a3838d8479f4bc5723974,001,2021-12-05_20h17.51.294,jm_natural_scene_simialrity_2-12-2021,2021.2.3,Win32,59.97361161,613a3838d8479f4bc5723974,61ad71e11ddd29ccf7a27d5b,61ad72a97e8cd868b15d234a,,,,,,-31,87,1,0,0,response7disk,2.2666,-6,15,1,0,0,rectangle,-6,15,1,0,0,-1,2,"[116,55,152,161,0,39,53,56,21,41]",-6,15,1,0,0,0,36,36,20,1,LightGreen,LightGreen.jpg,LightBlue,LightBlue.jpg,,
,,,,,,,,,,,,,,,,,,-4,,,,,,,,,,,,,,,,,,,,,,,,,,,613a3838d8479f4bc5723974,001,2021-12-05_20h17.51.294,jm_natural_scene_simialrity_2-12-2021,2021.2.3,Win32,59.97361161,613a3838d8479f4bc5723974,61ad71e11ddd29ccf7a27d5b,61ad72a97e8cd868b15d234a,,,,,,-46,71,1,0,0,response7disk,1,-5,8,1,0,0,rectangle,-5,8,1,0,0,-1,1,"[116,55,152,161,0,39,53,56,21,41]",-5,8,1,0,0,0,37,37,8,1,Red,Red.jpg,Purple,Purple.jpg,,
,,,,,,,,,,,,,,,,,,-4,,,,,,,,,,,,,,,,,,,,,,,,,,,613a3838d8479f4bc5723974,001,2021-12-05_20h17.51.294,jm_natural_scene_simialrity_2-12-2021,2021.2.3,Win32,59.97361161,613a3838d8479f4bc5723974,61ad71e11ddd29ccf7a27d5b,61ad72a97e8cd868b15d234a,,,,,,-42,60,1,0,0,response7disk,0.7166,-7,-5,1,0,0,rectangle,-101,43,1,0,0,-3,-3,"[116,55,152,161,0,39,53,56,21,41]",-3,3,1,0,0,0,38,38,46,1,LightGreen,LightGreen.jpg,Red,Red.jpg,response7disk_3,rectangle
,,,,,,,,,,,,,,,,,,-4,,,,,,,,,,,,,,,,,,,,,,,,,,,613a3838d8479f4bc5723974,001,2021-12-05_20h17.51.294,jm_natural_scene_simialrity_2-12-2021,2021.2.3,Win32,59.97361161,613a3838d8479f4bc5723974,61ad71e11ddd29ccf7a27d5b,61ad72a97e8cd868b15d234a,,,,,,-29,100,1,0,0,response7disk,0.7332,6,2,1,0,0,rectangle,6,2,1,0,0,-3,-4,"[116,55,152,161,0,39,53,56,21,41]",6,2,1,0,0,0,39,39,29,1,DarkGreen,DarkGreen.jpg,Purple,Purple.jpg,,
,,,,,,,,,,,,,,,,,,-4,,,,,,,,,,,,,,,,,,,,,,,,,,,613a3838d8479f4bc5723974,001,2021-12-05_20h17.51.294,jm_natural_scene_simialrity_2-12-2021,2021.2.3,Win32,59.97361161,613a3838d8479f4bc5723974,61ad71e11ddd29ccf7a27d5b,61ad72a97e8cd868b15d234a,,,,,,-46,65,1,0,0,response7disk,0.7333,1,5,1,0,0,rectangle,54,-121,1,0,0,1,1,"[116,55,152,161,0,39,53,56,21,41]",9,-8,1,0,0,0,40,40,62,1,LightBlue,LightBlue.jpg,LightGreen,LightGreen.jpg,response3disk_3,rectangle
,,,,,,,,,,,,,,,,,,-4,,,,,,,,,,,,,,,,,,,,,,,,,,,613a3838d8479f4bc5723974,001,2021-12-05_20h17.51.294,jm_natural_scene_simialrity_2-12-2021,2021.2.3,Win32,59.97361161,613a3838d8479f4bc5723974,61ad71e11ddd29ccf7a27d5b,61ad72a97e8cd868b15d234a,,,,,,-23,75,1,0,0,response7disk,1.4999,12,-13,1,0,0,rectangle,12,-13,1,0,0,1,-4,"[116,55,152,161,0,39,53,56,21,41]",12,-13,1,0,0,0,41,41,70,1,Purple,Purple.jpg,DarkGreen,DarkGreen.jpg,,
,,,,,,,,,,,,,,,,,,-4,,,,,,,,,,,,,,,,,,,,,,,,,,,613a3838d8479f4bc5723974,001,2021-12-05_20h17.51.294,jm_natural_scene_simialrity_2-12-2021,2021.2.3,Win32,59.97361161,613a3838d8479f4bc5723974,61ad71e11ddd29ccf7a27d5b,61ad72a97e8cd868b15d234a,,,,,,-30,63,1,0,0,response7disk,2.566,-1,-1,1,0,0,rectangle,-1,-1,1,0,0,1,2,"[116,55,152,161,0,39,53,56,21,41]",-1,-1,1,0,0,0,42,42,4,1,Red,Red.jpg,Turquiose,Turquiose.jpg,,
,,,,,,,,,,,,,,,,,,4,,,,,,,,,,,,,,,,,,,,,,,,,,,613a3838d8479f4bc5723974,001,2021-12-05_20h17.51.294,jm_natural_scene_simialrity_2-12-2021,2021.2.3,Win32,59.97361161,613a3838d8479f4bc5723974,61ad71e11ddd29ccf7a27d5b,61ad72a97e8cd868b15d234a,,,,,,32,85,1,0,0,response1disk,0.5834,-3,15,1,0,0,rectangle,-3,15,1,0,0,1,-3,"[116,55,152,161,0,39,53,56,21,41]",-3,15,1,0,0,0,43,43,42,1,Pink,Pink.jpg,Pink,Pink.jpg,,
,,,,,,,,,,,,,,,,,,-4,,,,,,,,,,,,,,,,,,,,,,,,,,,613a3838d8479f4bc5723974,001,2021-12-05_20h17.51.294,jm_natural_scene_simialrity_2-12-2021,2021.2.3,Win32,59.97361161,613a3838d8479f4bc5723974,61ad71e11ddd29ccf7a27d5b,61ad72a97e8cd868b15d234a,,,,,,-40,86,1,0,0,response7disk,0.6832,-8,-10,1,0,0,rectangle,-8,-10,1,0,0,1,2,"[116,55,152,161,0,39,53,56,21,41]",-8,-10,1,0,0,0,44,44,65,1,Purple,Purple.jpg,LightGreen,LightGreen.jpg,,
,,,,,,,,,,,,,,,,,,-4,,,,,,,,,,,,,,,,,,,,,,,,,,,613a3838d8479f4bc5723974,001,2021-12-05_20h17.51.294,jm_natural_scene_simialrity_2-12-2021,2021.2.3,Win32,59.97361161,613a3838d8479f4bc5723974,61ad71e11ddd29ccf7a27d5b,61ad72a97e8cd868b15d234a,,,,,,-32,76,1,0,0,response7disk,0.8665,4,-8,1,0,0,rectangle,4,-8,1,0,0,1,-2,"[116,55,152,161,0,39,53,56,21,41]",4,-8,1,0,0,0,45,45,80,1,Purple,Purple.jpg,Pink,Pink.jpg,,
,,,,,,,,,,,,,,,,,,-4,,,,,,,,,,,,,,,,,,,,,,,,,,,613a3838d8479f4bc5723974,001,2021-12-05_20h17.51.294,jm_natural_scene_simialrity_2-12-2021,2021.2.3,Win32,59.97361161,613a3838d8479f4bc5723974,61ad71e11ddd29ccf7a27d5b,61ad72a97e8cd868b15d234a,,,,,,-21,66,1,0,0,response7disk,1.0998,0,-2,1,0,0,rectangle,0,-2,1,0,0,1,-2,"[116,55,152,161,0,39,53,56,21,41]",0,-2,1,0,0,0,46,46,26,1,DarkGreen,DarkGreen.jpg,LightBlue,LightBlue.jpg,,
,,,,,,,,,,,,,,,,,,-4,,,,,,,,,,,,,,,,,,,,,,,,,,,613a3838d8479f4bc5723974,001,2021-12-05_20h17.51.294,jm_natural_scene_simialrity_2-12-2021,2021.2.3,Win32,59.97361161,613a3838d8479f4bc5723974,61ad71e11ddd29ccf7a27d5b,61ad72a97e8cd868b15d234a,,,,,,-26,71,1,0,0,response7disk,0.8341,4,10,1,0,0,rectangle,4,10,1,0,0,1,-3,"[116,55,152,161,0,39,53,56,21,41]",4,10,1,0,0,0,47,47,5,1,Red,Red.jpg,LightBlue,LightBlue.jpg,,
,,,,,,,,,,,,,,,,,,-4,,,,,,,,,,,,,,,,,,,,,,,,,,,613a3838d8479f4bc5723974,001,2021-12-05_20h17.51.294,jm_natural_scene_simialrity_2-12-2021,2021.2.3,Win32,59.97361161,613a3838d8479f4bc5723974,61ad71e11ddd29ccf7a27d5b,61ad72a97e8cd868b15d234a,,,,,,-30,68,1,0,0,response7disk,0.8331,1,-2,1,0,0,rectangle,1,-2,1,0,0,1,-4,"[116,55,152,161,0,39,53,56,21,41]",1,-2,1,0,0,0,48,48,14,1,Yellow,Yellow.jpg,DarkBlue,DarkBlue.jpg,,
,,,,,,,,,,,,,,,,,,-2,,,,,,,,,,,,,,,,,,,,,,,,,,,613a3838d8479f4bc5723974,001,2021-12-05_20h17.51.294,jm_natural_scene_simialrity_2-12-2021,2021.2.3,Win32,59.97361161,613a3838d8479f4bc5723974,61ad71e11ddd29ccf7a27d5b,61ad72a97e8cd868b15d234a,,,,,,-104,-40,1,0,0,response5disk,1.3164,-5,2,1,0,0,rectangle,-5,2,1,0,0,1,-2,"[116,55,152,161,0,39,53,56,21,41]",-5,2,1,0,0,0,49,49,41,1,DarkBlue,DarkBlue.jpg,Purple,Purple.jpg,,
,,,,,,,,,,,,,,,,,,-4,,,,,,,,,,,,,,,,,,,,,,,,,,,613a3838d8479f4bc5723974,001,2021-12-05_20h17.51.294,jm_natural_scene_simialrity_2-12-2021,2021.2.3,Win32,59.97361161,613a3838d8479f4bc5723974,61ad71e11ddd29ccf7a27d5b,61ad72a97e8cd868b15d234a,,,,,,-49,75,1,0,0,response7disk,0.9165,-4,11,1,0,0,rectangle,-4,11,1,0,0,1,2,"[116,55,152,161,0,39,53,56,21,41]",-4,11,1,0,0,0,50,50,55,1,Turquiose,Turquiose.jpg,Yellow,Yellow.jpg,,
,,,,,,,,,,,,,,,,,,-4,,,,,,,,,,,,,,,,,,,,,,,,,,,613a3838d8479f4bc5723974,001,2021-12-05_20h17.51.294,jm_natural_scene_simialrity_2-12-2021,2021.2.3,Win32,59.97361161,613a3838d8479f4bc5723974,61ad71e11ddd29ccf7a27d5b,61ad72a97e8cd868b15d234a,,,,,,-40,63,1,0,0,response7disk,0.7165,2,-5,1,0,0,rectangle,2,-5,1,0,0,1,-3,"[116,55,152,161,0,39,53,56,21,41]",2,-5,1,0,0,0,51,51,61,1,Turquiose,Turquiose.jpg,LightGreen,LightGreen.jpg,,
,,,,,,,,,,,,,,,,,,1,,,,,,,,,,,,,,,,,,,,,,,,,,,613a3838d8479f4bc5723974,001,2021-12-05_20h17.51.294,jm_natural_scene_simialrity_2-12-2021,2021.2.3,Win32,59.97361161,613a3838d8479f4bc5723974,61ad71e11ddd29ccf7a27d5b,61ad72a97e8cd868b15d234a,,,,,,59,-78,1,0,0,response3disk,1.2164,14,12,1,0,0,rectangle,-58,90,1,0,0,-4,-4,"[116,55,152,161,0,39,53,56,21,41]",-10,13,1,0,0,0,52,52,75,1,DarkBlue,DarkBlue.jpg,LightBlue,LightBlue.jpg,response7disk_3,rectangle
,,,,,,,,,,,,,,,,,,-4,,,,,,,,,,,,,,,,,,,,,,,,,,,613a3838d8479f4bc5723974,001,2021-12-05_20h17.51.294,jm_natural_scene_simialrity_2-12-2021,2021.2.3,Win32,59.97361161,613a3838d8479f4bc5723974,61ad71e11ddd29ccf7a27d5b,61ad72a97e8cd868b15d234a,,,,,,-33,88,1,0,0,response7disk,1.0171,11,-1,1,0,0,rectangle,11,-1,1,0,0,-4,-4,"[116,55,152,161,0,39,53,56,21,41]",11,-1,1,0,0,0,53,53,69,1,Pink,Pink.jpg,DarkGreen,DarkGreen.jpg,,
,,,,,,,,,,,,,,,,,,-4,,,,,,,,,,,,,,,,,,,,,,,,,,,613a3838d8479f4bc5723974,001,2021-12-05_20h17.51.294,jm_natural_scene_simialrity_2-12-2021,2021.2.3,Win32,59.97361161,613a3838d8479f4bc5723974,61ad71e11ddd29ccf7a27d5b,61ad72a97e8cd868b15d234a,,,,,,-30,82,1,0,0,response7disk,1.3328,6,11,1,0,0,rectangle,-36,100,1,0,0,-4,-4,"[116,55,152,161,0,39,53,56,21,41]",-6,-11,1,0,0,0,54,54,34,1,Turquiose,Turquiose.jpg,Purple,Purple.jpg,response7disk_3,rectangle
,,,,,,,,,,,,,,,,,,-4,,,,,,,,,,,,,,,,,,,,,,,,,,,613a3838d8479f4bc5723974,001,2021-12-05_20h17.51.294,jm_natural_scene_simialrity_2-12-2021,2021.2.3,Win32,59.97361161,613a3838d8479f4bc5723974,61ad71e11ddd29ccf7a27d5b,61ad72a97e8cd868b15d234a,,,,,,-38,91,1,0,0,response7disk,0.6509,7,5,1,0,0,rectangle,-72,-46,1,0,0,-4,-2,"[116,55,152,161,0,39,53,56,21,41]",-17,2,1,0,0,0,55,55,11,1,Yellow,Yellow.jpg,DarkGreen,DarkGreen.jpg,response5disk_3,rectangle
,,,,,,,,,,,,,,,,,,-4,,,,,,,,,,,,,,,,,,,,,,,,,,,613a3838d8479f4bc5723974,001,2021-12-05_20h17.51.294,jm_natural_scene_simialrity_2-12-2021,2021.2.3,Win32,59.97361161,613a3838d8479f4bc5723974,61ad71e11ddd29ccf7a27d5b,61ad72a97e8cd868b15d234a,,,,,,-47,64,1,0,0,response7disk,0.7665,-12,13,1,0,0,rectangle,-12,13,1,0,0,-4,-1,"[116,55,152,161,0,39,53,56,21,41]",-12,13,1,0,0,0,56,56,78,1,Pink,Pink.jpg,DarkBlue,DarkBlue.jpg,,
,,,,,,,,,,,,,,,,,,-4,,,,,,,,,,,,,,,,,,,,,,,,,,,613a3838d8479f4bc5723974,001,2021-12-05_20h17.51.294,jm_natural_scene_simialrity_2-12-2021,2021.2.3,Win32,59.97361161,613a3838d8479f4bc5723974,61ad71e11ddd29ccf7a27d5b,61ad72a97e8cd868b15d234a,,,,,,-48,89,1,0,0,response7disk,0.6833,-1,4,1,0,0,rectangle,-1,4,1,0,0,-4,2,"[116,55,152,161,0,39,53,56,21,41]",-1,4,1,0,0,0,57,57,37,1,LightBlue,LightBlue.jpg,Pink,Pink.jpg,,
,,,,,,,,,,,,,,,,,,4,,,,,,,,,,,,,,,,,,,,,,,,,,,613a3838d8479f4bc5723974,001,2021-12-05_20h17.51.294,jm_natural_scene_simialrity_2-12-2021,2021.2.3,Win32,59.97361161,613a3838d8479f4bc5723974,61ad71e11ddd29ccf7a27d5b,61ad72a97e8cd868b15d234a,,,,,,32,73,1,0,0,response1disk,0.8331,12,1,1,0,0,rectangle,12,1,1,0,0,-4,-2,"[116,55,152,161,0,39,53,56,21,41]",12,1,1,0,0,0,58,58,51,1,Pink,Pink.jpg,Red,Red.jpg,,
,,,,,,,,,,,,,,,,,,1,,,,,,,,,,,,,,,,,,,,,,,,,,,613a3838d8479f4bc5723974,001,2021-12-05_20h17.51.294,jm_natural_scene_simialrity_2-12-2021,2021.2.3,Win32,59.97361161,613a3838d8479f4bc5723974,61ad71e11ddd29ccf7a27d5b,61ad72a97e8cd868b15d234a,,,,,,37,-90,1,0,0,response3disk,2.4671,2,-3,1,0,0,rectangle,2,-3,1,0,0,-4,-3,"[116,55,152,161,0,39,53,56,21,41]",2,-3,1,0,0,0,59,59,52,1,Purple,Purple.jpg,Red,Red.jpg,,
,,,,,,,,,,,,,,,,,,2,,,,,,,,,,,,,,,,,,,,,,,,,,,613a3838d8479f4bc5723974,001,2021-12-05_20h17.51.294,jm_natural_scene_simialrity_2-12-2021,2021.2.3,Win32,59.97361161,613a3838d8479f4bc5723974,61ad71e11ddd29ccf7a27d5b,61ad72a97e8cd868b15d234a,,,,,,92,-46,1,0,0,response3disk,2.2669,-9,9,1,0,0,rectangle,-9,9,1,0,0,-4,3,"[116,55,152,161,0,39,53,56,21,41]",-9,9,1,0,0,0,60,60,27,1,DarkGreen,DarkGreen.jpg,DarkBlue,DarkBlue.jpg,,
,,,,,,,,,,,,,,,,,,-1,,,,,,,,,,,,,,,,,,,,,,,,,,,613a3838d8479f4bc5723974,001,2021-12-05_20h17.51.294,jm_natural_scene_simialrity_2-12-2021,2021.2.3,Win32,59.97361161,613a3838d8479f4bc5723974,61ad71e11ddd29ccf7a27d5b,61ad72a97e8cd868b15d234a,,,,,,-35,-85,1,0,0,response5disk,1.7997,-1,-10,1,0,0,rectangle,-1,-10,1,0,0,-4,-1,"[116,55,152,161,0,39,53,56,21,41]",-1,-10,1,0,0,0,61,61,38,1,LightBlue,LightBlue.jpg,Purple,Purple.jpg,,
,,,,,,,,,,,,,,,,,,2,,,,,,,,,,,,,,,,,,,,,,,,,,,613a3838d8479f4bc5723974,001,2021-12-05_20h17.51.294,jm_natural_scene_simialrity_2-12-2021,2021.2.3,Win32,59.97361161,613a3838d8479f4bc5723974,61ad71e11ddd29ccf7a27d5b,61ad72a97e8cd868b15d234a,,,,,,97,-39,1,0,0,response3disk,1.4831,-11,-1,1,0,0,rectangle,-11,-1,1,0,0,-4,-2,"[116,55,152,161,0,39,53,56,21,41]",-11,-1,1,0,0,0,62,62,71,1,LightBlue,LightBlue.jpg,Turquiose,Turquiose.jpg,,
,,,,,,,,,,,,,,,,,,2,,,,,,,,,,,,,,,,,,,,,,,,,,,613a3838d8479f4bc5723974,001,2021-12-05_20h17.51.294,jm_natural_scene_simialrity_2-12-2021,2021.2.3,Win32,59.97361161,613a3838d8479f4bc5723974,61ad71e11ddd29ccf7a27d5b,61ad72a97e8cd868b15d234a,,,,,,76,-54,1,0,0,response3disk,1.1998,17,3,1,0,0,rectangle,17,3,1,0,0,-4,-3,"[116,55,152,161,0,39,53,56,21,41]",17,3,1,0,0,0,63,63,68,1,DarkBlue,DarkBlue.jpg,DarkGreen,DarkGreen.jpg,,
,,,,,,,,,,,,,,,,,,-4,,,,,,,,,,,,,,,,,,,,,,,,,,,613a3838d8479f4bc5723974,001,2021-12-05_20h17.51.294,jm_natural_scene_simialrity_2-12-2021,2021.2.3,Win32,59.97361161,613a3838d8479f4bc5723974,61ad71e11ddd29ccf7a27d5b,61ad72a97e8cd868b15d234a,,,,,,-51,70,1,0,0,response7disk,1.0164,-1,10,1,0,0,rectangle,-1,10,1,0,0,-4,2,"[116,55,152,161,0,39,53,56,21,41]",-1,10,1,0,0,0,64,64,23,1,LightGreen,LightGreen.jpg,Purple,Purple.jpg,,
,,,,,,,,,,,,,,,,,,-4,,,,,,,,,,,,,,,,,,,,,,,,,,,613a3838d8479f4bc5723974,001,2021-12-05_20h17.51.294,jm_natural_scene_simialrity_2-12-2021,2021.2.3,Win32,59.97361161,613a3838d8479f4bc5723974,61ad71e11ddd29ccf7a27d5b,61ad72a97e8cd868b15d234a,,,,,,-33,73,1,0,0,response7disk,0.7499,3,17,1,0,0,rectangle,3,17,1,0,0,-4,-1,"[116,55,152,161,0,39,53,56,21,41]",3,17,1,0,0,0,65,65,13,1,Yellow,Yellow.jpg,LightBlue,LightBlue.jpg,,
,,,,,,,,,,,,,,,,,,-4,,,,,,,,,,,,,,,,,,,,,,,,,,,613a3838d8479f4bc5723974,001,2021-12-05_20h17.51.294,jm_natural_scene_simialrity_2-12-2021,2021.2.3,Win32,59.97361161,613a3838d8479f4bc5723974,61ad71e11ddd29ccf7a27d5b,61ad72a97e8cd868b15d234a,,,,,,-38,90,1,0,0,response7disk,0.65,13,-2,1,0,0,rectangle,13,-2,1,0,0,-4,-1,"[116,55,152,161,0,39,53,56,21,41]",13,-2,1,0,0,0,66,66,59,1,Purple,Purple.jpg,Yellow,Yellow.jpg,,
,,,,,,,,,,,,,,,,,,-4,,,,,,,,,,,,,,,,,,,,,,,,,,,613a3838d8479f4bc5723974,001,2021-12-05_20h17.51.294,jm_natural_scene_simialrity_2-12-2021,2021.2.3,Win32,59.97361161,613a3838d8479f4bc5723974,61ad71e11ddd29ccf7a27d5b,61ad72a97e8cd868b15d234a,,,,,,-37,64,1,0,0,response7disk,0.7499,7,-10,1,0,0,rectangle,7,-10,1,0,0,-4,-2,"[116,55,152,161,0,39,53,56,21,41]",7,-10,1,0,0,0,67,67,19,1,LightGreen,LightGreen.jpg,Turquiose,Turquiose.jpg,,
,,,,,,,,,,,,,,,,,,-4,,,,,,,,,,,,,,,,,,,,,,,,,,,613a3838d8479f4bc5723974,001,2021-12-05_20h17.51.294,jm_natural_scene_simialrity_2-12-2021,2021.2.3,Win32,59.97361161,613a3838d8479f4bc5723974,61ad71e11ddd29ccf7a27d5b,61ad72a97e8cd868b15d234a,,,,,,-33,86,1,0,0,response7disk,7.8146,24,-12,1,0,0,rectangle,24,-12,1,0,0,-4,3,"[116,55,152,161,0,39,53,56,21,41]",24,-12,1,0,0,0,68,68,67,1,LightBlue,LightBlue.jpg,DarkGreen,DarkGreen.jpg,,
,,,,,,,,,,,,,,,,,,-4,,,,,,,,,,,,,,,,,,,,,,,,,,,613a3838d8479f4bc5723974,001,2021-12-05_20h17.51.294,jm_natural_scene_simialrity_2-12-2021,2021.2.3,Win32,59.97361161,613a3838d8479f4bc5723974,61ad71e11ddd29ccf7a27d5b,61ad72a97e8cd868b15d234a,,,,,,-34,66,1,0,0,response7disk,0.8164,-8,9,1,0,0,rectangle,-8,9,1,0,0,-4,-3,"[116,55,152,161,0,39,53,56,21,41]",-8,9,1,0,0,0,69,69,50,1,DarkBlue,DarkBlue.jpg,Red,Red.jpg,,
,,,,,,,,,,,,,,,,,,-1,,,,,,,,,,,,,,,,,,,,,,,,,,,613a3838d8479f4bc5723974,001,2021-12-05_20h17.51.294,jm_natural_scene_simialrity_2-12-2021,2021.2.3,Win32,59.97361161,613a3838d8479f4bc5723974,61ad71e11ddd29ccf7a27d5b,61ad72a97e8cd868b15d234a,,,,,,-42,-89,1,0,0,response5disk,1.1832,9,13,1,0,0,rectangle,9,13,1,0,0,-4,-3,"[116,55,152,161,0,39,53,56,21,41]",9,13,1,0,0,0,70,70,25,1,DarkGreen,DarkGreen.jpg,Turquiose,Turquiose.jpg,,
,,,,,,,,,,,,,,,,,,-4,,,,,,,,,,,,,,,,,,,,,,,,,,,613a3838d8479f4bc5723974,001,2021-12-05_20h17.51.294,jm_natural_scene_simialrity_2-12-2021,2021.2.3,Win32,59.97361161,613a3838d8479f4bc5723974,61ad71e11ddd29ccf7a27d5b,61ad72a97e8cd868b15d234a,,,,,,-50,72,1,0,0,response7disk,0.9504,0,-5,1,0,0,rectangle,0,-5,1,0,0,-4,-1,"[116,55,152,161,0,39,53,56,21,41]",0,-5,1,0,0,0,71,71,28,1,DarkGreen,DarkGreen.jpg,Pink,Pink.jpg,,
,,,,,,,,,,,,,,,,,,4,,,,,,,,,,,,,,,,,,,,,,,,,,,613a3838d8479f4bc5723974,001,2021-12-05_20h17.51.294,jm_natural_scene_simialrity_2-12-2021,2021.2.3,Win32,59.97361161,613a3838d8479f4bc5723974,61ad71e11ddd29ccf7a27d5b,61ad72a97e8cd868b15d234a,,,,,,49,86,1,0,0,response1disk,0.7666,2,-10,1,0,0,rectangle,2,-10,1,0,0,-4,-3,"[116,55,152,161,0,39,53,56,21,41]",2,-10,1,0,0,0,72,72,9,1,Yellow,Yellow.jpg,Yellow,Yellow.jpg,,
,,,,,,,,,,,,,,,,,,-3,,,,,,,,,,,,,,,,,,,,,,,,,,,613a3838d8479f4bc5723974,001,2021-12-05_20h17.51.294,jm_natural_scene_simialrity_2-12-2021,2021.2.3,Win32,59.97361161,613a3838d8479f4bc5723974,61ad71e11ddd29ccf7a27d5b,61ad72a97e8cd868b15d234a,,,,,,-73,38,1,0,0,response7disk,2.4326,-9,-2,1,0,0,rectangle,-9,-2,1,0,0,-4,3,"[116,55,152,161,0,39,53,56,21,41]",-9,-2,1,0,0,0,73,73,76,1,Pink,Pink.jpg,LightBlue,LightBlue.jpg,,
,,,,,,,,,,,,,,,,,,-4,,,,,,,,,,,,,,,,,,,,,,,,,,,613a3838d8479f4bc5723974,001,2021-12-05_20h17.51.294,jm_natural_scene_simialrity_2-12-2021,2021.2.3,Win32,59.97361161,613a3838d8479f4bc5723974,61ad71e11ddd29ccf7a27d5b,61ad72a97e8cd868b15d234a,,,,,,-50,102,1,0,0,response7disk,0.9009,-8,12,1,0,0,rectangle,-8,12,1,0,0,-4,2,"[116,55,152,161,0,39,53,56,21,41]",-8,12,1,0,0,0,74,74,33,1,Turquiose,Turquiose.jpg,Pink,Pink.jpg,,
,,,,,,,,,,,,,,,,,,-4,,,,,,,,,,,,,,,,,,,,,,,,,,,613a3838d8479f4bc5723974,001,2021-12-05_20h17.51.294,jm_natural_scene_simialrity_2-12-2021,2021.2.3,Win32,59.97361161,613a3838d8479f4bc5723974,61ad71e11ddd29ccf7a27d5b,61ad72a97e8cd868b15d234a,,,,,,-41,71,1,0,0,response7disk,0.7167,8,-16,1,0,0,rectangle,8,-16,1,0,0,-4,-2,"[116,55,152,161,0,39,53,56,21,41]",8,-16,1,0,0,0,75,75,6,1,Red,Red.jpg,DarkBlue,DarkBlue.jpg,,
,,,,,,,,,,,,,,,,,,-4,,,,,,,,,,,,,,,,,,,,,,,,,,,613a3838d8479f4bc5723974,001,2021-12-05_20h17.51.294,jm_natural_scene_simialrity_2-12-2021,2021.2.3,Win32,59.97361161,613a3838d8479f4bc5723974,61ad71e11ddd29ccf7a27d5b,61ad72a97e8cd868b15d234a,,,,,,-31,96,1,0,0,response7disk,0.5998,-3,14,1,0,0,rectangle,-3,14,1,0,0,-4,-3,"[116,55,152,161,0,39,53,56,21,41]",-3,14,1,0,0,0,76,76,64,1,Pink,Pink.jpg,LightGreen,LightGreen.jpg,,
,,,,,,,,,,,,,,,,,,3,,,,,,,,,,,,,,,,,,,,,,,,,,,613a3838d8479f4bc5723974,001,2021-12-05_20h17.51.294,jm_natural_scene_simialrity_2-12-2021,2021.2.3,Win32,59.97361161,613a3838d8479f4bc5723974,61ad71e11ddd29ccf7a27d5b,61ad72a97e8cd868b15d234a,,,,,,90,54,1,0,0,response1disk,1.0164,10,-3,1,0,0,rectangle,10,-3,1,0,0,-4,-3,"[116,55,152,161,0,39,53,56,21,41]",10,-3,1,0,0,0,77,77,1,1,Red,Red.jpg,Yellow,Yellow.jpg,,
,,,,,,,,,,,,,,,,,,-4,,,,,,,,,,,,,,,,,,,,,,,,,,,613a3838d8479f4bc5723974,001,2021-12-05_20h17.51.294,jm_natural_scene_simialrity_2-12-2021,2021.2.3,Win32,59.97361161,613a3838d8479f4bc5723974,61ad71e11ddd29ccf7a27d5b,61ad72a97e8cd868b15d234a,,,,,,-42,65,1,0,0,response7disk,1.1663,-5,12,1,0,0,rectangle,-5,12,1,0,0,-4,1,"[116,55,152,161,0,39,53,56,21,41]",-5,12,1,0,0,0,78,78,2,1,Red,Red.jpg,LightGreen,LightGreen.jpg,,
,,,,,,,,,,,,,,,,,,4,,,,,,,,,,,,,,,,,,,,,,,,,,,613a3838d8479f4bc5723974,001,2021-12-05_20h17.51.294,jm_natural_scene_simialrity_2-12-2021,2021.2.3,Win32,59.97361161,613a3838d8479f4bc5723974,61ad71e11ddd29ccf7a27d5b,61ad72a97e8cd868b15d234a,,,,,,47,119,1,0,0,response1disk,0.65,-1,17,1,0,0,rectangle,-1,17,1,0,0,-4,2,"[116,55,152,161,0,39,53,56,21,41]",-1,17,1,0,0,0,79,79,35,1,LightBlue,LightBlue.jpg,LightBlue,LightBlue.jpg,,
,,,,,,,,,,,,,,,,,,4,,,,,,,,,,,,,,,,,,,,,,,,,,,613a3838d8479f4bc5723974,001,2021-12-05_20h17.51.294,jm_natural_scene_simialrity_2-12-2021,2021.2.3,Win32,59.97361161,613a3838d8479f4bc5723974,61ad71e11ddd29ccf7a27d5b,61ad72a97e8cd868b15d234a,,,,,,46,111,1,0,0,response1disk,0.5832,3,21,1,0,0,rectangle,3,21,1,0,0,-4,-4,"[116,55,152,161,0,39,53,56,21,41]",3,21,1,0,0,0,80,80,30,1,Turquiose,Turquiose.jpg,Turquiose,Turquiose.jpg,,
,,,,,,,,,,,,,,,,,,-1,,,,,,,,,,,,,,,,,,,,,,,,,,,613a3838d8479f4bc5723974,001,2021-12-05_20h17.51.294,jm_natural_scene_simialrity_2-12-2021,2021.2.3,Win32,59.97361161,613a3838d8479f4bc5723974,61ad71e11ddd29ccf7a27d5b,61ad72a97e8cd868b15d234a,,,,,,-32,-73,1,0,0,response5disk,1.0165,5,-8,1,0,0,rectangle,5,-8,1,0,0,-4,-4,"[116,55,152,161,0,39,53,56,21,41]",5,-8,1,0,0,1,0,81,41,1,DarkBlue,DarkBlue.jpg,Purple,Purple.jpg,,
,,,,,,,,,,,,,,,,,,1,,,,,,,,,,,,,,,,,,,,,,,,,,,613a3838d8479f4bc5723974,001,2021-12-05_20h17.51.294,jm_natural_scene_simialrity_2-12-2021,2021.2.3,Win32,59.97361161,613a3838d8479f4bc5723974,61ad71e11ddd29ccf7a27d5b,61ad72a97e8cd868b15d234a,,,,,,45,-102,1,0,0,response3disk,1.3996,-2,-1,1,0,0,rectangle,-2,-1,1,0,0,-4,-2,"[116,55,152,161,0,39,53,56,21,41]",-2,-1,1,0,0,1,1,82,79,1,Purple,Purple.jpg,DarkBlue,DarkBlue.jpg,,
,,,,,,,,,,,,,,,,,,-4,,,,,,,,,,,,,,,,,,,,,,,,,,,613a3838d8479f4bc5723974,001,2021-12-05_20h17.51.294,jm_natural_scene_simialrity_2-12-2021,2021.2.3,Win32,59.97361161,613a3838d8479f4bc5723974,61ad71e11ddd29ccf7a27d5b,61ad72a97e8cd868b15d234a,,,,,,-54,95,1,0,0,response7disk,0.9831,7,14,1,0,0,rectangle,7,14,1,0,0,-4,-2,"[116,55,152,161,0,39,53,56,21,41]",7,14,1,0,0,1,2,83,80,1,Purple,Purple.jpg,Pink,Pink.jpg,,
,,,,,,,,,,,,,,,,,,-4,,,,,,,,,,,,,,,,,,,,,,,,,,,613a3838d8479f4bc5723974,001,2021-12-05_20h17.51.294,jm_natural_scene_simialrity_2-12-2021,2021.2.3,Win32,59.97361161,613a3838d8479f4bc5723974,61ad71e11ddd29ccf7a27d5b,61ad72a97e8cd868b15d234a,,,,,,-35,93,1,0,0,response7disk,0.5832,1,19,1,0,0,rectangle,1,19,1,0,0,-4,-2,"[116,55,152,161,0,39,53,56,21,41]",1,19,1,0,0,1,3,84,55,1,Turquiose,Turquiose.jpg,Yellow,Yellow.jpg,,
,,,,,,,,,,,,,,,,,,4,,,,,,,,,,,,,,,,,,,,,,,,,,,613a3838d8479f4bc5723974,001,2021-12-05_20h17.51.294,jm_natural_scene_simialrity_2-12-2021,2021.2.3,Win32,59.97361161,613a3838d8479f4bc5723974,61ad71e11ddd29ccf7a27d5b,61ad72a97e8cd868b15d234a,,,,,,39,96,1,0,0,response1disk,0.7165,5,21,1,0,0,rectangle,5,21,1,0,0,-4,-3,"[116,55,152,161,0,39,53,56,21,41]",5,21,1,0,0,1,4,85,35,1,LightBlue,LightBlue.jpg,LightBlue,LightBlue.jpg,,
,,,,,,,,,,,,,,,,,,-4,,,,,,,,,,,,,,,,,,,,,,,,,,,613a3838d8479f4bc5723974,001,2021-12-05_20h17.51.294,jm_natural_scene_simialrity_2-12-2021,2021.2.3,Win32,59.97361161,613a3838d8479f4bc5723974,61ad71e11ddd29ccf7a27d5b,61ad72a97e8cd868b15d234a,,,,,,-37,83,1,0,0,response7disk,0.6499,5,9,1,0,0,rectangle,5,9,1,0,0,-4,3,"[116,55,152,161,0,39,53,56,21,41]",5,9,1,0,0,1,5,86,54,1,DarkGreen,DarkGreen.jpg,Yellow,Yellow.jpg,,
,,,,,,,,,,,,,,,,,,4,,,,,,,,,,,,,,,,,,,,,,,,,,,613a3838d8479f4bc5723974,001,2021-12-05_20h17.51.294,jm_natural_scene_simialrity_2-12-2021,2021.2.3,Win32,59.97361161,613a3838d8479f4bc5723974,61ad71e11ddd29ccf7a27d5b,61ad72a97e8cd868b15d234a,,,,,,40,84,1,0,0,response1disk,0.65,17,16,1,0,0,rectangle,17,16,1,0,0,-4,1,"[116,55,152,161,0,39,53,56,21,41]",17,16,1,0,0,1,6,87,7,1,Red,Red.jpg,Pink,Pink.jpg,,
,,,,,,,,,,,,,,,,,,4,,,,,,,,,,,,,,,,,,,,,,,,,,,613a3838d8479f4bc5723974,001,2021-12-05_20h17.51.294,jm_natural_scene_simialrity_2-12-2021,2021.2.3,Win32,59.97361161,613a3838d8479f4bc5723974,61ad71e11ddd29ccf7a27d5b,61ad72a97e8cd868b15d234a,,,,,,39,109,1,0,0,response1disk,0.6166,11,6,1,0,0,rectangle,11,6,1,0,0,-4,1,"[116,55,152,161,0,39,53,56,21,41]",11,6,1,0,0,1,7,88,30,1,Turquiose,Turquiose.jpg,Turquiose,Turquiose.jpg,,
,,,,,,,,,,,,,,,,,,-4,,,,,,,,,,,,,,,,,,,,,,,,,,,613a3838d8479f4bc5723974,001,2021-12-05_20h17.51.294,jm_natural_scene_simialrity_2-12-2021,2021.2.3,Win32,59.97361161,613a3838d8479f4bc5723974,61ad71e11ddd29ccf7a27d5b,61ad72a97e8cd868b15d234a,,,,,,-40,80,1,0,0,response7disk,0.9331,-15,3,1,0,0,rectangle,-15,3,1,0,0,-4,-3,"[116,55,152,161,0,39,53,56,21,41]",-15,3,1,0,0,1,8,89,14,1,Yellow,Yellow.jpg,DarkBlue,DarkBlue.jpg,,
,,,,,,,,,,,,,,,,,,1,,,,,,,,,,,,,,,,,,,,,,,,,,,613a3838d8479f4bc5723974,001,2021-12-05_20h17.51.294,jm_natural_scene_simialrity_2-12-2021,2021.2.3,Win32,59.97361161,613a3838d8479f4bc5723974,61ad71e11ddd29ccf7a27d5b,61ad72a97e8cd868b15d234a,,,,,,52,-93,1,0,0,response3disk,1.0998,-2,-16,1,0,0,rectangle,-2,-16,1,0,0,-4,-1,"[116,55,152,161,0,39,53,56,21,41]",-2,-16,1,0,0,1,9,90,77,1,Purple,Purple.jpg,LightBlue,LightBlue.jpg,,
,,,,,,,,,,,,,,,,,,4,,,,,,,,,,,,,,,,,,,,,,,,,,,613a3838d8479f4bc5723974,001,2021-12-05_20h17.51.294,jm_natural_scene_simialrity_2-12-2021,2021.2.3,Win32,59.97361161,613a3838d8479f4bc5723974,61ad71e11ddd29ccf7a27d5b,61ad72a97e8cd868b15d234a,,,,,,54,78,1,0,0,response1disk,1.3165,21,10,1,0,0,rectangle,21,10,1,0,0,-4,-4,"[116,55,152,161,0,39,53,56,21,41]",21,10,1,0,0,1,10,91,15,1,Yellow,Yellow.jpg,Pink,Pink.jpg,,
,,,,,,,,,,,,,,,,,,-4,,,,,,,,,,,,,,,,,,,,,,,,,,,613a3838d8479f4bc5723974,001,2021-12-05_20h17.51.294,jm_natural_scene_simialrity_2-12-2021,2021.2.3,Win32,59.97361161,613a3838d8479f4bc5723974,61ad71e11ddd29ccf7a27d5b,61ad72a97e8cd868b15d234a,,,,,,-33,88,1,0,0,response7disk,0.7832,-11,12,1,0,0,rectangle,-11,12,1,0,0,-4,3,"[116,55,152,161,0,39,53,56,21,41]",-11,12,1,0,0,1,11,92,47,1,DarkGreen,DarkGreen.jpg,Red,Red.jpg,,
,,,,,,,,,,,,,,,,,,-4,,,,,,,,,,,,,,,,,,,,,,,,,,,613a3838d8479f4bc5723974,001,2021-12-05_20h17.51.294,jm_natural_scene_simialrity_2-12-2021,2021.2.3,Win32,59.97361161,613a3838d8479f4bc5723974,61ad71e11ddd29ccf7a27d5b,61ad72a97e8cd868b15d234a,,,,,,-31,100,1,0,0,response7disk,0.5499,-1,4,1,0,0,rectangle,-1,4,1,0,0,-4,-2,"[116,55,152,161,0,39,53,56,21,41]",-1,4,1,0,0,1,12,93,46,1,LightGreen,LightGreen.jpg,Red,Red.jpg,,
,,,,,,,,,,,,,,,,,,-4,,,,,,,,,,,,,,,,,,,,,,,,,,,613a3838d8479f4bc5723974,001,2021-12-05_20h17.51.294,jm_natural_scene_simialrity_2-12-2021,2021.2.3,Win32,59.97361161,613a3838d8479f4bc5723974,61ad71e11ddd29ccf7a27d5b,61ad72a97e8cd868b15d234a,,,,,,-39,74,1,0,0,response7disk,0.5167,0,-5,1,0,0,rectangle,0,-5,1,0,0,-4,3,"[116,55,152,161,0,39,53,56,21,41]",0,-5,1,0,0,1,13,94,3,1,Red,Red.jpg,DarkGreen,DarkGreen.jpg,,
,,,,,,,,,,,,,,,,,,4,,,,,,,,,,,,,,,,,,,,,,,,,,,613a3838d8479f4bc5723974,001,2021-12-05_20h17.51.294,jm_natural_scene_simialrity_2-12-2021,2021.2.3,Win32,59.97361161,613a3838d8479f4bc5723974,61ad71e11ddd29ccf7a27d5b,61ad72a97e8cd868b15d234a,,,,,,40,68,1,0,0,response1disk,1.0831,1,2,1,0,0,rectangle,1,2,1,0,0,-4,2,"[116,55,152,161,0,39,53,56,21,41]",1,2,1,0,0,1,14,95,58,1,Pink,Pink.jpg,Yellow,Yellow.jpg,,
,,,,,,,,,,,,,,,,,,4,,,,,,,,,,,,,,,,,,,,,,,,,,,613a3838d8479f4bc5723974,001,2021-12-05_20h17.51.294,jm_natural_scene_simialrity_2-12-2021,2021.2.3,Win32,59.97361161,613a3838d8479f4bc5723974,61ad71e11ddd29ccf7a27d5b,61ad72a97e8cd868b15d234a,,,,,,20,83,1,0,0,response1disk,0.5331,11,2,1,0,0,rectangle,11,2,1,0,0,-4,2,"[116,55,152,161,0,39,53,56,21,41]",11,2,1,0,0,1,15,96,9,1,Yellow,Yellow.jpg,Yellow,Yellow.jpg,,
,,,,,,,,,,,,,,,,,,4,,,,,,,,,,,,,,,,,,,,,,,,,,,613a3838d8479f4bc5723974,001,2021-12-05_20h17.51.294,jm_natural_scene_simialrity_2-12-2021,2021.2.3,Win32,59.97361161,613a3838d8479f4bc5723974,61ad71e11ddd29ccf7a27d5b,61ad72a97e8cd868b15d234a,,,,,,52,93,1,0,0,response1disk,0.5,13,10,1,0,0,rectangle,13,10,1,0,0,-4,3,"[116,55,152,161,0,39,53,56,21,41]",13,10,1,0,0,1,16,97,17,1,LightGreen,LightGreen.jpg,LightGreen,LightGreen.jpg,,
,,,,,,,,,,,,,,,,,,4,,,,,,,,,,,,,,,,,,,,,,,,,,,613a3838d8479f4bc5723974,001,2021-12-05_20h17.51.294,jm_natural_scene_simialrity_2-12-2021,2021.2.3,Win32,59.97361161,613a3838d8479f4bc5723974,61ad71e11ddd29ccf7a27d5b,61ad72a97e8cd868b15d234a,,,,,,65,97,1,0,0,response1disk,0.7665,23,7,1,0,0,rectangle,23,7,1,0,0,-4,2,"[116,55,152,161,0,39,53,56,21,41]",23,7,1,0,0,1,17,98,63,1,DarkBlue,DarkBlue.jpg,LightGreen,LightGreen.jpg,,
,,,,,,,,,,,,,,,,,,4,,,,,,,,,,,,,,,,,,,,,,,,,,,613a3838d8479f4bc5723974,001,2021-12-05_20h17.51.294,jm_natural_scene_simialrity_2-12-2021,2021.2.3,Win32,59.97361161,613a3838d8479f4bc5723974,61ad71e11ddd29ccf7a27d5b,61ad72a97e8cd868b15d234a,,,,,,55,95,1,0,0,response1disk,0.5668,9,12,1,0,0,rectangle,9,12,1,0,0,-4,-4,"[116,55,152,161,0,39,53,56,21,41]",9,12,1,0,0,1,18,99,51,1,Pink,Pink.jpg,Red,Red.jpg,,
,,,,,,,,,,,,,,,,,,-4,,,,,,,,,,,,,,,,,,,,,,,,,,,613a3838d8479f4bc5723974,001,2021-12-05_20h17.51.294,jm_natural_scene_simialrity_2-12-2021,2021.2.3,Win32,59.97361161,613a3838d8479f4bc5723974,61ad71e11ddd29ccf7a27d5b,61ad72a97e8cd868b15d234a,,,,,,-40,101,1,0,0,response7disk,1.1497,-5,0,1,0,0,rectangle,-5,0,1,0,0,-4,-2,"[116,55,152,161,0,39,53,56,21,41]",-5,0,1,0,0,1,19,100,50,1,DarkBlue,DarkBlue.jpg,Red,Red.jpg,,
,,,,,,,,,,,,,,,,,,-4,,,,,,,,,,,,,,,,,,,,,,,,,,,613a3838d8479f4bc5723974,001,2021-12-05_20h17.51.294,jm_natural_scene_simialrity_2-12-2021,2021.2.3,Win32,59.97361161,613a3838d8479f4bc5723974,61ad71e11ddd29ccf7a27d5b,61ad72a97e8cd868b15d234a,,,,,,-46,90,1,0,0,response7disk,0.5999,6,-12,1,0,0,rectangle,6,-12,1,0,0,-4,1,"[116,55,152,161,0,39,53,56,21,41]",6,-12,1,0,0,1,20,101,69,1,Pink,Pink.jpg,DarkGreen,DarkGreen.jpg,,
,,,,,,,,,,,,,,,,,,1,,,,,,,,,,,,,,,,,,,,,,,,,,,613a3838d8479f4bc5723974,001,2021-12-05_20h17.51.294,jm_natural_scene_simialrity_2-12-2021,2021.2.3,Win32,59.97361161,613a3838d8479f4bc5723974,61ad71e11ddd29ccf7a27d5b,61ad72a97e8cd868b15d234a,,,,,,27,-48,1,0,0,response3disk,1.4495,-1,21,1,0,0,rectangle,-1,21,1,0,0,-4,3,"[116,55,152,161,0,39,53,56,21,41]",-1,21,1,0,0,1,21,102,38,1,LightBlue,LightBlue.jpg,Purple,Purple.jpg,,
,,,,,,,,,,,,,,,,,,3,,,,,,,,,,,,,,,,,,,,,,,,,,,613a3838d8479f4bc5723974,001,2021-12-05_20h17.51.294,jm_natural_scene_simialrity_2-12-2021,2021.2.3,Win32,59.97361161,613a3838d8479f4bc5723974,61ad71e11ddd29ccf7a27d5b,61ad72a97e8cd868b15d234a,,,,,,64,52,1,0,0,response1disk,1.0497,12,5,1,0,0,rectangle,12,5,1,0,0,-4,-2,"[116,55,152,161,0,39,53,56,21,41]",12,5,1,0,0,1,22,103,45,1,Yellow,Yellow.jpg,Red,Red.jpg,,
,,,,,,,,,,,,,,,,,,-1,,,,,,,,,,,,,,,,,,,,,,,,,,,613a3838d8479f4bc5723974,001,2021-12-05_20h17.51.294,jm_natural_scene_simialrity_2-12-2021,2021.2.3,Win32,59.97361161,613a3838d8479f4bc5723974,61ad71e11ddd29ccf7a27d5b,61ad72a97e8cd868b15d234a,,,,,,-26,-76,1,0,0,response5disk,1.4163,10,9,1,0,0,rectangle,10,9,1,0,0,-4,2,"[116,55,152,161,0,39,53,56,21,41]",10,9,1,0,0,1,23,104,66,1,Turquiose,Turquiose.jpg,DarkGreen,DarkGreen.jpg,,
,,,,,,,,,,,,,,,,,,-1,,,,,,,,,,,,,,,,,,,,,,,,,,,613a3838d8479f4bc5723974,001,2021-12-05_20h17.51.294,jm_natural_scene_simialrity_2-12-2021,2021.2.3,Win32,59.97361161,613a3838d8479f4bc5723974,61ad71e11ddd29ccf7a27d5b,61ad72a97e8cd868b15d234a,,,,,,-23,-66,1,0,0,response5disk,0.7003,18,15,1,0,0,rectangle,18,15,1,0,0,-4,-2,"[116,55,152,161,0,39,53,56,21,41]",18,15,1,0,0,1,24,105,25,1,DarkGreen,DarkGreen.jpg,Turquiose,Turquiose.jpg,,
,,,,,,,,,,,,,,,,,,-4,,,,,,,,,,,,,,,,,,,,,,,,,,,613a3838d8479f4bc5723974,001,2021-12-05_20h17.51.294,jm_natural_scene_simialrity_2-12-2021,2021.2.3,Win32,59.97361161,613a3838d8479f4bc5723974,61ad71e11ddd29ccf7a27d5b,61ad72a97e8cd868b15d234a,,,,,,-48,88,1,0,0,response7disk,1.4329,0,14,1,0,0,rectangle,0,14,1,0,0,-4,-4,"[116,55,152,161,0,39,53,56,21,41]",0,14,1,0,0,1,25,106,23,1,LightGreen,LightGreen.jpg,Purple,Purple.jpg,,
,,,,,,,,,,,,,,,,,,1,,,,,,,,,,,,,,,,,,,,,,,,,,,613a3838d8479f4bc5723974,001,2021-12-05_20h17.51.294,jm_natural_scene_simialrity_2-12-2021,2021.2.3,Win32,59.97361161,613a3838d8479f4bc5723974,61ad71e11ddd29ccf7a27d5b,61ad72a97e8cd868b15d234a,,,,,,36,-85,1,0,0,response3disk,1.8827,10,-12,1,0,0,rectangle,10,-12,1,0,0,-4,1,"[116,55,152,161,0,39,53,56,21,41]",10,-12,1,0,0,1,26,107,75,1,DarkBlue,DarkBlue.jpg,LightBlue,LightBlue.jpg,,
,,,,,,,,,,,,,,,,,,-4,,,,,,,,,,,,,,,,,,,,,,,,,,,613a3838d8479f4bc5723974,001,2021-12-05_20h17.51.294,jm_natural_scene_simialrity_2-12-2021,2021.2.3,Win32,59.97361161,613a3838d8479f4bc5723974,61ad71e11ddd29ccf7a27d5b,61ad72a97e8cd868b15d234a,,,,,,-22,64,1,0,0,response7disk,1.6172,3,3,1,0,0,rectangle,3,3,1,0,0,-4,-3,"[116,55,152,161,0,39,53,56,21,41]",3,3,1,0,0,1,27,108,43,1,Pink,Pink.jpg,Purple,Purple.jpg,,
,,,,,,,,,,,,,,,,,,1,,,,,,,,,,,,,,,,,,,,,,,,,,,613a3838d8479f4bc5723974,001,2021-12-05_20h17.51.294,jm_natural_scene_simialrity_2-12-2021,2021.2.3,Win32,59.97361161,613a3838d8479f4bc5723974,61ad71e11ddd29ccf7a27d5b,61ad72a97e8cd868b15d234a,,,,,,29,-77,1,0,0,response3disk,1.483,5,13,1,0,0,rectangle,5,13,1,0,0,-4,-2,"[116,55,152,161,0,39,53,56,21,41]",5,13,1,0,0,1,28,109,61,1,Turquiose,Turquiose.jpg,LightGreen,LightGreen.jpg,,
,,,,,,,,,,,,,,,,,,-4,,,,,,,,,,,,,,,,,,,,,,,,,,,613a3838d8479f4bc5723974,001,2021-12-05_20h17.51.294,jm_natural_scene_simialrity_2-12-2021,2021.2.3,Win32,59.97361161,613a3838d8479f4bc5723974,61ad71e11ddd29ccf7a27d5b,61ad72a97e8cd868b15d234a,,,,,,-32,66,1,0,0,response7disk,1.0831,-3,8,1,0,0,rectangle,-3,8,1,0,0,-4,1,"[116,55,152,161,0,39,53,56,21,41]",-3,8,1,0,0,1,29,110,12,1,Yellow,Yellow.jpg,Turquiose,Turquiose.jpg,,
,,,,,,,,,,,,,,,,,,-4,,,,,,,,,,,,,,,,,,,,,,,,,,,613a3838d8479f4bc5723974,001,2021-12-05_20h17.51.294,jm_natural_scene_simialrity_2-12-2021,2021.2.3,Win32,59.97361161,613a3838d8479f4bc5723974,61ad71e11ddd29ccf7a27d5b,61ad72a97e8cd868b15d234a,,,,,,-39,40,1,0,0,response7disk,1.2328,6,2,1,0,0,rectangle,6,2,1,0,0,-4,-1,"[116,55,152,161,0,39,53,56,21,41]",6,2,1,0,0,1,30,111,59,1,Purple,Purple.jpg,Yellow,Yellow.jpg,,
,,,,,,,,,,,,,,,,,,1,,,,,,,,,,,,,,,,,,,,,,,,,,,613a3838d8479f4bc5723974,001,2021-12-05_20h17.51.294,jm_natural_scene_simialrity_2-12-2021,2021.2.3,Win32,59.97361161,613a3838d8479f4bc5723974,61ad71e11ddd29ccf7a27d5b,61ad72a97e8cd868b15d234a,,,,,,21,-58,1,0,0,response3disk,1.1496,-9,0,1,0,0,rectangle,-9,0,1,0,0,-4,-3,"[116,55,152,161,0,39,53,56,21,41]",-9,0,1,0,0,1,31,112,31,1,Turquiose,Turquiose.jpg,LightBlue,LightBlue.jpg,,
,,,,,,,,,,,,,,,,,,-4,,,,,,,,,,,,,,,,,,,,,,,,,,,613a3838d8479f4bc5723974,001,2021-12-05_20h17.51.294,jm_natural_scene_simialrity_2-12-2021,2021.2.3,Win32,59.97361161,613a3838d8479f4bc5723974,61ad71e11ddd29ccf7a27d5b,61ad72a97e8cd868b15d234a,,,,,,-21,93,1,0,0,response7disk,0.8331,11,8,1,0,0,rectangle,11,8,1,0,0,-4,-3,"[116,55,152,161,0,39,53,56,21,41]",11,8,1,0,0,1,32,113,57,1,DarkBlue,DarkBlue.jpg,Yellow,Yellow.jpg,,
,,,,,,,,,,,,,,,,,,-1,,,,,,,,,,,,,,,,,,,,,,,,,,,613a3838d8479f4bc5723974,001,2021-12-05_20h17.51.294,jm_natural_scene_simialrity_2-12-2021,2021.2.3,Win32,59.97361161,613a3838d8479f4bc5723974,61ad71e11ddd29ccf7a27d5b,61ad72a97e8cd868b15d234a,,,,,,-27,-53,1,0,0,response5disk,0.9665,-9,-20,1,0,0,rectangle,-9,-20,1,0,0,-4,1,"[116,55,152,161,0,39,53,56,21,41]",-9,-20,1,0,0,1,33,114,74,1,Purple,Purple.jpg,Turquiose,Turquiose.jpg,,
,,,,,,,,,,,,,,,,,,4,,,,,,,,,,,,,,,,,,,,,,,,,,,613a3838d8479f4bc5723974,001,2021-12-05_20h17.51.294,jm_natural_scene_simialrity_2-12-2021,2021.2.3,Win32,59.97361161,613a3838d8479f4bc5723974,61ad71e11ddd29ccf7a27d5b,61ad72a97e8cd868b15d234a,,,,,,31,80,1,0,0,response1disk,0.6833,-3,19,1,0,0,rectangle,-37,-96,1,0,0,-1,-1,"[116,55,152,161,0,39,53,56,21,41]",2,-10,1,0,0,1,34,115,24,1,DarkGreen,DarkGreen.jpg,DarkGreen,DarkGreen.jpg,response5disk_3,rectangle
,,,,,,,,,,,,,,,,,,-4,,,,,,,,,,,,,,,,,,,,,,,,,,,613a3838d8479f4bc5723974,001,2021-12-05_20h17.51.294,jm_natural_scene_simialrity_2-12-2021,2021.2.3,Win32,59.97361161,613a3838d8479f4bc5723974,61ad71e11ddd29ccf7a27d5b,61ad72a97e8cd868b15d234a,,,,,,-39,58,1,0,0,response7disk,0.8833,-19,-12,1,0,0,rectangle,-19,-12,1,0,0,-1,-4,"[116,55,152,161,0,39,53,56,21,41]",-19,-12,1,0,0,1,35,116,16,1,Yellow,Yellow.jpg,Purple,Purple.jpg,,
,,,,,,,,,,,,,,,,,,-4,,,,,,,,,,,,,,,,,,,,,,,,,,,613a3838d8479f4bc5723974,001,2021-12-05_20h17.51.294,jm_natural_scene_simialrity_2-12-2021,2021.2.3,Win32,59.97361161,613a3838d8479f4bc5723974,61ad71e11ddd29ccf7a27d5b,61ad72a97e8cd868b15d234a,,,,,,-41,77,1,0,0,response7disk,0.7164,-8,-9,1,0,0,rectangle,-8,-9,1,0,0,-1,-3,"[116,55,152,161,0,39,53,56,21,41]",-8,-9,1,0,0,1,36,117,48,1,Turquiose,Turquiose.jpg,Red,Red.jpg,,
,,,,,,,,,,,,,,,,,,-4,,,,,,,,,,,,,,,,,,,,,,,,,,,613a3838d8479f4bc5723974,001,2021-12-05_20h17.51.294,jm_natural_scene_simialrity_2-12-2021,2021.2.3,Win32,59.97361161,613a3838d8479f4bc5723974,61ad71e11ddd29ccf7a27d5b,61ad72a97e8cd868b15d234a,,,,,,-44,83,1,0,0,response7disk,0.7,-2,-18,1,0,0,rectangle,-2,-18,1,0,0,-1,3,"[116,55,152,161,0,39,53,56,21,41]",-2,-18,1,0,0,1,37,118,78,1,Pink,Pink.jpg,DarkBlue,DarkBlue.jpg,,
,,,,,,,,,,,,,,,,,,4,,,,,,,,,,,,,,,,,,,,,,,,,,,613a3838d8479f4bc5723974,001,2021-12-05_20h17.51.294,jm_natural_scene_simialrity_2-12-2021,2021.2.3,Win32,59.97361161,613a3838d8479f4bc5723974,61ad71e11ddd29ccf7a27d5b,61ad72a97e8cd868b15d234a,,,,,,41,88,1,0,0,response1disk,0.5509,11,-7,1,0,0,rectangle,11,-7,1,0,0,-1,3,"[116,55,152,161,0,39,53,56,21,41]",11,-7,1,0,0,1,38,119,0,1,Red,Red.jpg,Red,Red.jpg,,
,,,,,,,,,,,,,,,,,,4,,,,,,,,,,,,,,,,,,,,,,,,,,,613a3838d8479f4bc5723974,001,2021-12-05_20h17.51.294,jm_natural_scene_simialrity_2-12-2021,2021.2.3,Win32,59.97361161,613a3838d8479f4bc5723974,61ad71e11ddd29ccf7a27d5b,61ad72a97e8cd868b15d234a,,,,,,27,78,1,0,0,response1disk,0.5166,9,11,1,0,0,rectangle,9,11,1,0,0,-1,-3,"[116,55,152,161,0,39,53,56,21,41]",9,11,1,0,0,1,39,120,44,1,Purple,Purple.jpg,Purple,Purple.jpg,,
,,,,,,,,,,,,,,,,,,-4,,,,,,,,,,,,,,,,,,,,,,,,,,,613a3838d8479f4bc5723974,001,2021-12-05_20h17.51.294,jm_natural_scene_simialrity_2-12-2021,2021.2.3,Win32,59.97361161,613a3838d8479f4bc5723974,61ad71e11ddd29ccf7a27d5b,61ad72a97e8cd868b15d234a,,,,,,-22,109,1,0,0,response7disk,1.3996,-2,23,1,0,0,rectangle,-2,23,1,0,0,-1,-2,"[116,55,152,161,0,39,53,56,21,41]",-2,23,1,0,0,1,40,121,5,1,Red,Red.jpg,LightBlue,LightBlue.jpg,,
,,,,,,,,,,,,,,,,,,-4,,,,,,,,,,,,,,,,,,,,,,,,,,,613a3838d8479f4bc5723974,001,2021-12-05_20h17.51.294,jm_natural_scene_simialrity_2-12-2021,2021.2.3,Win32,59.97361161,613a3838d8479f4bc5723974,61ad71e11ddd29ccf7a27d5b,61ad72a97e8cd868b15d234a,,,,,,-31,62,1,0,0,response7disk,0.6168,-1,-12,1,0,0,rectangle,-1,-12,1,0,0,-1,-2,"[116,55,152,161,0,39,53,56,21,41]",-1,-12,1,0,0,1,41,122,64,1,Pink,Pink.jpg,LightGreen,LightGreen.jpg,,
,,,,,,,,,,,,,,,,,,-4,,,,,,,,,,,,,,,,,,,,,,,,,,,613a3838d8479f4bc5723974,001,2021-12-05_20h17.51.294,jm_natural_scene_simialrity_2-12-2021,2021.2.3,Win32,59.97361161,613a3838d8479f4bc5723974,61ad71e11ddd29ccf7a27d5b,61ad72a97e8cd868b15d234a,,,,,,-41,56,1,0,0,response7disk,0.7333,-11,0,1,0,0,rectangle,-11,0,1,0,0,-1,3,"[116,55,152,161,0,39,53,56,21,41]",-11,0,1,0,0,1,42,123,76,1,Pink,Pink.jpg,LightBlue,LightBlue.jpg,,
,,,,,,,,,,,,,,,,,,-4,,,,,,,,,,,,,,,,,,,,,,,,,,,613a3838d8479f4bc5723974,001,2021-12-05_20h17.51.294,jm_natural_scene_simialrity_2-12-2021,2021.2.3,Win32,59.97361161,613a3838d8479f4bc5723974,61ad71e11ddd29ccf7a27d5b,61ad72a97e8cd868b15d234a,,,,,,-30,58,1,0,0,response7disk,0.5667,-8,-7,1,0,0,rectangle,-8,-7,1,0,0,-1,-1,"[116,55,152,161,0,39,53,56,21,41]",-8,-7,1,0,0,1,43,124,28,1,DarkGreen,DarkGreen.jpg,Pink,Pink.jpg,,
,,,,,,,,,,,,,,,,,,-1,,,,,,,,,,,,,,,,,,,,,,,,,,,613a3838d8479f4bc5723974,001,2021-12-05_20h17.51.294,jm_natural_scene_simialrity_2-12-2021,2021.2.3,Win32,59.97361161,613a3838d8479f4bc5723974,61ad71e11ddd29ccf7a27d5b,61ad72a97e8cd868b15d234a,,,,,,-46,-105,1,0,0,response5disk,0.9664,-16,-8,1,0,0,rectangle,-16,-8,1,0,0,-1,-1,"[116,55,152,161,0,39,53,56,21,41]",-16,-8,1,0,0,1,44,125,34,1,Turquiose,Turquiose.jpg,Purple,Purple.jpg,,
,,,,,,,,,,,,,,,,,,1,,,,,,,,,,,,,,,,,,,,,,,,,,,613a3838d8479f4bc5723974,001,2021-12-05_20h17.51.294,jm_natural_scene_simialrity_2-12-2021,2021.2.3,Win32,59.97361161,613a3838d8479f4bc5723974,61ad71e11ddd29ccf7a27d5b,61ad72a97e8cd868b15d234a,,,,,,35,-86,1,0,0,response3disk,0.9831,9,12,1,0,0,rectangle,9,12,1,0,0,-1,-2,"[116,55,152,161,0,39,53,56,21,41]",9,12,1,0,0,1,45,126,72,1,DarkBlue,DarkBlue.jpg,Turquiose,Turquiose.jpg,,
,,,,,,,,,,,,,,,,,,4,,,,,,,,,,,,,,,,,,,,,,,,,,,613a3838d8479f4bc5723974,001,2021-12-05_20h17.51.294,jm_natural_scene_simialrity_2-12-2021,2021.2.3,Win32,59.97361161,613a3838d8479f4bc5723974,61ad71e11ddd29ccf7a27d5b,61ad72a97e8cd868b15d234a,,,,,,57,85,1,0,0,response1disk,1.3331,3,5,1,0,0,rectangle,3,5,1,0,0,-1,3,"[116,55,152,161,0,39,53,56,21,41]",3,5,1,0,0,1,46,127,1,1,Red,Red.jpg,Yellow,Yellow.jpg,,
,,,,,,,,,,,,,,,,,,-4,,,,,,,,,,,,,,,,,,,,,,,,,,,613a3838d8479f4bc5723974,001,2021-12-05_20h17.51.294,jm_natural_scene_simialrity_2-12-2021,2021.2.3,Win32,59.97361161,613a3838d8479f4bc5723974,61ad71e11ddd29ccf7a27d5b,61ad72a97e8cd868b15d234a,,,,,,-48,96,1,0,0,response7disk,0.9831,-2,9,1,0,0,rectangle,-2,9,1,0,0,-1,-1,"[116,55,152,161,0,39,53,56,21,41]",-2,9,1,0,0,1,47,128,70,1,Purple,Purple.jpg,DarkGreen,DarkGreen.jpg,,
,,,,,,,,,,,,,,,,,,-4,,,,,,,,,,,,,,,,,,,,,,,,,,,613a3838d8479f4bc5723974,001,2021-12-05_20h17.51.294,jm_natural_scene_simialrity_2-12-2021,2021.2.3,Win32,59.97361161,613a3838d8479f4bc5723974,61ad71e11ddd29ccf7a27d5b,61ad72a97e8cd868b15d234a,,,,,,-43,76,1,0,0,response7disk,0.7499,-10,-1,1,0,0,rectangle,-10,-1,1,0,0,-1,3,"[116,55,152,161,0,39,53,56,21,41]",-10,-1,1,0,0,1,48,129,56,1,LightBlue,LightBlue.jpg,Yellow,Yellow.jpg,,
,,,,,,,,,,,,,,,,,,-4,,,,,,,,,,,,,,,,,,,,,,,,,,,613a3838d8479f4bc5723974,001,2021-12-05_20h17.51.294,jm_natural_scene_simialrity_2-12-2021,2021.2.3,Win32,59.97361161,613a3838d8479f4bc5723974,61ad71e11ddd29ccf7a27d5b,61ad72a97e8cd868b15d234a,,,,,,-36,63,1,0,0,response7disk,0.5999,1,-3,1,0,0,rectangle,1,-3,1,0,0,-1,2,"[116,55,152,161,0,39,53,56,21,41]",1,-3,1,0,0,1,49,130,33,1,Turquiose,Turquiose.jpg,Pink,Pink.jpg,,
,,,,,,,,,,,,,,,,,,4,,,,,,,,,,,,,,,,,,,,,,,,,,,613a3838d8479f4bc5723974,001,2021-12-05_20h17.51.294,jm_natural_scene_simialrity_2-12-2021,2021.2.3,Win32,59.97361161,613a3838d8479f4bc5723974,61ad71e11ddd29ccf7a27d5b,61ad72a97e8cd868b15d234a,,,,,,24,76,1,0,0,response1disk,0.5835,5,1,1,0,0,rectangle,5,1,1,0,0,-1,-2,"[116,55,152,161,0,39,53,56,21,41]",5,1,1,0,0,1,50,131,18,1,LightGreen,LightGreen.jpg,DarkGreen,DarkGreen.jpg,,
,,,,,,,,,,,,,,,,,,-4,,,,,,,,,,,,,,,,,,,,,,,,,,,613a3838d8479f4bc5723974,001,2021-12-05_20h17.51.294,jm_natural_scene_simialrity_2-12-2021,2021.2.3,Win32,59.97361161,613a3838d8479f4bc5723974,61ad71e11ddd29ccf7a27d5b,61ad72a97e8cd868b15d234a,,,,,,-38,68,1,0,0,response7disk,0.7498,-13,-2,1,0,0,rectangle,-13,-2,1,0,0,-1,1,"[116,55,152,161,0,39,53,56,21,41]",-13,-2,1,0,0,1,51,132,2,1,Red,Red.jpg,LightGreen,LightGreen.jpg,,
,,,,,,,,,,,,,,,,,,1,,,,,,,,,,,,,,,,,,,,,,,,,,,613a3838d8479f4bc5723974,001,2021-12-05_20h17.51.294,jm_natural_scene_simialrity_2-12-2021,2021.2.3,Win32,59.97361161,613a3838d8479f4bc5723974,61ad71e11ddd29ccf7a27d5b,61ad72a97e8cd868b15d234a,,,,,,20,-100,1,0,0,response3disk,1.3996,-5,-6,1,0,0,rectangle,-5,-6,1,0,0,-1,-1,"[116,55,152,161,0,39,53,56,21,41]",-5,-6,1,0,0,1,52,133,36,1,LightBlue,LightBlue.jpg,DarkBlue,DarkBlue.jpg,,
,,,,,,,,,,,,,,,,,,-4,,,,,,,,,,,,,,,,,,,,,,,,,,,613a3838d8479f4bc5723974,001,2021-12-05_20h17.51.294,jm_natural_scene_simialrity_2-12-2021,2021.2.3,Win32,59.97361161,613a3838d8479f4bc5723974,61ad71e11ddd29ccf7a27d5b,61ad72a97e8cd868b15d234a,,,,,,-32,54,1,0,0,response7disk,1.0332,-6,16,1,0,0,rectangle,-6,16,1,0,0,-1,2,"[116,55,152,161,0,39,53,56,21,41]",-6,16,1,0,0,1,53,134,52,1,Purple,Purple.jpg,Red,Red.jpg,,
,,,,,,,,,,,,,,,,,,-4,,,,,,,,,,,,,,,,,,,,,,,,,,,613a3838d8479f4bc5723974,001,2021-12-05_20h17.51.294,jm_natural_scene_simialrity_2-12-2021,2021.2.3,Win32,59.97361161,613a3838d8479f4bc5723974,61ad71e11ddd29ccf7a27d5b,61ad72a97e8cd868b15d234a,,,,,,-19,59,1,0,0,response7disk,0.733,-2,17,1,0,0,rectangle,-2,17,1,0,0,-1,-1,"[116,55,152,161,0,39,53,56,21,41]",-2,17,1,0,0,1,54,135,13,1,Yellow,Yellow.jpg,LightBlue,LightBlue.jpg,,
,,,,,,,,,,,,,,,,,,-4,,,,,,,,,,,,,,,,,,,,,,,,,,,613a3838d8479f4bc5723974,001,2021-12-05_20h17.51.294,jm_natural_scene_simialrity_2-12-2021,2021.2.3,Win32,59.97361161,613a3838d8479f4bc5723974,61ad71e11ddd29ccf7a27d5b,61ad72a97e8cd868b15d234a,,,,,,-25,54,1,0,0,response7disk,0.6332,2,3,1,0,0,rectangle,2,3,1,0,0,-1,2,"[116,55,152,161,0,39,53,56,21,41]",2,3,1,0,0,1,55,136,37,1,LightBlue,LightBlue.jpg,Pink,Pink.jpg,,
,,,,,,,,,,,,,,,,,,-4,,,,,,,,,,,,,,,,,,,,,,,,,,,613a3838d8479f4bc5723974,001,2021-12-05_20h17.51.294,jm_natural_scene_simialrity_2-12-2021,2021.2.3,Win32,59.97361161,613a3838d8479f4bc5723974,61ad71e11ddd29ccf7a27d5b,61ad72a97e8cd868b15d234a,,,,,,-28,66,1,0,0,response7disk,0.6164,-2,17,1,0,0,rectangle,-2,17,1,0,0,-1,1,"[116,55,152,161,0,39,53,56,21,41]",-2,17,1,0,0,1,56,137,53,1,LightGreen,LightGreen.jpg,Yellow,Yellow.jpg,,
,,,,,,,,,,,,,,,,,,-4,,,,,,,,,,,,,,,,,,,,,,,,,,,613a3838d8479f4bc5723974,001,2021-12-05_20h17.51.294,jm_natural_scene_simialrity_2-12-2021,2021.2.3,Win32,59.97361161,613a3838d8479f4bc5723974,61ad71e11ddd29ccf7a27d5b,61ad72a97e8cd868b15d234a,,,,,,-27,50,1,0,0,response7disk,0.5166,-8,7,1,0,0,rectangle,-8,7,1,0,0,-1,1,"[116,55,152,161,0,39,53,56,21,41]",-8,7,1,0,0,1,57,138,11,1,Yellow,Yellow.jpg,DarkGreen,DarkGreen.jpg,,
,,,,,,,,,,,,,,,,,,1,,,,,,,,,,,,,,,,,,,,,,,,,,,613a3838d8479f4bc5723974,001,2021-12-05_20h17.51.294,jm_natural_scene_simialrity_2-12-2021,2021.2.3,Win32,59.97361161,613a3838d8479f4bc5723974,61ad71e11ddd29ccf7a27d5b,61ad72a97e8cd868b15d234a,,,,,,44,-102,1,0,0,response3disk,1.1165,-13,-17,1,0,0,rectangle,-13,-17,1,0,0,-1,-2,"[116,55,152,161,0,39,53,56,21,41]",-13,-17,1,0,0,1,58,139,71,1,LightBlue,LightBlue.jpg,Turquiose,Turquiose.jpg,,
,,,,,,,,,,,,,,,,,,-4,,,,,,,,,,,,,,,,,,,,,,,,,,,613a3838d8479f4bc5723974,001,2021-12-05_20h17.51.294,jm_natural_scene_simialrity_2-12-2021,2021.2.3,Win32,59.97361161,613a3838d8479f4bc5723974,61ad71e11ddd29ccf7a27d5b,61ad72a97e8cd868b15d234a,,,,,,-25,89,1,0,0,response7disk,1.2997,-4,21,1,0,0,rectangle,-4,21,1,0,0,-1,-4,"[116,55,152,161,0,39,53,56,21,41]",-4,21,1,0,0,1,59,140,6,1,Red,Red.jpg,DarkBlue,DarkBlue.jpg,,
,,,,,,,,,,,,,,,,,,-4,,,,,,,,,,,,,,,,,,,,,,,,,,,613a3838d8479f4bc5723974,001,2021-12-05_20h17.51.294,jm_natural_scene_simialrity_2-12-2021,2021.2.3,Win32,59.97361161,613a3838d8479f4bc5723974,61ad71e11ddd29ccf7a27d5b,61ad72a97e8cd868b15d234a,,,,,,-46,60,1,0,0,response7disk,0.7168,-12,-4,1,0,0,rectangle,-12,-4,1,0,0,-1,3,"[116,55,152,161,0,39,53,56,21,41]",-12,-4,1,0,0,1,60,141,62,1,LightBlue,LightBlue.jpg,LightGreen,LightGreen.jpg,,
,,,,,,,,,,,,,,,,,,-4,,,,,,,,,,,,,,,,,,,,,,,,,,,613a3838d8479f4bc5723974,001,2021-12-05_20h17.51.294,jm_natural_scene_simialrity_2-12-2021,2021.2.3,Win32,59.97361161,613a3838d8479f4bc5723974,61ad71e11ddd29ccf7a27d5b,61ad72a97e8cd868b15d234a,,,,,,-26,46,1,0,0,response7disk,0.6166,-4,-5,1,0,0,rectangle,-4,-5,1,0,0,-1,2,"[116,55,152,161,0,39,53,56,21,41]",-4,-5,1,0,0,1,61,142,73,1,Pink,Pink.jpg,Turquiose,Turquiose.jpg,,
,,,,,,,,,,,,,,,,,,-4,,,,,,,,,,,,,,,,,,,,,,,,,,,613a3838d8479f4bc5723974,001,2021-12-05_20h17.51.294,jm_natural_scene_simialrity_2-12-2021,2021.2.3,Win32,59.97361161,613a3838d8479f4bc5723974,61ad71e11ddd29ccf7a27d5b,61ad72a97e8cd868b15d234a,,,,,,-32,42,1,0,0,response7disk,0.5167,-10,-5,1,0,0,rectangle,-10,-5,1,0,0,-1,-1,"[116,55,152,161,0,39,53,56,21,41]",-10,-5,1,0,0,1,62,143,29,1,DarkGreen,DarkGreen.jpg,Purple,Purple.jpg,,
,,,,,,,,,,,,,,,,,,-4,,,,,,,,,,,,,,,,,,,,,,,,,,,613a3838d8479f4bc5723974,001,2021-12-05_20h17.51.294,jm_natural_scene_simialrity_2-12-2021,2021.2.3,Win32,59.97361161,613a3838d8479f4bc5723974,61ad71e11ddd29ccf7a27d5b,61ad72a97e8cd868b15d234a,,,,,,-28,42,1,0,0,response7disk,0.8667,-2,7,1,0,0,rectangle,-2,7,1,0,0,-1,3,"[116,55,152,161,0,39,53,56,21,41]",-2,7,1,0,0,1,63,144,19,1,LightGreen,LightGreen.jpg,Turquiose,Turquiose.jpg,,
,,,,,,,,,,,,,,,,,,-4,,,,,,,,,,,,,,,,,,,,,,,,,,,613a3838d8479f4bc5723974,001,2021-12-05_20h17.51.294,jm_natural_scene_simialrity_2-12-2021,2021.2.3,Win32,59.97361161,613a3838d8479f4bc5723974,61ad71e11ddd29ccf7a27d5b,61ad72a97e8cd868b15d234a,,,,,,-23,71,1,0,0,response7disk,1.5664,17,12,1,0,0,rectangle,17,12,1,0,0,-1,2,"[116,55,152,161,0,39,53,56,21,41]",17,12,1,0,0,1,64,145,49,1,LightBlue,LightBlue.jpg,Red,Red.jpg,,
,,,,,,,,,,,,,,,,,,1,,,,,,,,,,,,,,,,,,,,,,,,,,,613a3838d8479f4bc5723974,001,2021-12-05_20h17.51.294,jm_natural_scene_simialrity_2-12-2021,2021.2.3,Win32,59.97361161,613a3838d8479f4bc5723974,61ad71e11ddd29ccf7a27d5b,61ad72a97e8cd868b15d234a,,,,,,32,-91,1,0,0,response3disk,1.3333,-11,22,1,0,0,rectangle,-11,22,1,0,0,-1,-2,"[116,55,152,161,0,39,53,56,21,41]",-11,22,1,0,0,1,65,146,21,1,LightGreen,LightGreen.jpg,DarkBlue,DarkBlue.jpg,,
,,,,,,,,,,,,,,,,,,1,,,,,,,,,,,,,,,,,,,,,,,,,,,613a3838d8479f4bc5723974,001,2021-12-05_20h17.51.294,jm_natural_scene_simialrity_2-12-2021,2021.2.3,Win32,59.97361161,613a3838d8479f4bc5723974,61ad71e11ddd29ccf7a27d5b,61ad72a97e8cd868b15d234a,,,,,,39,-77,1,0,0,response3disk,1.3506,1,10,1,0,0,rectangle,1,10,1,0,0,-1,1,"[116,55,152,161,0,39,53,56,21,41]",1,10,1,0,0,1,66,147,32,1,Turquiose,Turquiose.jpg,DarkBlue,DarkBlue.jpg,,
,,,,,,,,,,,,,,,,,,4,,,,,,,,,,,,,,,,,,,,,,,,,,,613a3838d8479f4bc5723974,001,2021-12-05_20h17.51.294,jm_natural_scene_simialrity_2-12-2021,2021.2.3,Win32,59.97361161,613a3838d8479f4bc5723974,61ad71e11ddd29ccf7a27d5b,61ad72a97e8cd868b15d234a,,,,,,30,108,1,0,0,response1disk,0.8997,6,15,1,0,0,rectangle,6,15,1,0,0,-1,-4,"[116,55,152,161,0,39,53,56,21,41]",6,15,1,0,0,1,67,148,39,1,DarkBlue,DarkBlue.jpg,DarkBlue,DarkBlue.jpg,,
,,,,,,,,,,,,,,,,,,-4,,,,,,,,,,,,,,,,,,,,,,,,,,,613a3838d8479f4bc5723974,001,2021-12-05_20h17.51.294,jm_natural_scene_simialrity_2-12-2021,2021.2.3,Win32,59.97361161,613a3838d8479f4bc5723974,61ad71e11ddd29ccf7a27d5b,61ad72a97e8cd868b15d234a,,,,,,-32,104,1,0,0,response7disk,0.6999,11,11,1,0,0,rectangle,11,11,1,0,0,-1,-3,"[116,55,152,161,0,39,53,56,21,41]",11,11,1,0,0,1,68,149,10,1,Yellow,Yellow.jpg,LightGreen,LightGreen.jpg,,
,,,,,,,,,,,,,,,,,,-4,,,,,,,,,,,,,,,,,,,,,,,,,,,613a3838d8479f4bc5723974,001,2021-12-05_20h17.51.294,jm_natural_scene_simialrity_2-12-2021,2021.2.3,Win32,59.97361161,613a3838d8479f4bc5723974,61ad71e11ddd29ccf7a27d5b,61ad72a97e8cd868b15d234a,,,,,,-23,67,1,0,0,response7disk,0.9664,-1,17,1,0,0,rectangle,-1,17,1,0,0,-1,-3,"[116,55,152,161,0,39,53,56,21,41]",-1,17,1,0,0,1,69,150,67,1,LightBlue,LightBlue.jpg,DarkGreen,DarkGreen.jpg,,
,,,,,,,,,,,,,,,,,,-4,,,,,,,,,,,,,,,,,,,,,,,,,,,613a3838d8479f4bc5723974,001,2021-12-05_20h17.51.294,jm_natural_scene_simialrity_2-12-2021,2021.2.3,Win32,59.97361161,613a3838d8479f4bc5723974,61ad71e11ddd29ccf7a27d5b,61ad72a97e8cd868b15d234a,,,,,,-60,94,1,0,0,response7disk,1.0165,-18,21,1,0,0,rectangle,-131,-39,1,0,0,-1,-2,"[116,55,152,161,0,39,53,56,21,41]",-12,7,1,0,0,1,70,151,26,1,DarkGreen,DarkGreen.jpg,LightBlue,LightBlue.jpg,response5disk_3,rectangle
,,,,,,,,,,,,,,,,,,-4,,,,,,,,,,,,,,,,,,,,,,,,,,,613a3838d8479f4bc5723974,001,2021-12-05_20h17.51.294,jm_natural_scene_simialrity_2-12-2021,2021.2.3,Win32,59.97361161,613a3838d8479f4bc5723974,61ad71e11ddd29ccf7a27d5b,61ad72a97e8cd868b15d234a,,,,,,-39,103,1,0,0,response7disk,0.7332,0,11,1,0,0,rectangle,0,11,1,0,0,-1,-1,"[116,55,152,161,0,39,53,56,21,41]",0,11,1,0,0,1,71,152,4,1,Red,Red.jpg,Turquiose,Turquiose.jpg,,
,,,,,,,,,,,,,,,,,,4,,,,,,,,,,,,,,,,,,,,,,,,,,,613a3838d8479f4bc5723974,001,2021-12-05_20h17.51.294,jm_natural_scene_simialrity_2-12-2021,2021.2.3,Win32,59.97361161,613a3838d8479f4bc5723974,61ad71e11ddd29ccf7a27d5b,61ad72a97e8cd868b15d234a,,,,,,38,103,1,0,0,response1disk,0.7167,6,-9,1,0,0,rectangle,6,-9,1,0,0,-1,2,"[116,55,152,161,0,39,53,56,21,41]",6,-9,1,0,0,1,72,153,60,1,DarkGreen,DarkGreen.jpg,LightGreen,LightGreen.jpg,,
,,,,,,,,,,,,,,,,,,-1,,,,,,,,,,,,,,,,,,,,,,,,,,,613a3838d8479f4bc5723974,001,2021-12-05_20h17.51.294,jm_natural_scene_simialrity_2-12-2021,2021.2.3,Win32,59.97361161,613a3838d8479f4bc5723974,61ad71e11ddd29ccf7a27d5b,61ad72a97e8cd868b15d234a,,,,,,-34,-95,1,0,0,response5disk,1.4998,0,-3,1,0,0,rectangle,0,-3,1,0,0,-1,-4,"[116,55,152,161,0,39,53,56,21,41]",0,-3,1,0,0,1,73,154,20,1,LightGreen,LightGreen.jpg,LightBlue,LightBlue.jpg,,
,,,,,,,,,,,,,,,,,,-4,,,,,,,,,,,,,,,,,,,,,,,,,,,613a3838d8479f4bc5723974,001,2021-12-05_20h17.51.294,jm_natural_scene_simialrity_2-12-2021,2021.2.3,Win32,59.97361161,613a3838d8479f4bc5723974,61ad71e11ddd29ccf7a27d5b,61ad72a97e8cd868b15d234a,,,,,,-54,121,1,0,0,response7disk,1.3997,-5,13,1,0,0,rectangle,-5,13,1,0,0,-1,-4,"[116,55,152,161,0,39,53,56,21,41]",-5,13,1,0,0,1,74,155,40,1,DarkBlue,DarkBlue.jpg,Pink,Pink.jpg,,
,,,,,,,,,,,,,,,,,,-4,,,,,,,,,,,,,,,,,,,,,,,,,,,613a3838d8479f4bc5723974,001,2021-12-05_20h17.51.294,jm_natural_scene_simialrity_2-12-2021,2021.2.3,Win32,59.97361161,613a3838d8479f4bc5723974,61ad71e11ddd29ccf7a27d5b,61ad72a97e8cd868b15d234a,,,,,,-24,60,1,0,0,response7disk,0.55,-2,4,1,0,0,rectangle,-2,4,1,0,0,-1,2,"[116,55,152,161,0,39,53,56,21,41]",-2,4,1,0,0,1,75,156,22,1,LightGreen,LightGreen.jpg,Pink,Pink.jpg,,
,,,,,,,,,,,,,,,,,,-1,,,,,,,,,,,,,,,,,,,,,,,,,,,613a3838d8479f4bc5723974,001,2021-12-05_20h17.51.294,jm_natural_scene_simialrity_2-12-2021,2021.2.3,Win32,59.97361161,613a3838d8479f4bc5723974,61ad71e11ddd29ccf7a27d5b,61ad72a97e8cd868b15d234a,,,,,,-34,-96,1,0,0,response5disk,1.283,4,-1,1,0,0,rectangle,4,-1,1,0,0,-1,-3,"[116,55,152,161,0,39,53,56,21,41]",4,-1,1,0,0,1,76,157,68,1,DarkBlue,DarkBlue.jpg,DarkGreen,DarkGreen.jpg,,
,,,,,,,,,,,,,,,,,,4,,,,,,,,,,,,,,,,,,,,,,,,,,,613a3838d8479f4bc5723974,001,2021-12-05_20h17.51.294,jm_natural_scene_simialrity_2-12-2021,2021.2.3,Win32,59.97361161,613a3838d8479f4bc5723974,61ad71e11ddd29ccf7a27d5b,61ad72a97e8cd868b15d234a,,,,,,50,96,1,0,0,response1disk,0.7999,14,-15,1,0,0,rectangle,14,-15,1,0,0,-1,2,"[116,55,152,161,0,39,53,56,21,41]",14,-15,1,0,0,1,77,158,42,1,Pink,Pink.jpg,Pink,Pink.jpg,,
,,,,,,,,,,,,,,,,,,-4,,,,,,,,,,,,,,,,,,,,,,,,,,,613a3838d8479f4bc5723974,001,2021-12-05_20h17.51.294,jm_natural_scene_simialrity_2-12-2021,2021.2.3,Win32,59.97361161,613a3838d8479f4bc5723974,61ad71e11ddd29ccf7a27d5b,61ad72a97e8cd868b15d234a,,,,,,-33,108,1,0,0,response7disk,0.8,4,4,1,0,0,rectangle,4,4,1,0,0,-1,-2,"[116,55,152,161,0,39,53,56,21,41]",4,4,1,0,0,1,78,159,65,1,Purple,Purple.jpg,LightGreen,LightGreen.jpg,,
,,,,,,,,,,,,,,,,,,-4,,,,,,,,,,,,,,,,,,,,,,,,,,,613a3838d8479f4bc5723974,001,2021-12-05_20h17.51.294,jm_natural_scene_simialrity_2-12-2021,2021.2.3,Win32,59.97361161,613a3838d8479f4bc5723974,61ad71e11ddd29ccf7a27d5b,61ad72a97e8cd868b15d234a,,,,,,-36,74,1,0,0,response7disk,0.5162,13,-19,1,0,0,rectangle,57,-124,1,0,0,1,1,"[116,55,152,161,0,39,53,56,21,41]",-7,-3,1,0,0,1,79,160,8,1,Red,Red.jpg,Purple,Purple.jpg,response3disk_3,rectangle
,,,,,,,,,,,,,,,,,,1,,,,,,,,,,,,,,,,,,,,,,,,,,,613a3838d8479f4bc5723974,001,2021-12-05_20h17.51.294,jm_natural_scene_simialrity_2-12-2021,2021.2.3,Win32,59.97361161,613a3838d8479f4bc5723974,61ad71e11ddd29ccf7a27d5b,61ad72a97e8cd868b15d234a,,,,,,34,-95,1,0,0,response3disk,1.033,-2,0,1,0,0,rectangle,-2,0,1,0,0,1,-4,"[116,55,152,161,0,39,53,56,21,41]",-2,0,1,0,0,1,80,161,27,1,DarkGreen,DarkGreen.jpg,DarkBlue,DarkBlue.jpg,,
