key_resp.keys,key_resp.rt,key_resp_16.keys,key_resp_16.rt,key_resp_2.keys,key_resp_2.rt,key_resp_3.keys,key_resp_3.rt,key_resp_19.keys,key_resp_19.rt,key_resp_10.keys,key_resp_10.rt,mouse_prac.x,mouse_prac.y,mouse_prac.leftButton,mouse_prac.midButton,mouse_prac.rightButton,mouse_prac.clicked_name,similarity,mouse_10.x,mouse_10.y,mouse_10.leftButton,mouse_10.midButton,mouse_10.rightButton,mouse_10.clicked_name,mouse_catch_prac.x,mouse_catch_prac.y,mouse_catch_prac.leftButton,mouse_catch_prac.midButton,mouse_catch_prac.rightButton,catchnumberprac,mouse_6.x,mouse_6.y,mouse_6.leftButton,mouse_6.midButton,mouse_6.rightButton,during_prac.thisRepN,during_prac.thisTrialN,during_prac.thisN,during_prac.thisIndex,during_prac.ran,trailimage1,trial1adress,trailimage2,trial2adress,participant,session,date,expName,psychopyVersion,OS,frameRate,PROLIFIC_PID,STUDY_ID,SESSION_ID,mouse_catch_prac.clicked_name,catchprac,mouse_6.clicked_name,key_resp_22.keys,key_resp_22.rt,mouse.x,mouse.y,mouse.leftButton,mouse.midButton,mouse.rightButton,mouse.clicked_name,response_time,mouse_2.x,mouse_2.y,mouse_2.leftButton,mouse_2.midButton,mouse_2.rightButton,mouse_2.clicked_name,mouse_3.x,mouse_3.y,mouse_3.leftButton,mouse_3.midButton,mouse_3.rightButton,catchresponse,catchnumber,catchtrialorder,mouse_11.x,mouse_11.y,mouse_11.leftButton,mouse_11.midButton,mouse_11.rightButton,trials_2.thisRepN,trials_2.thisTrialN,trials_2.thisN,trials_2.thisIndex,trials_2.ran,image1,image1adress,image2,image2adress,mouse_3.clicked_name,mouse_11.clicked_name
space,2.2041,space,0.9457,space,4.719,space,5.9418,space,32.4233,space,4.2789,54,105,1,0,0,response1disk_5,4,-4,-4,1,0,0,rectangle_8,-4,-4,1,0,0,-4,-4,-4,1,0,0,0,0,0,5,1,trail3,trail3.jpg,trail3,trail3.jpg,613a88917ff405c4017c9f25,001,2021-12-05_20h17.05.274,jm_natural_scene_simialrity_2-12-2021,2021.2.3,Win32,60.03121623,613a88917ff405c4017c9f25,61ad71e11ddd29ccf7a27d5b,61ad72843236e1261131cfbf,,,,,,,,,,,,,,,,,,,,,,,,,,,,,,,,,,,,,,,,,,
,,,,,,,,,,,,-52,119,1,0,0,response7disk_5,-4,0,6,1,0,0,rectangle_8,0,6,1,0,0,-4,0,6,1,0,0,0,1,1,2,1,trail1,trail1.jpg,trail3,trail3.jpg,613a88917ff405c4017c9f25,001,2021-12-05_20h17.05.274,jm_natural_scene_simialrity_2-12-2021,2021.2.3,Win32,60.03121623,613a88917ff405c4017c9f25,61ad71e11ddd29ccf7a27d5b,61ad72843236e1261131cfbf,,,,,,,,,,,,,,,,,,,,,,,,,,,,,,,,,,,,,,,,,,
,,,,,,,,,,,,-32,-95,1,0,0,response5disk_5,-1,9,-4,1,0,0,rectangle_8,31,-96,1,0,0,-4,-2,4,1,0,0,0,2,2,1,1,trail1,trail1.jpg,trail2,trail2.jpg,613a88917ff405c4017c9f25,001,2021-12-05_20h17.05.274,jm_natural_scene_simialrity_2-12-2021,2021.2.3,Win32,60.03121623,613a88917ff405c4017c9f25,61ad71e11ddd29ccf7a27d5b,61ad72843236e1261131cfbf,response3disk_7,1,rectangle_4,,,,,,,,,,,,,,,,,,,,,,,,,,,,,,,,,,,,,,,
,,,,,,,,,,,,-65,114,1,0,0,response7disk_5,-4,0,8,1,0,0,rectangle_8,0,8,1,0,0,-4,0,8,1,0,0,0,3,3,4,1,trail2,trail2.jpg,trail3,trail3.jpg,613a88917ff405c4017c9f25,001,2021-12-05_20h17.05.274,jm_natural_scene_simialrity_2-12-2021,2021.2.3,Win32,60.03121623,613a88917ff405c4017c9f25,61ad71e11ddd29ccf7a27d5b,61ad72843236e1261131cfbf,,,,,,,,,,,,,,,,,,,,,,,,,,,,,,,,,,,,,,,,,,
,,,,,,,,,,,,40,83,1,0,0,response1disk_5,4,-3,3,1,0,0,rectangle_8,-3,3,1,0,0,-4,-3,3,1,0,0,0,4,4,0,1,trail1,trail1.jpg,trail1,trail1.jpg,613a88917ff405c4017c9f25,001,2021-12-05_20h17.05.274,jm_natural_scene_simialrity_2-12-2021,2021.2.3,Win32,60.03121623,613a88917ff405c4017c9f25,61ad71e11ddd29ccf7a27d5b,61ad72843236e1261131cfbf,,,,,,,,,,,,,,,,,,,,,,,,,,,,,,,,,,,,,,,,,,
,,,,,,,,,,,,47,98,1,0,0,response1disk_5,4,2,-11,1,0,0,rectangle_8,2,-11,1,0,0,-4,2,-11,1,0,0,0,5,5,3,1,trail2,trail2.jpg,trail2,trail2.jpg,613a88917ff405c4017c9f25,001,2021-12-05_20h17.05.274,jm_natural_scene_simialrity_2-12-2021,2021.2.3,Win32,60.03121623,613a88917ff405c4017c9f25,61ad71e11ddd29ccf7a27d5b,61ad72843236e1261131cfbf,,,,,,,,,,,,,,,,,,,,,,,,,,,,,,,,,,,,,,,,,,
,,,,,,,,,,,,,,,,,,-3,,,,,,,,,,,,,,,,,,,,,,,,,,,613a88917ff405c4017c9f25,001,2021-12-05_20h17.05.274,jm_natural_scene_simialrity_2-12-2021,2021.2.3,Win32,60.03121623,613a88917ff405c4017c9f25,61ad71e11ddd29ccf7a27d5b,61ad72843236e1261131cfbf,,,,space,1.333,-93,69,1,0,0,response7disk,6.1465,-6,-3,1,0,0,rectangle,-6,-3,1,0,0,,-3,"[88,2,67,12,57,106,94,23,27,144]",-6,-3,1,0,0,0,0,0,55,1,Turquiose,Turquiose.jpg,Yellow,Yellow.jpg,,
,,,,,,,,,,,,,,,,,,1,,,,,,,,,,,,,,,,,,,,,,,,,,,613a88917ff405c4017c9f25,001,2021-12-05_20h17.05.274,jm_natural_scene_simialrity_2-12-2021,2021.2.3,Win32,60.03121623,613a88917ff405c4017c9f25,61ad71e11ddd29ccf7a27d5b,61ad72843236e1261131cfbf,,,,,,38,-83,1,0,0,response3disk,2.0997,-6,-6,1,0,0,rectangle,-66,-94,1,0,0,-1,-1,"[88,2,67,12,57,106,94,23,27,144]",4,2,1,0,0,0,1,1,5,1,Red,Red.jpg,LightBlue,LightBlue.jpg,response5disk_3,rectangle
,,,,,,,,,,,,,,,,,,-4,,,,,,,,,,,,,,,,,,,,,,,,,,,613a88917ff405c4017c9f25,001,2021-12-05_20h17.05.274,jm_natural_scene_simialrity_2-12-2021,2021.2.3,Win32,60.03121623,613a88917ff405c4017c9f25,61ad71e11ddd29ccf7a27d5b,61ad72843236e1261131cfbf,,,,,,-32,64,1,0,0,response7disk,1.3315,-11,-1,1,0,0,rectangle,-11,-1,1,0,0,-1,1,"[88,2,67,12,57,106,94,23,27,144]",-11,-1,1,0,0,0,2,2,33,1,Turquiose,Turquiose.jpg,Pink,Pink.jpg,,
,,,,,,,,,,,,,,,,,,-3,,,,,,,,,,,,,,,,,,,,,,,,,,,613a88917ff405c4017c9f25,001,2021-12-05_20h17.05.274,jm_natural_scene_simialrity_2-12-2021,2021.2.3,Win32,60.03121623,613a88917ff405c4017c9f25,61ad71e11ddd29ccf7a27d5b,61ad72843236e1261131cfbf,,,,,,-77,36,1,0,0,response7disk,1.8982,-8,-2,1,0,0,rectangle,-8,-2,1,0,0,-1,-2,"[88,2,67,12,57,106,94,23,27,144]",-8,-2,1,0,0,0,3,3,4,1,Red,Red.jpg,Turquiose,Turquiose.jpg,,
,,,,,,,,,,,,,,,,,,-4,,,,,,,,,,,,,,,,,,,,,,,,,,,613a88917ff405c4017c9f25,001,2021-12-05_20h17.05.274,jm_natural_scene_simialrity_2-12-2021,2021.2.3,Win32,60.03121623,613a88917ff405c4017c9f25,61ad71e11ddd29ccf7a27d5b,61ad72843236e1261131cfbf,,,,,,-36,128,1,0,0,response7disk,1.182,-8,-2,1,0,0,rectangle,-8,-2,1,0,0,-1,3,"[88,2,67,12,57,106,94,23,27,144]",-8,-2,1,0,0,0,4,4,78,1,Pink,Pink.jpg,DarkBlue,DarkBlue.jpg,,
,,,,,,,,,,,,,,,,,,1,,,,,,,,,,,,,,,,,,,,,,,,,,,613a88917ff405c4017c9f25,001,2021-12-05_20h17.05.274,jm_natural_scene_simialrity_2-12-2021,2021.2.3,Win32,60.03121623,613a88917ff405c4017c9f25,61ad71e11ddd29ccf7a27d5b,61ad72843236e1261131cfbf,,,,,,45,-71,1,0,0,response3disk,2.1632,-11,13,1,0,0,rectangle,-11,13,1,0,0,-1,-3,"[88,2,67,12,57,106,94,23,27,144]",-11,13,1,0,0,0,5,5,31,1,Turquiose,Turquiose.jpg,LightBlue,LightBlue.jpg,,
,,,,,,,,,,,,,,,,,,-4,,,,,,,,,,,,,,,,,,,,,,,,,,,613a88917ff405c4017c9f25,001,2021-12-05_20h17.05.274,jm_natural_scene_simialrity_2-12-2021,2021.2.3,Win32,60.03121623,613a88917ff405c4017c9f25,61ad71e11ddd29ccf7a27d5b,61ad72843236e1261131cfbf,,,,,,-49,72,1,0,0,response7disk,2.4954,-2,4,1,0,0,rectangle,-2,4,1,0,0,-1,2,"[88,2,67,12,57,106,94,23,27,144]",-2,4,1,0,0,0,6,6,16,1,Yellow,Yellow.jpg,Purple,Purple.jpg,,
,,,,,,,,,,,,,,,,,,-4,,,,,,,,,,,,,,,,,,,,,,,,,,,613a88917ff405c4017c9f25,001,2021-12-05_20h17.05.274,jm_natural_scene_simialrity_2-12-2021,2021.2.3,Win32,60.03121623,613a88917ff405c4017c9f25,61ad71e11ddd29ccf7a27d5b,61ad72843236e1261131cfbf,,,,,,-46,83,1,0,0,response7disk,1.3319,-11,7,1,0,0,rectangle,-11,7,1,0,0,-1,-2,"[88,2,67,12,57,106,94,23,27,144]",-11,7,1,0,0,0,7,7,54,1,DarkGreen,DarkGreen.jpg,Yellow,Yellow.jpg,,
,,,,,,,,,,,,,,,,,,-2,,,,,,,,,,,,,,,,,,,,,,,,,,,613a88917ff405c4017c9f25,001,2021-12-05_20h17.05.274,jm_natural_scene_simialrity_2-12-2021,2021.2.3,Win32,60.03121623,613a88917ff405c4017c9f25,61ad71e11ddd29ccf7a27d5b,61ad72843236e1261131cfbf,,,,,,-74,-49,1,0,0,response5disk,2.9492,5,-7,1,0,0,rectangle,5,-7,1,0,0,-1,1,"[88,2,67,12,57,106,94,23,27,144]",5,-7,1,0,0,0,8,8,49,1,LightBlue,LightBlue.jpg,Red,Red.jpg,,
,,,,,,,,,,,,,,,,,,2,,,,,,,,,,,,,,,,,,,,,,,,,,,613a88917ff405c4017c9f25,001,2021-12-05_20h17.05.274,jm_natural_scene_simialrity_2-12-2021,2021.2.3,Win32,60.03121623,613a88917ff405c4017c9f25,61ad71e11ddd29ccf7a27d5b,61ad72843236e1261131cfbf,,,,,,94,-45,1,0,0,response3disk,1.6343,-12,4,1,0,0,rectangle,-12,4,1,0,0,-1,3,"[88,2,67,12,57,106,94,23,27,144]",-12,4,1,0,0,0,9,9,74,1,Purple,Purple.jpg,Turquiose,Turquiose.jpg,,
,,,,,,,,,,,,,,,,,,-4,,,,,,,,,,,,,,,,,,,,,,,,,,,613a88917ff405c4017c9f25,001,2021-12-05_20h17.05.274,jm_natural_scene_simialrity_2-12-2021,2021.2.3,Win32,60.03121623,613a88917ff405c4017c9f25,61ad71e11ddd29ccf7a27d5b,61ad72843236e1261131cfbf,,,,,,-38,70,1,0,0,response7disk,1.7315,-5,9,1,0,0,rectangle,-5,9,1,0,0,-1,1,"[88,2,67,12,57,106,94,23,27,144]",-5,9,1,0,0,0,10,10,12,1,Yellow,Yellow.jpg,Turquiose,Turquiose.jpg,,
,,,,,,,,,,,,,,,,,,4,,,,,,,,,,,,,,,,,,,,,,,,,,,613a88917ff405c4017c9f25,001,2021-12-05_20h17.05.274,jm_natural_scene_simialrity_2-12-2021,2021.2.3,Win32,60.03121623,613a88917ff405c4017c9f25,61ad71e11ddd29ccf7a27d5b,61ad72843236e1261131cfbf,,,,,,37,87,1,0,0,response1disk,1.2154,-3,2,1,0,0,rectangle,-109,45,1,0,0,-3,-3,"[88,2,67,12,57,106,94,23,27,144]",-4,5,1,0,0,0,11,11,0,1,Red,Red.jpg,Red,Red.jpg,response7disk_3,rectangle
,,,,,,,,,,,,,,,,,,-4,,,,,,,,,,,,,,,,,,,,,,,,,,,613a88917ff405c4017c9f25,001,2021-12-05_20h17.05.274,jm_natural_scene_simialrity_2-12-2021,2021.2.3,Win32,60.03121623,613a88917ff405c4017c9f25,61ad71e11ddd29ccf7a27d5b,61ad72843236e1261131cfbf,,,,,,-43,82,1,0,0,response7disk,2.9307,-3,5,1,0,0,rectangle,-3,5,1,0,0,-3,-1,"[88,2,67,12,57,106,94,23,27,144]",-3,5,1,0,0,0,12,12,37,1,LightBlue,LightBlue.jpg,Pink,Pink.jpg,,
,,,,,,,,,,,,,,,,,,-4,,,,,,,,,,,,,,,,,,,,,,,,,,,613a88917ff405c4017c9f25,001,2021-12-05_20h17.05.274,jm_natural_scene_simialrity_2-12-2021,2021.2.3,Win32,60.03121623,613a88917ff405c4017c9f25,61ad71e11ddd29ccf7a27d5b,61ad72843236e1261131cfbf,,,,,,-48,126,1,0,0,response7disk,2.5642,-4,-2,1,0,0,rectangle,-4,-2,1,0,0,-3,1,"[88,2,67,12,57,106,94,23,27,144]",-4,-2,1,0,0,0,13,13,2,1,Red,Red.jpg,LightGreen,LightGreen.jpg,,
,,,,,,,,,,,,,,,,,,-2,,,,,,,,,,,,,,,,,,,,,,,,,,,613a88917ff405c4017c9f25,001,2021-12-05_20h17.05.274,jm_natural_scene_simialrity_2-12-2021,2021.2.3,Win32,60.03121623,613a88917ff405c4017c9f25,61ad71e11ddd29ccf7a27d5b,61ad72843236e1261131cfbf,,,,,,-76,-38,1,0,0,response5disk,1.4842,-3,-7,1,0,0,rectangle,-3,-7,1,0,0,-3,-3,"[88,2,67,12,57,106,94,23,27,144]",-3,-7,1,0,0,0,14,14,21,1,LightGreen,LightGreen.jpg,DarkBlue,DarkBlue.jpg,,
,,,,,,,,,,,,,,,,,,-2,,,,,,,,,,,,,,,,,,,,,,,,,,,613a88917ff405c4017c9f25,001,2021-12-05_20h17.05.274,jm_natural_scene_simialrity_2-12-2021,2021.2.3,Win32,60.03121623,613a88917ff405c4017c9f25,61ad71e11ddd29ccf7a27d5b,61ad72843236e1261131cfbf,,,,,,-87,-33,1,0,0,response5disk,1.2493,-8,3,1,0,0,rectangle,-8,3,1,0,0,-3,3,"[88,2,67,12,57,106,94,23,27,144]",-8,3,1,0,0,0,15,15,62,1,LightBlue,LightBlue.jpg,LightGreen,LightGreen.jpg,,
,,,,,,,,,,,,,,,,,,-3,,,,,,,,,,,,,,,,,,,,,,,,,,,613a88917ff405c4017c9f25,001,2021-12-05_20h17.05.274,jm_natural_scene_simialrity_2-12-2021,2021.2.3,Win32,60.03121623,613a88917ff405c4017c9f25,61ad71e11ddd29ccf7a27d5b,61ad72843236e1261131cfbf,,,,,,-59,54,1,0,0,response7disk,1.2341,-12,4,1,0,0,rectangle,-12,4,1,0,0,-3,2,"[88,2,67,12,57,106,94,23,27,144]",-12,4,1,0,0,0,16,16,64,1,Pink,Pink.jpg,LightGreen,LightGreen.jpg,,
,,,,,,,,,,,,,,,,,,-4,,,,,,,,,,,,,,,,,,,,,,,,,,,613a88917ff405c4017c9f25,001,2021-12-05_20h17.05.274,jm_natural_scene_simialrity_2-12-2021,2021.2.3,Win32,60.03121623,613a88917ff405c4017c9f25,61ad71e11ddd29ccf7a27d5b,61ad72843236e1261131cfbf,,,,,,-31,71,1,0,0,response7disk,1.3491,-5,-4,1,0,0,rectangle,-5,-4,1,0,0,-3,-2,"[88,2,67,12,57,106,94,23,27,144]",-5,-4,1,0,0,0,17,17,40,1,DarkBlue,DarkBlue.jpg,Pink,Pink.jpg,,
,,,,,,,,,,,,,,,,,,-1,,,,,,,,,,,,,,,,,,,,,,,,,,,613a88917ff405c4017c9f25,001,2021-12-05_20h17.05.274,jm_natural_scene_simialrity_2-12-2021,2021.2.3,Win32,60.03121623,613a88917ff405c4017c9f25,61ad71e11ddd29ccf7a27d5b,61ad72843236e1261131cfbf,,,,,,-40,-82,1,0,0,response5disk,2.6975,-6,-8,1,0,0,rectangle,-6,-8,1,0,0,-3,-4,"[88,2,67,12,57,106,94,23,27,144]",-6,-8,1,0,0,0,18,18,8,1,Red,Red.jpg,Purple,Purple.jpg,,
,,,,,,,,,,,,,,,,,,-3,,,,,,,,,,,,,,,,,,,,,,,,,,,613a88917ff405c4017c9f25,001,2021-12-05_20h17.05.274,jm_natural_scene_simialrity_2-12-2021,2021.2.3,Win32,60.03121623,613a88917ff405c4017c9f25,61ad71e11ddd29ccf7a27d5b,61ad72843236e1261131cfbf,,,,,,-105,27,1,0,0,response7disk,2.417,3,3,1,0,0,rectangle,3,3,1,0,0,-3,2,"[88,2,67,12,57,106,94,23,27,144]",3,3,1,0,0,0,19,19,26,1,DarkGreen,DarkGreen.jpg,LightBlue,LightBlue.jpg,,
,,,,,,,,,,,,,,,,,,2,,,,,,,,,,,,,,,,,,,,,,,,,,,613a88917ff405c4017c9f25,001,2021-12-05_20h17.05.274,jm_natural_scene_simialrity_2-12-2021,2021.2.3,Win32,60.03121623,613a88917ff405c4017c9f25,61ad71e11ddd29ccf7a27d5b,61ad72843236e1261131cfbf,,,,,,62,-39,1,0,0,response3disk,2.0504,5,10,1,0,0,rectangle,5,10,1,0,0,-3,-3,"[88,2,67,12,57,106,94,23,27,144]",5,10,1,0,0,0,20,20,1,1,Red,Red.jpg,Yellow,Yellow.jpg,,
,,,,,,,,,,,,,,,,,,-3,,,,,,,,,,,,,,,,,,,,,,,,,,,613a88917ff405c4017c9f25,001,2021-12-05_20h17.05.274,jm_natural_scene_simialrity_2-12-2021,2021.2.3,Win32,60.03121623,613a88917ff405c4017c9f25,61ad71e11ddd29ccf7a27d5b,61ad72843236e1261131cfbf,,,,,,-105,55,1,0,0,response7disk,2.1812,-10,4,1,0,0,rectangle,-10,4,1,0,0,-3,-2,"[88,2,67,12,57,106,94,23,27,144]",-10,4,1,0,0,0,21,21,50,1,DarkBlue,DarkBlue.jpg,Red,Red.jpg,,
,,,,,,,,,,,,,,,,,,-1,,,,,,,,,,,,,,,,,,,,,,,,,,,613a88917ff405c4017c9f25,001,2021-12-05_20h17.05.274,jm_natural_scene_simialrity_2-12-2021,2021.2.3,Win32,60.03121623,613a88917ff405c4017c9f25,61ad71e11ddd29ccf7a27d5b,61ad72843236e1261131cfbf,,,,,,-39,-74,1,0,0,response5disk,2.4627,-10,-8,1,0,0,rectangle,-45,87,1,0,0,-4,-4,"[88,2,67,12,57,106,94,23,27,144]",2,0,1,0,0,0,22,22,41,1,DarkBlue,DarkBlue.jpg,Purple,Purple.jpg,response7disk_3,rectangle
,,,,,,,,,,,,,,,,,,4,,,,,,,,,,,,,,,,,,,,,,,,,,,613a88917ff405c4017c9f25,001,2021-12-05_20h17.05.274,jm_natural_scene_simialrity_2-12-2021,2021.2.3,Win32,60.03121623,613a88917ff405c4017c9f25,61ad71e11ddd29ccf7a27d5b,61ad72843236e1261131cfbf,,,,,,32,93,1,0,0,response1disk,1.2155,-3,10,1,0,0,rectangle,-3,10,1,0,0,-4,-3,"[88,2,67,12,57,106,94,23,27,144]",-3,10,1,0,0,0,23,23,17,1,LightGreen,LightGreen.jpg,LightGreen,LightGreen.jpg,,
,,,,,,,,,,,,,,,,,,-4,,,,,,,,,,,,,,,,,,,,,,,,,,,613a88917ff405c4017c9f25,001,2021-12-05_20h17.05.274,jm_natural_scene_simialrity_2-12-2021,2021.2.3,Win32,60.03121623,613a88917ff405c4017c9f25,61ad71e11ddd29ccf7a27d5b,61ad72843236e1261131cfbf,,,,,,-34,74,1,0,0,response7disk,1.5505,0,-15,1,0,0,rectangle,0,-15,1,0,0,-4,-4,"[88,2,67,12,57,106,94,23,27,144]",0,-15,1,0,0,0,24,24,53,1,LightGreen,LightGreen.jpg,Yellow,Yellow.jpg,,
,,,,,,,,,,,,,,,,,,-2,,,,,,,,,,,,,,,,,,,,,,,,,,,613a88917ff405c4017c9f25,001,2021-12-05_20h17.05.274,jm_natural_scene_simialrity_2-12-2021,2021.2.3,Win32,60.03121623,613a88917ff405c4017c9f25,61ad71e11ddd29ccf7a27d5b,61ad72843236e1261131cfbf,,,,,,-92,-29,1,0,0,response5disk,4.6976,-14,9,1,0,0,rectangle,-14,9,1,0,0,-4,-1,"[88,2,67,12,57,106,94,23,27,144]",-14,9,1,0,0,0,25,25,10,1,Yellow,Yellow.jpg,LightGreen,LightGreen.jpg,,
,,,,,,,,,,,,,,,,,,-4,,,,,,,,,,,,,,,,,,,,,,,,,,,613a88917ff405c4017c9f25,001,2021-12-05_20h17.05.274,jm_natural_scene_simialrity_2-12-2021,2021.2.3,Win32,60.03121623,613a88917ff405c4017c9f25,61ad71e11ddd29ccf7a27d5b,61ad72843236e1261131cfbf,,,,,,-49,93,1,0,0,response7disk,2.4499,4,0,1,0,0,rectangle,-39,-115,1,0,0,-1,-1,"[88,2,67,12,57,106,94,23,27,144]",-4,0,1,0,0,0,26,26,14,1,Yellow,Yellow.jpg,DarkBlue,DarkBlue.jpg,response5disk_3,rectangle
,,,,,,,,,,,,,,,,,,1,,,,,,,,,,,,,,,,,,,,,,,,,,,613a88917ff405c4017c9f25,001,2021-12-05_20h17.05.274,jm_natural_scene_simialrity_2-12-2021,2021.2.3,Win32,60.03121623,613a88917ff405c4017c9f25,61ad71e11ddd29ccf7a27d5b,61ad72843236e1261131cfbf,,,,,,27,-75,1,0,0,response3disk,2.1145,-12,8,1,0,0,rectangle,-12,8,1,0,0,-1,1,"[88,2,67,12,57,106,94,23,27,144]",-12,8,1,0,0,0,27,27,58,1,Pink,Pink.jpg,Yellow,Yellow.jpg,,
,,,,,,,,,,,,,,,,,,4,,,,,,,,,,,,,,,,,,,,,,,,,,,613a88917ff405c4017c9f25,001,2021-12-05_20h17.05.274,jm_natural_scene_simialrity_2-12-2021,2021.2.3,Win32,60.03121623,613a88917ff405c4017c9f25,61ad71e11ddd29ccf7a27d5b,61ad72843236e1261131cfbf,,,,,,58,100,1,0,0,response1disk,1.4152,-11,0,1,0,0,rectangle,-11,0,1,0,0,-1,-3,"[88,2,67,12,57,106,94,23,27,144]",-11,0,1,0,0,0,28,28,9,1,Yellow,Yellow.jpg,Yellow,Yellow.jpg,,
,,,,,,,,,,,,,,,,,,3,,,,,,,,,,,,,,,,,,,,,,,,,,,613a88917ff405c4017c9f25,001,2021-12-05_20h17.05.274,jm_natural_scene_simialrity_2-12-2021,2021.2.3,Win32,60.03121623,613a88917ff405c4017c9f25,61ad71e11ddd29ccf7a27d5b,61ad72843236e1261131cfbf,,,,,,65,43,1,0,0,response1disk,2.5649,-15,4,1,0,0,rectangle,-15,4,1,0,0,-1,-1,"[88,2,67,12,57,106,94,23,27,144]",-15,4,1,0,0,0,29,29,18,1,LightGreen,LightGreen.jpg,DarkGreen,DarkGreen.jpg,,
,,,,,,,,,,,,,,,,,,1,,,,,,,,,,,,,,,,,,,,,,,,,,,613a88917ff405c4017c9f25,001,2021-12-05_20h17.05.274,jm_natural_scene_simialrity_2-12-2021,2021.2.3,Win32,60.03121623,613a88917ff405c4017c9f25,61ad71e11ddd29ccf7a27d5b,61ad72843236e1261131cfbf,,,,,,49,-105,1,0,0,response3disk,1.998,-4,9,1,0,0,rectangle,-4,9,1,0,0,-1,-2,"[88,2,67,12,57,106,94,23,27,144]",-4,9,1,0,0,0,30,30,25,1,DarkGreen,DarkGreen.jpg,Turquiose,Turquiose.jpg,,
,,,,,,,,,,,,,,,,,,-3,,,,,,,,,,,,,,,,,,,,,,,,,,,613a88917ff405c4017c9f25,001,2021-12-05_20h17.05.274,jm_natural_scene_simialrity_2-12-2021,2021.2.3,Win32,60.03121623,613a88917ff405c4017c9f25,61ad71e11ddd29ccf7a27d5b,61ad72843236e1261131cfbf,,,,,,-101,32,1,0,0,response7disk,2.9611,-13,-2,1,0,0,rectangle,-13,-2,1,0,0,-1,-4,"[88,2,67,12,57,106,94,23,27,144]",-13,-2,1,0,0,0,31,31,3,1,Red,Red.jpg,DarkGreen,DarkGreen.jpg,,
,,,,,,,,,,,,,,,,,,4,,,,,,,,,,,,,,,,,,,,,,,,,,,613a88917ff405c4017c9f25,001,2021-12-05_20h17.05.274,jm_natural_scene_simialrity_2-12-2021,2021.2.3,Win32,60.03121623,613a88917ff405c4017c9f25,61ad71e11ddd29ccf7a27d5b,61ad72843236e1261131cfbf,,,,,,47,79,1,0,0,response1disk,1.1511,-3,2,1,0,0,rectangle,-3,2,1,0,0,-1,1,"[88,2,67,12,57,106,94,23,27,144]",-3,2,1,0,0,0,32,32,35,1,LightBlue,LightBlue.jpg,LightBlue,LightBlue.jpg,,
,,,,,,,,,,,,,,,,,,-1,,,,,,,,,,,,,,,,,,,,,,,,,,,613a88917ff405c4017c9f25,001,2021-12-05_20h17.05.274,jm_natural_scene_simialrity_2-12-2021,2021.2.3,Win32,60.03121623,613a88917ff405c4017c9f25,61ad71e11ddd29ccf7a27d5b,61ad72843236e1261131cfbf,,,,,,-46,-92,1,0,0,response5disk,1.6817,-1,17,1,0,0,rectangle,-1,17,1,0,0,-1,1,"[88,2,67,12,57,106,94,23,27,144]",-1,17,1,0,0,0,33,33,27,1,DarkGreen,DarkGreen.jpg,DarkBlue,DarkBlue.jpg,,
,,,,,,,,,,,,,,,,,,-2,,,,,,,,,,,,,,,,,,,,,,,,,,,613a88917ff405c4017c9f25,001,2021-12-05_20h17.05.274,jm_natural_scene_simialrity_2-12-2021,2021.2.3,Win32,60.03121623,613a88917ff405c4017c9f25,61ad71e11ddd29ccf7a27d5b,61ad72843236e1261131cfbf,,,,,,-80,-47,1,0,0,response5disk,1.5972,-1,-1,1,0,0,rectangle,-1,-1,1,0,0,-1,-3,"[88,2,67,12,57,106,94,23,27,144]",-1,-1,1,0,0,0,34,34,79,1,Purple,Purple.jpg,DarkBlue,DarkBlue.jpg,,
,,,,,,,,,,,,,,,,,,4,,,,,,,,,,,,,,,,,,,,,,,,,,,613a88917ff405c4017c9f25,001,2021-12-05_20h17.05.274,jm_natural_scene_simialrity_2-12-2021,2021.2.3,Win32,60.03121623,613a88917ff405c4017c9f25,61ad71e11ddd29ccf7a27d5b,61ad72843236e1261131cfbf,,,,,,38,102,1,0,0,response1disk,1.5337,-5,8,1,0,0,rectangle,-5,8,1,0,0,-1,3,"[88,2,67,12,57,106,94,23,27,144]",-5,8,1,0,0,0,35,35,39,1,DarkBlue,DarkBlue.jpg,DarkBlue,DarkBlue.jpg,,
,,,,,,,,,,,,,,,,,,2,,,,,,,,,,,,,,,,,,,,,,,,,,,613a88917ff405c4017c9f25,001,2021-12-05_20h17.05.274,jm_natural_scene_simialrity_2-12-2021,2021.2.3,Win32,60.03121623,613a88917ff405c4017c9f25,61ad71e11ddd29ccf7a27d5b,61ad72843236e1261131cfbf,,,,,,61,-38,1,0,0,response3disk,1.6318,-4,-1,1,0,0,rectangle,-4,-1,1,0,0,-1,-1,"[88,2,67,12,57,106,94,23,27,144]",-4,-1,1,0,0,0,36,36,7,1,Red,Red.jpg,Pink,Pink.jpg,,
,,,,,,,,,,,,,,,,,,4,,,,,,,,,,,,,,,,,,,,,,,,,,,613a88917ff405c4017c9f25,001,2021-12-05_20h17.05.274,jm_natural_scene_simialrity_2-12-2021,2021.2.3,Win32,60.03121623,613a88917ff405c4017c9f25,61ad71e11ddd29ccf7a27d5b,61ad72843236e1261131cfbf,,,,,,43,83,1,0,0,response1disk,1.1643,1,-8,1,0,0,rectangle,1,-8,1,0,0,-1,-1,"[88,2,67,12,57,106,94,23,27,144]",1,-8,1,0,0,0,37,37,44,1,Purple,Purple.jpg,Purple,Purple.jpg,,
,,,,,,,,,,,,,,,,,,-3,,,,,,,,,,,,,,,,,,,,,,,,,,,613a88917ff405c4017c9f25,001,2021-12-05_20h17.05.274,jm_natural_scene_simialrity_2-12-2021,2021.2.3,Win32,60.03121623,613a88917ff405c4017c9f25,61ad71e11ddd29ccf7a27d5b,61ad72843236e1261131cfbf,,,,,,-70,36,1,0,0,response7disk,1.7492,-7,5,1,0,0,rectangle,-7,5,1,0,0,-1,1,"[88,2,67,12,57,106,94,23,27,144]",-7,5,1,0,0,0,38,38,46,1,LightGreen,LightGreen.jpg,Red,Red.jpg,,
,,,,,,,,,,,,,,,,,,-4,,,,,,,,,,,,,,,,,,,,,,,,,,,613a88917ff405c4017c9f25,001,2021-12-05_20h17.05.274,jm_natural_scene_simialrity_2-12-2021,2021.2.3,Win32,60.03121623,613a88917ff405c4017c9f25,61ad71e11ddd29ccf7a27d5b,61ad72843236e1261131cfbf,,,,,,-32,83,1,0,0,response7disk,2.7663,-3,7,1,0,0,rectangle,-3,7,1,0,0,-1,-2,"[88,2,67,12,57,106,94,23,27,144]",-3,7,1,0,0,0,39,39,66,1,Turquiose,Turquiose.jpg,DarkGreen,DarkGreen.jpg,,
,,,,,,,,,,,,,,,,,,-4,,,,,,,,,,,,,,,,,,,,,,,,,,,613a88917ff405c4017c9f25,001,2021-12-05_20h17.05.274,jm_natural_scene_simialrity_2-12-2021,2021.2.3,Win32,60.03121623,613a88917ff405c4017c9f25,61ad71e11ddd29ccf7a27d5b,61ad72843236e1261131cfbf,,,,,,-43,92,1,0,0,response7disk,1.1655,3,-11,1,0,0,rectangle,3,-11,1,0,0,-1,-2,"[88,2,67,12,57,106,94,23,27,144]",3,-11,1,0,0,0,40,40,19,1,LightGreen,LightGreen.jpg,Turquiose,Turquiose.jpg,,
,,,,,,,,,,,,,,,,,,2,,,,,,,,,,,,,,,,,,,,,,,,,,,613a88917ff405c4017c9f25,001,2021-12-05_20h17.05.274,jm_natural_scene_simialrity_2-12-2021,2021.2.3,Win32,60.03121623,613a88917ff405c4017c9f25,61ad71e11ddd29ccf7a27d5b,61ad72843236e1261131cfbf,,,,,,41,-28,1,0,0,response3disk,1.4657,-12,2,1,0,0,rectangle,-12,2,1,0,0,-1,-2,"[88,2,67,12,57,106,94,23,27,144]",-12,2,1,0,0,0,41,41,38,1,LightBlue,LightBlue.jpg,Purple,Purple.jpg,,
,,,,,,,,,,,,,,,,,,-4,,,,,,,,,,,,,,,,,,,,,,,,,,,613a88917ff405c4017c9f25,001,2021-12-05_20h17.05.274,jm_natural_scene_simialrity_2-12-2021,2021.2.3,Win32,60.03121623,613a88917ff405c4017c9f25,61ad71e11ddd29ccf7a27d5b,61ad72843236e1261131cfbf,,,,,,-41,83,1,0,0,response7disk,1.0854,-1,-10,1,0,0,rectangle,-1,-10,1,0,0,-1,-1,"[88,2,67,12,57,106,94,23,27,144]",-1,-10,1,0,0,0,42,42,11,1,Yellow,Yellow.jpg,DarkGreen,DarkGreen.jpg,,
,,,,,,,,,,,,,,,,,,4,,,,,,,,,,,,,,,,,,,,,,,,,,,613a88917ff405c4017c9f25,001,2021-12-05_20h17.05.274,jm_natural_scene_simialrity_2-12-2021,2021.2.3,Win32,60.03121623,613a88917ff405c4017c9f25,61ad71e11ddd29ccf7a27d5b,61ad72843236e1261131cfbf,,,,,,24,72,1,0,0,response1disk,1.0824,-6,12,1,0,0,rectangle,-6,12,1,0,0,-1,-1,"[88,2,67,12,57,106,94,23,27,144]",-6,12,1,0,0,0,43,43,30,1,Turquiose,Turquiose.jpg,Turquiose,Turquiose.jpg,,
,,,,,,,,,,,,,,,,,,2,,,,,,,,,,,,,,,,,,,,,,,,,,,613a88917ff405c4017c9f25,001,2021-12-05_20h17.05.274,jm_natural_scene_simialrity_2-12-2021,2021.2.3,Win32,60.03121623,613a88917ff405c4017c9f25,61ad71e11ddd29ccf7a27d5b,61ad72843236e1261131cfbf,,,,,,52,-30,1,0,0,response3disk,1.9807,-17,11,1,0,0,rectangle,-17,11,1,0,0,-1,2,"[88,2,67,12,57,106,94,23,27,144]",-17,11,1,0,0,0,44,44,80,1,Purple,Purple.jpg,Pink,Pink.jpg,,
,,,,,,,,,,,,,,,,,,-1,,,,,,,,,,,,,,,,,,,,,,,,,,,613a88917ff405c4017c9f25,001,2021-12-05_20h17.05.274,jm_natural_scene_simialrity_2-12-2021,2021.2.3,Win32,60.03121623,613a88917ff405c4017c9f25,61ad71e11ddd29ccf7a27d5b,61ad72843236e1261131cfbf,,,,,,-37,-58,1,0,0,response5disk,1.665,-6,1,1,0,0,rectangle,-6,1,1,0,0,-1,2,"[88,2,67,12,57,106,94,23,27,144]",-6,1,1,0,0,0,45,45,23,1,LightGreen,LightGreen.jpg,Purple,Purple.jpg,,
,,,,,,,,,,,,,,,,,,-3,,,,,,,,,,,,,,,,,,,,,,,,,,,613a88917ff405c4017c9f25,001,2021-12-05_20h17.05.274,jm_natural_scene_simialrity_2-12-2021,2021.2.3,Win32,60.03121623,613a88917ff405c4017c9f25,61ad71e11ddd29ccf7a27d5b,61ad72843236e1261131cfbf,,,,,,-82,44,1,0,0,response7disk,1.4654,-2,10,1,0,0,rectangle,-2,10,1,0,0,-1,1,"[88,2,67,12,57,106,94,23,27,144]",-2,10,1,0,0,0,46,46,57,1,DarkBlue,DarkBlue.jpg,Yellow,Yellow.jpg,,
,,,,,,,,,,,,,,,,,,-2,,,,,,,,,,,,,,,,,,,,,,,,,,,613a88917ff405c4017c9f25,001,2021-12-05_20h17.05.274,jm_natural_scene_simialrity_2-12-2021,2021.2.3,Win32,60.03121623,613a88917ff405c4017c9f25,61ad71e11ddd29ccf7a27d5b,61ad72843236e1261131cfbf,,,,,,-95,-47,1,0,0,response5disk,3.9778,4,3,1,0,0,rectangle,4,3,1,0,0,-1,3,"[88,2,67,12,57,106,94,23,27,144]",4,3,1,0,0,0,47,47,36,1,LightBlue,LightBlue.jpg,DarkBlue,DarkBlue.jpg,,
,,,,,,,,,,,,,,,,,,-4,,,,,,,,,,,,,,,,,,,,,,,,,,,613a88917ff405c4017c9f25,001,2021-12-05_20h17.05.274,jm_natural_scene_simialrity_2-12-2021,2021.2.3,Win32,60.03121623,613a88917ff405c4017c9f25,61ad71e11ddd29ccf7a27d5b,61ad72843236e1261131cfbf,,,,,,-39,108,1,0,0,response7disk,2.231,-9,15,1,0,0,rectangle,-9,15,1,0,0,-1,2,"[88,2,67,12,57,106,94,23,27,144]",-9,15,1,0,0,0,48,48,6,1,Red,Red.jpg,DarkBlue,DarkBlue.jpg,,
,,,,,,,,,,,,,,,,,,4,,,,,,,,,,,,,,,,,,,,,,,,,,,613a88917ff405c4017c9f25,001,2021-12-05_20h17.05.274,jm_natural_scene_simialrity_2-12-2021,2021.2.3,Win32,60.03121623,613a88917ff405c4017c9f25,61ad71e11ddd29ccf7a27d5b,61ad72843236e1261131cfbf,,,,,,42,101,1,0,0,response1disk,0.968,-3,14,1,0,0,rectangle,-3,14,1,0,0,-1,-3,"[88,2,67,12,57,106,94,23,27,144]",-3,14,1,0,0,0,49,49,24,1,DarkGreen,DarkGreen.jpg,DarkGreen,DarkGreen.jpg,,
,,,,,,,,,,,,,,,,,,-3,,,,,,,,,,,,,,,,,,,,,,,,,,,613a88917ff405c4017c9f25,001,2021-12-05_20h17.05.274,jm_natural_scene_simialrity_2-12-2021,2021.2.3,Win32,60.03121623,613a88917ff405c4017c9f25,61ad71e11ddd29ccf7a27d5b,61ad72843236e1261131cfbf,,,,,,-97,47,1,0,0,response7disk,2.1979,-6,6,1,0,0,rectangle,-6,6,1,0,0,-1,2,"[88,2,67,12,57,106,94,23,27,144]",-6,6,1,0,0,0,50,50,68,1,DarkBlue,DarkBlue.jpg,DarkGreen,DarkGreen.jpg,,
,,,,,,,,,,,,,,,,,,-4,,,,,,,,,,,,,,,,,,,,,,,,,,,613a88917ff405c4017c9f25,001,2021-12-05_20h17.05.274,jm_natural_scene_simialrity_2-12-2021,2021.2.3,Win32,60.03121623,613a88917ff405c4017c9f25,61ad71e11ddd29ccf7a27d5b,61ad72843236e1261131cfbf,,,,,,-57,100,1,0,0,response7disk,1.7177,-5,2,1,0,0,rectangle,-5,2,1,0,0,-1,-2,"[88,2,67,12,57,106,94,23,27,144]",-5,2,1,0,0,0,51,51,56,1,LightBlue,LightBlue.jpg,Yellow,Yellow.jpg,,
,,,,,,,,,,,,,,,,,,-2,,,,,,,,,,,,,,,,,,,,,,,,,,,613a88917ff405c4017c9f25,001,2021-12-05_20h17.05.274,jm_natural_scene_simialrity_2-12-2021,2021.2.3,Win32,60.03121623,613a88917ff405c4017c9f25,61ad71e11ddd29ccf7a27d5b,61ad72843236e1261131cfbf,,,,,,-100,-46,1,0,0,response5disk,1.8155,-1,-4,1,0,0,rectangle,-1,-4,1,0,0,-1,-1,"[88,2,67,12,57,106,94,23,27,144]",-1,-4,1,0,0,0,52,52,32,1,Turquiose,Turquiose.jpg,DarkBlue,DarkBlue.jpg,,
,,,,,,,,,,,,,,,,,,-3,,,,,,,,,,,,,,,,,,,,,,,,,,,613a88917ff405c4017c9f25,001,2021-12-05_20h17.05.274,jm_natural_scene_simialrity_2-12-2021,2021.2.3,Win32,60.03121623,613a88917ff405c4017c9f25,61ad71e11ddd29ccf7a27d5b,61ad72843236e1261131cfbf,,,,,,-89,39,1,0,0,response7disk,1.3826,-6,9,1,0,0,rectangle,-6,9,1,0,0,-1,-1,"[88,2,67,12,57,106,94,23,27,144]",-6,9,1,0,0,0,53,53,75,1,DarkBlue,DarkBlue.jpg,LightBlue,LightBlue.jpg,,
,,,,,,,,,,,,,,,,,,-3,,,,,,,,,,,,,,,,,,,,,,,,,,,613a88917ff405c4017c9f25,001,2021-12-05_20h17.05.274,jm_natural_scene_simialrity_2-12-2021,2021.2.3,Win32,60.03121623,613a88917ff405c4017c9f25,61ad71e11ddd29ccf7a27d5b,61ad72843236e1261131cfbf,,,,,,-73,44,1,0,0,response7disk,1.2488,-7,3,1,0,0,rectangle,-7,3,1,0,0,-1,-1,"[88,2,67,12,57,106,94,23,27,144]",-7,3,1,0,0,0,54,54,61,1,Turquiose,Turquiose.jpg,LightGreen,LightGreen.jpg,,
,,,,,,,,,,,,,,,,,,-3,,,,,,,,,,,,,,,,,,,,,,,,,,,613a88917ff405c4017c9f25,001,2021-12-05_20h17.05.274,jm_natural_scene_simialrity_2-12-2021,2021.2.3,Win32,60.03121623,613a88917ff405c4017c9f25,61ad71e11ddd29ccf7a27d5b,61ad72843236e1261131cfbf,,,,,,-82,43,1,0,0,response7disk,2.05,0,4,1,0,0,rectangle,0,4,1,0,0,-1,2,"[88,2,67,12,57,106,94,23,27,144]",0,4,1,0,0,0,55,55,76,1,Pink,Pink.jpg,LightBlue,LightBlue.jpg,,
,,,,,,,,,,,,,,,,,,-3,,,,,,,,,,,,,,,,,,,,,,,,,,,613a88917ff405c4017c9f25,001,2021-12-05_20h17.05.274,jm_natural_scene_simialrity_2-12-2021,2021.2.3,Win32,60.03121623,613a88917ff405c4017c9f25,61ad71e11ddd29ccf7a27d5b,61ad72843236e1261131cfbf,,,,,,-57,48,1,0,0,response7disk,1.6318,-5,-19,1,0,0,rectangle,-52,-107,1,0,0,-1,-1,"[88,2,67,12,57,106,94,23,27,144]",-10,8,1,0,0,0,56,56,69,1,Pink,Pink.jpg,DarkGreen,DarkGreen.jpg,response5disk_3,rectangle
,,,,,,,,,,,,,,,,,,-3,,,,,,,,,,,,,,,,,,,,,,,,,,,613a88917ff405c4017c9f25,001,2021-12-05_20h17.05.274,jm_natural_scene_simialrity_2-12-2021,2021.2.3,Win32,60.03121623,613a88917ff405c4017c9f25,61ad71e11ddd29ccf7a27d5b,61ad72843236e1261131cfbf,,,,,,-75,43,1,0,0,response7disk,1.1825,-1,-10,1,0,0,rectangle,-1,-10,1,0,0,-1,1,"[88,2,67,12,57,106,94,23,27,144]",-1,-10,1,0,0,0,57,57,67,1,LightBlue,LightBlue.jpg,DarkGreen,DarkGreen.jpg,,
,,,,,,,,,,,,,,,,,,-1,,,,,,,,,,,,,,,,,,,,,,,,,,,613a88917ff405c4017c9f25,001,2021-12-05_20h17.05.274,jm_natural_scene_simialrity_2-12-2021,2021.2.3,Win32,60.03121623,613a88917ff405c4017c9f25,61ad71e11ddd29ccf7a27d5b,61ad72843236e1261131cfbf,,,,,,-37,-104,1,0,0,response5disk,2.9132,4,10,1,0,0,rectangle,4,10,1,0,0,-1,3,"[88,2,67,12,57,106,94,23,27,144]",4,10,1,0,0,0,58,58,52,1,Purple,Purple.jpg,Red,Red.jpg,,
,,,,,,,,,,,,,,,,,,-3,,,,,,,,,,,,,,,,,,,,,,,,,,,613a88917ff405c4017c9f25,001,2021-12-05_20h17.05.274,jm_natural_scene_simialrity_2-12-2021,2021.2.3,Win32,60.03121623,613a88917ff405c4017c9f25,61ad71e11ddd29ccf7a27d5b,61ad72843236e1261131cfbf,,,,,,-74,42,1,0,0,response7disk,1.5151,-16,14,1,0,0,rectangle,-16,14,1,0,0,-1,2,"[88,2,67,12,57,106,94,23,27,144]",-16,14,1,0,0,0,59,59,63,1,DarkBlue,DarkBlue.jpg,LightGreen,LightGreen.jpg,,
,,,,,,,,,,,,,,,,,,-4,,,,,,,,,,,,,,,,,,,,,,,,,,,613a88917ff405c4017c9f25,001,2021-12-05_20h17.05.274,jm_natural_scene_simialrity_2-12-2021,2021.2.3,Win32,60.03121623,613a88917ff405c4017c9f25,61ad71e11ddd29ccf7a27d5b,61ad72843236e1261131cfbf,,,,,,-38,86,1,0,0,response7disk,1.7813,-1,-11,1,0,0,rectangle,-1,-11,1,0,0,-1,1,"[88,2,67,12,57,106,94,23,27,144]",-1,-11,1,0,0,0,60,60,22,1,LightGreen,LightGreen.jpg,Pink,Pink.jpg,,
,,,,,,,,,,,,,,,,,,4,,,,,,,,,,,,,,,,,,,,,,,,,,,613a88917ff405c4017c9f25,001,2021-12-05_20h17.05.274,jm_natural_scene_simialrity_2-12-2021,2021.2.3,Win32,60.03121623,613a88917ff405c4017c9f25,61ad71e11ddd29ccf7a27d5b,61ad72843236e1261131cfbf,,,,,,38,92,1,0,0,response1disk,1.1643,1,11,1,0,0,rectangle,1,11,1,0,0,-1,-3,"[88,2,67,12,57,106,94,23,27,144]",1,11,1,0,0,0,61,61,42,1,Pink,Pink.jpg,Pink,Pink.jpg,,
,,,,,,,,,,,,,,,,,,-3,,,,,,,,,,,,,,,,,,,,,,,,,,,613a88917ff405c4017c9f25,001,2021-12-05_20h17.05.274,jm_natural_scene_simialrity_2-12-2021,2021.2.3,Win32,60.03121623,613a88917ff405c4017c9f25,61ad71e11ddd29ccf7a27d5b,61ad72843236e1261131cfbf,,,,,,-81,45,1,0,0,response7disk,2.164,2,13,1,0,0,rectangle,2,13,1,0,0,-1,-4,"[88,2,67,12,57,106,94,23,27,144]",2,13,1,0,0,0,62,62,47,1,DarkGreen,DarkGreen.jpg,Red,Red.jpg,,
,,,,,,,,,,,,,,,,,,-2,,,,,,,,,,,,,,,,,,,,,,,,,,,613a88917ff405c4017c9f25,001,2021-12-05_20h17.05.274,jm_natural_scene_simialrity_2-12-2021,2021.2.3,Win32,60.03121623,613a88917ff405c4017c9f25,61ad71e11ddd29ccf7a27d5b,61ad72843236e1261131cfbf,,,,,,-102,-23,1,0,0,response5disk,2.7637,-12,4,1,0,0,rectangle,-12,4,1,0,0,-1,1,"[88,2,67,12,57,106,94,23,27,144]",-12,4,1,0,0,0,63,63,45,1,Yellow,Yellow.jpg,Red,Red.jpg,,
,,,,,,,,,,,,,,,,,,-2,,,,,,,,,,,,,,,,,,,,,,,,,,,613a88917ff405c4017c9f25,001,2021-12-05_20h17.05.274,jm_natural_scene_simialrity_2-12-2021,2021.2.3,Win32,60.03121623,613a88917ff405c4017c9f25,61ad71e11ddd29ccf7a27d5b,61ad72843236e1261131cfbf,,,,,,-103,-54,1,0,0,response5disk,1.2152,0,1,1,0,0,rectangle,0,1,1,0,0,-1,-2,"[88,2,67,12,57,106,94,23,27,144]",0,1,1,0,0,0,64,64,71,1,LightBlue,LightBlue.jpg,Turquiose,Turquiose.jpg,,
,,,,,,,,,,,,,,,,,,-3,,,,,,,,,,,,,,,,,,,,,,,,,,,613a88917ff405c4017c9f25,001,2021-12-05_20h17.05.274,jm_natural_scene_simialrity_2-12-2021,2021.2.3,Win32,60.03121623,613a88917ff405c4017c9f25,61ad71e11ddd29ccf7a27d5b,61ad72843236e1261131cfbf,,,,,,-102,36,1,0,0,response7disk,1.3841,-2,-8,1,0,0,rectangle,-2,-8,1,0,0,-1,-3,"[88,2,67,12,57,106,94,23,27,144]",-2,-8,1,0,0,0,65,65,20,1,LightGreen,LightGreen.jpg,LightBlue,LightBlue.jpg,,
,,,,,,,,,,,,,,,,,,1,,,,,,,,,,,,,,,,,,,,,,,,,,,613a88917ff405c4017c9f25,001,2021-12-05_20h17.05.274,jm_natural_scene_simialrity_2-12-2021,2021.2.3,Win32,60.03121623,613a88917ff405c4017c9f25,61ad71e11ddd29ccf7a27d5b,61ad72843236e1261131cfbf,,,,,,49,-86,1,0,0,response3disk,1.5156,-12,5,1,0,0,rectangle,116,41,1,0,0,3,3,"[88,2,67,12,57,106,94,23,27,144]",-5,-7,1,0,0,0,66,66,15,1,Yellow,Yellow.jpg,Pink,Pink.jpg,response1disk_3,rectangle
,,,,,,,,,,,,,,,,,,-1,,,,,,,,,,,,,,,,,,,,,,,,,,,613a88917ff405c4017c9f25,001,2021-12-05_20h17.05.274,jm_natural_scene_simialrity_2-12-2021,2021.2.3,Win32,60.03121623,613a88917ff405c4017c9f25,61ad71e11ddd29ccf7a27d5b,61ad72843236e1261131cfbf,,,,,,-30,-66,1,0,0,response5disk,2.731,-10,-4,1,0,0,rectangle,-10,-4,1,0,0,3,3,"[88,2,67,12,57,106,94,23,27,144]",-10,-4,1,0,0,0,67,67,43,1,Pink,Pink.jpg,Purple,Purple.jpg,,
,,,,,,,,,,,,,,,,,,-3,,,,,,,,,,,,,,,,,,,,,,,,,,,613a88917ff405c4017c9f25,001,2021-12-05_20h17.05.274,jm_natural_scene_simialrity_2-12-2021,2021.2.3,Win32,60.03121623,613a88917ff405c4017c9f25,61ad71e11ddd29ccf7a27d5b,61ad72843236e1261131cfbf,,,,,,-54,32,1,0,0,response7disk,2.8641,-4,-2,1,0,0,rectangle,-4,-2,1,0,0,3,-2,"[88,2,67,12,57,106,94,23,27,144]",-4,-2,1,0,0,0,68,68,72,1,DarkBlue,DarkBlue.jpg,Turquiose,Turquiose.jpg,,
,,,,,,,,,,,,,,,,,,-4,,,,,,,,,,,,,,,,,,,,,,,,,,,613a88917ff405c4017c9f25,001,2021-12-05_20h17.05.274,jm_natural_scene_simialrity_2-12-2021,2021.2.3,Win32,60.03121623,613a88917ff405c4017c9f25,61ad71e11ddd29ccf7a27d5b,61ad72843236e1261131cfbf,,,,,,-56,93,1,0,0,response7disk,2.3978,-11,0,1,0,0,rectangle,-11,0,1,0,0,3,2,"[88,2,67,12,57,106,94,23,27,144]",-11,0,1,0,0,0,69,69,48,1,Turquiose,Turquiose.jpg,Red,Red.jpg,,
,,,,,,,,,,,,,,,,,,-4,,,,,,,,,,,,,,,,,,,,,,,,,,,613a88917ff405c4017c9f25,001,2021-12-05_20h17.05.274,jm_natural_scene_simialrity_2-12-2021,2021.2.3,Win32,60.03121623,613a88917ff405c4017c9f25,61ad71e11ddd29ccf7a27d5b,61ad72843236e1261131cfbf,,,,,,-32,85,1,0,0,response7disk,2.1812,-11,3,1,0,0,rectangle,-11,3,1,0,0,3,3,"[88,2,67,12,57,106,94,23,27,144]",-11,3,1,0,0,0,70,70,28,1,DarkGreen,DarkGreen.jpg,Pink,Pink.jpg,,
,,,,,,,,,,,,,,,,,,-3,,,,,,,,,,,,,,,,,,,,,,,,,,,613a88917ff405c4017c9f25,001,2021-12-05_20h17.05.274,jm_natural_scene_simialrity_2-12-2021,2021.2.3,Win32,60.03121623,613a88917ff405c4017c9f25,61ad71e11ddd29ccf7a27d5b,61ad72843236e1261131cfbf,,,,,,-54,45,1,0,0,response7disk,2.1657,10,7,1,0,0,rectangle,10,7,1,0,0,3,1,"[88,2,67,12,57,106,94,23,27,144]",10,7,1,0,0,0,71,71,73,1,Pink,Pink.jpg,Turquiose,Turquiose.jpg,,
,,,,,,,,,,,,,,,,,,3,,,,,,,,,,,,,,,,,,,,,,,,,,,613a88917ff405c4017c9f25,001,2021-12-05_20h17.05.274,jm_natural_scene_simialrity_2-12-2021,2021.2.3,Win32,60.03121623,613a88917ff405c4017c9f25,61ad71e11ddd29ccf7a27d5b,61ad72843236e1261131cfbf,,,,,,64,56,1,0,0,response1disk,4.4949,-3,6,1,0,0,rectangle,-3,6,1,0,0,3,3,"[88,2,67,12,57,106,94,23,27,144]",-3,6,1,0,0,0,72,72,51,1,Pink,Pink.jpg,Red,Red.jpg,,
,,,,,,,,,,,,,,,,,,-3,,,,,,,,,,,,,,,,,,,,,,,,,,,613a88917ff405c4017c9f25,001,2021-12-05_20h17.05.274,jm_natural_scene_simialrity_2-12-2021,2021.2.3,Win32,60.03121623,613a88917ff405c4017c9f25,61ad71e11ddd29ccf7a27d5b,61ad72843236e1261131cfbf,,,,,,-82,29,1,0,0,response7disk,1.8482,-14,7,1,0,0,rectangle,-14,7,1,0,0,3,1,"[88,2,67,12,57,106,94,23,27,144]",-14,7,1,0,0,0,73,73,70,1,Purple,Purple.jpg,DarkGreen,DarkGreen.jpg,,
,,,,,,,,,,,,,,,,,,-3,,,,,,,,,,,,,,,,,,,,,,,,,,,613a88917ff405c4017c9f25,001,2021-12-05_20h17.05.274,jm_natural_scene_simialrity_2-12-2021,2021.2.3,Win32,60.03121623,613a88917ff405c4017c9f25,61ad71e11ddd29ccf7a27d5b,61ad72843236e1261131cfbf,,,,,,-72,32,1,0,0,response7disk,1.6318,-6,9,1,0,0,rectangle,-6,9,1,0,0,3,2,"[88,2,67,12,57,106,94,23,27,144]",-6,9,1,0,0,0,74,74,29,1,DarkGreen,DarkGreen.jpg,Purple,Purple.jpg,,
,,,,,,,,,,,,,,,,,,-3,,,,,,,,,,,,,,,,,,,,,,,,,,,613a88917ff405c4017c9f25,001,2021-12-05_20h17.05.274,jm_natural_scene_simialrity_2-12-2021,2021.2.3,Win32,60.03121623,613a88917ff405c4017c9f25,61ad71e11ddd29ccf7a27d5b,61ad72843236e1261131cfbf,,,,,,-55,49,1,0,0,response7disk,1.1636,-3,12,1,0,0,rectangle,-3,12,1,0,0,3,2,"[88,2,67,12,57,106,94,23,27,144]",-3,12,1,0,0,0,75,75,59,1,Purple,Purple.jpg,Yellow,Yellow.jpg,,
,,,,,,,,,,,,,,,,,,3,,,,,,,,,,,,,,,,,,,,,,,,,,,613a88917ff405c4017c9f25,001,2021-12-05_20h17.05.274,jm_natural_scene_simialrity_2-12-2021,2021.2.3,Win32,60.03121623,613a88917ff405c4017c9f25,61ad71e11ddd29ccf7a27d5b,61ad72843236e1261131cfbf,,,,,,65,26,1,0,0,response1disk,2.5808,7,7,1,0,0,rectangle,7,7,1,0,0,3,2,"[88,2,67,12,57,106,94,23,27,144]",7,7,1,0,0,0,76,76,77,1,Purple,Purple.jpg,LightBlue,LightBlue.jpg,,
,,,,,,,,,,,,,,,,,,-2,,,,,,,,,,,,,,,,,,,,,,,,,,,613a88917ff405c4017c9f25,001,2021-12-05_20h17.05.274,jm_natural_scene_simialrity_2-12-2021,2021.2.3,Win32,60.03121623,613a88917ff405c4017c9f25,61ad71e11ddd29ccf7a27d5b,61ad72843236e1261131cfbf,,,,,,-89,-20,1,0,0,response5disk,1.9796,2,5,1,0,0,rectangle,2,5,1,0,0,3,1,"[88,2,67,12,57,106,94,23,27,144]",2,5,1,0,0,0,77,77,65,1,Purple,Purple.jpg,LightGreen,LightGreen.jpg,,
,,,,,,,,,,,,,,,,,,-1,,,,,,,,,,,,,,,,,,,,,,,,,,,613a88917ff405c4017c9f25,001,2021-12-05_20h17.05.274,jm_natural_scene_simialrity_2-12-2021,2021.2.3,Win32,60.03121623,613a88917ff405c4017c9f25,61ad71e11ddd29ccf7a27d5b,61ad72843236e1261131cfbf,,,,,,-49,-82,1,0,0,response5disk,3.1136,-16,-11,1,0,0,rectangle,-16,-11,1,0,0,3,-4,"[88,2,67,12,57,106,94,23,27,144]",-16,-11,1,0,0,0,78,78,34,1,Turquiose,Turquiose.jpg,Purple,Purple.jpg,,
,,,,,,,,,,,,,,,,,,3,,,,,,,,,,,,,,,,,,,,,,,,,,,613a88917ff405c4017c9f25,001,2021-12-05_20h17.05.274,jm_natural_scene_simialrity_2-12-2021,2021.2.3,Win32,60.03121623,613a88917ff405c4017c9f25,61ad71e11ddd29ccf7a27d5b,61ad72843236e1261131cfbf,,,,,,89,27,1,0,0,response1disk,2.2309,14,4,1,0,0,rectangle,14,4,1,0,0,3,-1,"[88,2,67,12,57,106,94,23,27,144]",14,4,1,0,0,0,79,79,60,1,DarkGreen,DarkGreen.jpg,LightGreen,LightGreen.jpg,,
,,,,,,,,,,,,,,,,,,-4,,,,,,,,,,,,,,,,,,,,,,,,,,,613a88917ff405c4017c9f25,001,2021-12-05_20h17.05.274,jm_natural_scene_simialrity_2-12-2021,2021.2.3,Win32,60.03121623,613a88917ff405c4017c9f25,61ad71e11ddd29ccf7a27d5b,61ad72843236e1261131cfbf,,,,,,-46,73,1,0,0,response7disk,1.5486,-11,-5,1,0,0,rectangle,-11,-5,1,0,0,3,-2,"[88,2,67,12,57,106,94,23,27,144]",-11,-5,1,0,0,0,80,80,13,1,Yellow,Yellow.jpg,LightBlue,LightBlue.jpg,,
,,,,,,,,,,,,,,,,,,-3,,,,,,,,,,,,,,,,,,,,,,,,,,,613a88917ff405c4017c9f25,001,2021-12-05_20h17.05.274,jm_natural_scene_simialrity_2-12-2021,2021.2.3,Win32,60.03121623,613a88917ff405c4017c9f25,61ad71e11ddd29ccf7a27d5b,61ad72843236e1261131cfbf,,,,,,-59,41,1,0,0,response7disk,3.2482,-12,-2,1,0,0,rectangle,-12,-2,1,0,0,3,1,"[88,2,67,12,57,106,94,23,27,144]",-12,-2,1,0,0,1,0,81,0,1,Red,Red.jpg,Red,Red.jpg,,
,,,,,,,,,,,,,,,,,,-4,,,,,,,,,,,,,,,,,,,,,,,,,,,613a88917ff405c4017c9f25,001,2021-12-05_20h17.05.274,jm_natural_scene_simialrity_2-12-2021,2021.2.3,Win32,60.03121623,613a88917ff405c4017c9f25,61ad71e11ddd29ccf7a27d5b,61ad72843236e1261131cfbf,,,,,,-36,78,1,0,0,response7disk,1.4156,-8,-13,1,0,0,rectangle,-8,-13,1,0,0,3,-3,"[88,2,67,12,57,106,94,23,27,144]",-8,-13,1,0,0,1,1,82,73,1,Pink,Pink.jpg,Turquiose,Turquiose.jpg,,
,,,,,,,,,,,,,,,,,,-4,,,,,,,,,,,,,,,,,,,,,,,,,,,613a88917ff405c4017c9f25,001,2021-12-05_20h17.05.274,jm_natural_scene_simialrity_2-12-2021,2021.2.3,Win32,60.03121623,613a88917ff405c4017c9f25,61ad71e11ddd29ccf7a27d5b,61ad72843236e1261131cfbf,,,,,,-35,79,1,0,0,response7disk,1.6151,-1,-18,1,0,0,rectangle,-1,-18,1,0,0,3,-1,"[88,2,67,12,57,106,94,23,27,144]",-1,-18,1,0,0,1,2,83,75,1,DarkBlue,DarkBlue.jpg,LightBlue,LightBlue.jpg,,
,,,,,,,,,,,,,,,,,,-4,,,,,,,,,,,,,,,,,,,,,,,,,,,613a88917ff405c4017c9f25,001,2021-12-05_20h17.05.274,jm_natural_scene_simialrity_2-12-2021,2021.2.3,Win32,60.03121623,613a88917ff405c4017c9f25,61ad71e11ddd29ccf7a27d5b,61ad72843236e1261131cfbf,,,,,,-20,70,1,0,0,response7disk,1.4976,-3,-8,1,0,0,rectangle,-3,-8,1,0,0,3,2,"[88,2,67,12,57,106,94,23,27,144]",-3,-8,1,0,0,1,3,84,11,1,Yellow,Yellow.jpg,DarkGreen,DarkGreen.jpg,,
,,,,,,,,,,,,,,,,,,4,,,,,,,,,,,,,,,,,,,,,,,,,,,613a88917ff405c4017c9f25,001,2021-12-05_20h17.05.274,jm_natural_scene_simialrity_2-12-2021,2021.2.3,Win32,60.03121623,613a88917ff405c4017c9f25,61ad71e11ddd29ccf7a27d5b,61ad72843236e1261131cfbf,,,,,,27,77,1,0,0,response1disk,1.332,6,16,1,0,0,rectangle,6,16,1,0,0,3,1,"[88,2,67,12,57,106,94,23,27,144]",6,16,1,0,0,1,4,85,42,1,Pink,Pink.jpg,Pink,Pink.jpg,,
,,,,,,,,,,,,,,,,,,-4,,,,,,,,,,,,,,,,,,,,,,,,,,,613a88917ff405c4017c9f25,001,2021-12-05_20h17.05.274,jm_natural_scene_simialrity_2-12-2021,2021.2.3,Win32,60.03121623,613a88917ff405c4017c9f25,61ad71e11ddd29ccf7a27d5b,61ad72843236e1261131cfbf,,,,,,-58,108,1,0,0,response7disk,0.9475,-11,17,1,0,0,rectangle,-11,17,1,0,0,3,-3,"[88,2,67,12,57,106,94,23,27,144]",-11,17,1,0,0,1,5,86,69,1,Pink,Pink.jpg,DarkGreen,DarkGreen.jpg,,
,,,,,,,,,,,,,,,,,,-1,,,,,,,,,,,,,,,,,,,,,,,,,,,613a88917ff405c4017c9f25,001,2021-12-05_20h17.05.274,jm_natural_scene_simialrity_2-12-2021,2021.2.3,Win32,60.03121623,613a88917ff405c4017c9f25,61ad71e11ddd29ccf7a27d5b,61ad72843236e1261131cfbf,,,,,,-54,-83,1,0,0,response5disk,1.849,-3,-5,1,0,0,rectangle,71,-49,1,0,0,2,2,"[88,2,67,12,57,106,94,23,27,144]",7,9,1,0,0,1,6,87,34,1,Turquiose,Turquiose.jpg,Purple,Purple.jpg,response3disk_3,rectangle
,,,,,,,,,,,,,,,,,,-4,,,,,,,,,,,,,,,,,,,,,,,,,,,613a88917ff405c4017c9f25,001,2021-12-05_20h17.05.274,jm_natural_scene_simialrity_2-12-2021,2021.2.3,Win32,60.03121623,613a88917ff405c4017c9f25,61ad71e11ddd29ccf7a27d5b,61ad72843236e1261131cfbf,,,,,,-29,96,1,0,0,response7disk,2.2981,-4,-13,1,0,0,rectangle,-4,-13,1,0,0,2,2,"[88,2,67,12,57,106,94,23,27,144]",-4,-13,1,0,0,1,7,88,16,1,Yellow,Yellow.jpg,Purple,Purple.jpg,,
,,,,,,,,,,,,,,,,,,-2,,,,,,,,,,,,,,,,,,,,,,,,,,,613a88917ff405c4017c9f25,001,2021-12-05_20h17.05.274,jm_natural_scene_simialrity_2-12-2021,2021.2.3,Win32,60.03121623,613a88917ff405c4017c9f25,61ad71e11ddd29ccf7a27d5b,61ad72843236e1261131cfbf,,,,,,-85,-36,1,0,0,response5disk,1.7153,6,8,1,0,0,rectangle,6,8,1,0,0,2,1,"[88,2,67,12,57,106,94,23,27,144]",6,8,1,0,0,1,8,89,61,1,Turquiose,Turquiose.jpg,LightGreen,LightGreen.jpg,,
,,,,,,,,,,,,,,,,,,-1,,,,,,,,,,,,,,,,,,,,,,,,,,,613a88917ff405c4017c9f25,001,2021-12-05_20h17.05.274,jm_natural_scene_simialrity_2-12-2021,2021.2.3,Win32,60.03121623,613a88917ff405c4017c9f25,61ad71e11ddd29ccf7a27d5b,61ad72843236e1261131cfbf,,,,,,-40,-60,1,0,0,response5disk,1.2507,-7,13,1,0,0,rectangle,-7,13,1,0,0,2,3,"[88,2,67,12,57,106,94,23,27,144]",-7,13,1,0,0,1,9,90,1,1,Red,Red.jpg,Yellow,Yellow.jpg,,
,,,,,,,,,,,,,,,,,,-3,,,,,,,,,,,,,,,,,,,,,,,,,,,613a88917ff405c4017c9f25,001,2021-12-05_20h17.05.274,jm_natural_scene_simialrity_2-12-2021,2021.2.3,Win32,60.03121623,613a88917ff405c4017c9f25,61ad71e11ddd29ccf7a27d5b,61ad72843236e1261131cfbf,,,,,,-78,41,1,0,0,response7disk,1.2989,13,-15,1,0,0,rectangle,13,-15,1,0,0,2,-1,"[88,2,67,12,57,106,94,23,27,144]",13,-15,1,0,0,1,10,91,10,1,Yellow,Yellow.jpg,LightGreen,LightGreen.jpg,,
,,,,,,,,,,,,,,,,,,-2,,,,,,,,,,,,,,,,,,,,,,,,,,,613a88917ff405c4017c9f25,001,2021-12-05_20h17.05.274,jm_natural_scene_simialrity_2-12-2021,2021.2.3,Win32,60.03121623,613a88917ff405c4017c9f25,61ad71e11ddd29ccf7a27d5b,61ad72843236e1261131cfbf,,,,,,-68,-42,1,0,0,response5disk,1.8648,3,5,1,0,0,rectangle,3,5,1,0,0,2,2,"[88,2,67,12,57,106,94,23,27,144]",3,5,1,0,0,1,11,92,62,1,LightBlue,LightBlue.jpg,LightGreen,LightGreen.jpg,,
,,,,,,,,,,,,,,,,,,-4,,,,,,,,,,,,,,,,,,,,,,,,,,,613a88917ff405c4017c9f25,001,2021-12-05_20h17.05.274,jm_natural_scene_simialrity_2-12-2021,2021.2.3,Win32,60.03121623,613a88917ff405c4017c9f25,61ad71e11ddd29ccf7a27d5b,61ad72843236e1261131cfbf,,,,,,-38,85,1,0,0,response7disk,2.065,0,-8,1,0,0,rectangle,-77,-32,1,0,0,2,-2,"[88,2,67,12,57,106,94,23,27,144]",4,6,1,0,0,1,12,93,53,1,LightGreen,LightGreen.jpg,Yellow,Yellow.jpg,response5disk_3,rectangle
,,,,,,,,,,,,,,,,,,-3,,,,,,,,,,,,,,,,,,,,,,,,,,,613a88917ff405c4017c9f25,001,2021-12-05_20h17.05.274,jm_natural_scene_simialrity_2-12-2021,2021.2.3,Win32,60.03121623,613a88917ff405c4017c9f25,61ad71e11ddd29ccf7a27d5b,61ad72843236e1261131cfbf,,,,,,-64,41,1,0,0,response7disk,1.8809,5,1,1,0,0,rectangle,5,1,1,0,0,2,2,"[88,2,67,12,57,106,94,23,27,144]",5,1,1,0,0,1,13,94,37,1,LightBlue,LightBlue.jpg,Pink,Pink.jpg,,
,,,,,,,,,,,,,,,,,,-3,,,,,,,,,,,,,,,,,,,,,,,,,,,613a88917ff405c4017c9f25,001,2021-12-05_20h17.05.274,jm_natural_scene_simialrity_2-12-2021,2021.2.3,Win32,60.03121623,613a88917ff405c4017c9f25,61ad71e11ddd29ccf7a27d5b,61ad72843236e1261131cfbf,,,,,,-86,38,1,0,0,response7disk,1.5814,-24,-2,1,0,0,rectangle,-24,-2,1,0,0,2,3,"[88,2,67,12,57,106,94,23,27,144]",-24,-2,1,0,0,1,14,95,5,1,Red,Red.jpg,LightBlue,LightBlue.jpg,,
,,,,,,,,,,,,,,,,,,-3,,,,,,,,,,,,,,,,,,,,,,,,,,,613a88917ff405c4017c9f25,001,2021-12-05_20h17.05.274,jm_natural_scene_simialrity_2-12-2021,2021.2.3,Win32,60.03121623,613a88917ff405c4017c9f25,61ad71e11ddd29ccf7a27d5b,61ad72843236e1261131cfbf,,,,,,-87,55,1,0,0,response7disk,1.0823,-14,9,1,0,0,rectangle,-14,9,1,0,0,2,2,"[88,2,67,12,57,106,94,23,27,144]",-14,9,1,0,0,1,15,96,33,1,Turquiose,Turquiose.jpg,Pink,Pink.jpg,,
,,,,,,,,,,,,,,,,,,-4,,,,,,,,,,,,,,,,,,,,,,,,,,,613a88917ff405c4017c9f25,001,2021-12-05_20h17.05.274,jm_natural_scene_simialrity_2-12-2021,2021.2.3,Win32,60.03121623,613a88917ff405c4017c9f25,61ad71e11ddd29ccf7a27d5b,61ad72843236e1261131cfbf,,,,,,-30,78,1,0,0,response7disk,1.2474,-4,3,1,0,0,rectangle,-4,3,1,0,0,2,1,"[88,2,67,12,57,106,94,23,27,144]",-4,3,1,0,0,1,16,97,65,1,Purple,Purple.jpg,LightGreen,LightGreen.jpg,,
,,,,,,,,,,,,,,,,,,-1,,,,,,,,,,,,,,,,,,,,,,,,,,,613a88917ff405c4017c9f25,001,2021-12-05_20h17.05.274,jm_natural_scene_simialrity_2-12-2021,2021.2.3,Win32,60.03121623,613a88917ff405c4017c9f25,61ad71e11ddd29ccf7a27d5b,61ad72843236e1261131cfbf,,,,,,-39,-70,1,0,0,response5disk,1.7822,-11,-6,1,0,0,rectangle,-11,-6,1,0,0,2,2,"[88,2,67,12,57,106,94,23,27,144]",-11,-6,1,0,0,1,17,98,76,1,Pink,Pink.jpg,LightBlue,LightBlue.jpg,,
,,,,,,,,,,,,,,,,,,-2,,,,,,,,,,,,,,,,,,,,,,,,,,,613a88917ff405c4017c9f25,001,2021-12-05_20h17.05.274,jm_natural_scene_simialrity_2-12-2021,2021.2.3,Win32,60.03121623,613a88917ff405c4017c9f25,61ad71e11ddd29ccf7a27d5b,61ad72843236e1261131cfbf,,,,,,-69,-35,1,0,0,response5disk,1.7818,6,2,1,0,0,rectangle,6,2,1,0,0,2,-2,"[88,2,67,12,57,106,94,23,27,144]",6,2,1,0,0,1,18,99,21,1,LightGreen,LightGreen.jpg,DarkBlue,DarkBlue.jpg,,
,,,,,,,,,,,,,,,,,,1,,,,,,,,,,,,,,,,,,,,,,,,,,,613a88917ff405c4017c9f25,001,2021-12-05_20h17.05.274,jm_natural_scene_simialrity_2-12-2021,2021.2.3,Win32,60.03121623,613a88917ff405c4017c9f25,61ad71e11ddd29ccf7a27d5b,61ad72843236e1261131cfbf,,,,,,42,-52,1,0,0,response3disk,1.7502,7,-2,1,0,0,rectangle,7,-2,1,0,0,2,1,"[88,2,67,12,57,106,94,23,27,144]",7,-2,1,0,0,1,19,100,58,1,Pink,Pink.jpg,Yellow,Yellow.jpg,,
,,,,,,,,,,,,,,,,,,-3,,,,,,,,,,,,,,,,,,,,,,,,,,,613a88917ff405c4017c9f25,001,2021-12-05_20h17.05.274,jm_natural_scene_simialrity_2-12-2021,2021.2.3,Win32,60.03121623,613a88917ff405c4017c9f25,61ad71e11ddd29ccf7a27d5b,61ad72843236e1261131cfbf,,,,,,-82,36,1,0,0,response7disk,1.7814,-2,3,1,0,0,rectangle,-2,3,1,0,0,2,2,"[88,2,67,12,57,106,94,23,27,144]",-2,3,1,0,0,1,20,101,47,1,DarkGreen,DarkGreen.jpg,Red,Red.jpg,,
,,,,,,,,,,,,,,,,,,-3,,,,,,,,,,,,,,,,,,,,,,,,,,,613a88917ff405c4017c9f25,001,2021-12-05_20h17.05.274,jm_natural_scene_simialrity_2-12-2021,2021.2.3,Win32,60.03121623,613a88917ff405c4017c9f25,61ad71e11ddd29ccf7a27d5b,61ad72843236e1261131cfbf,,,,,,-61,41,1,0,0,response7disk,1.4152,-4,14,1,0,0,rectangle,-4,14,1,0,0,2,-3,"[88,2,67,12,57,106,94,23,27,144]",-4,14,1,0,0,1,21,102,70,1,Purple,Purple.jpg,DarkGreen,DarkGreen.jpg,,
,,,,,,,,,,,,,,,,,,-4,,,,,,,,,,,,,,,,,,,,,,,,,,,613a88917ff405c4017c9f25,001,2021-12-05_20h17.05.274,jm_natural_scene_simialrity_2-12-2021,2021.2.3,Win32,60.03121623,613a88917ff405c4017c9f25,61ad71e11ddd29ccf7a27d5b,61ad72843236e1261131cfbf,,,,,,-50,86,1,0,0,response7disk,1.1636,-9,9,1,0,0,rectangle,-9,9,1,0,0,2,3,"[88,2,67,12,57,106,94,23,27,144]",-9,9,1,0,0,1,22,103,29,1,DarkGreen,DarkGreen.jpg,Purple,Purple.jpg,,
,,,,,,,,,,,,,,,,,,-4,,,,,,,,,,,,,,,,,,,,,,,,,,,613a88917ff405c4017c9f25,001,2021-12-05_20h17.05.274,jm_natural_scene_simialrity_2-12-2021,2021.2.3,Win32,60.03121623,613a88917ff405c4017c9f25,61ad71e11ddd29ccf7a27d5b,61ad72843236e1261131cfbf,,,,,,-33,68,1,0,0,response7disk,1.6318,-2,-9,1,0,0,rectangle,-2,-9,1,0,0,2,2,"[88,2,67,12,57,106,94,23,27,144]",-2,-9,1,0,0,1,23,104,6,1,Red,Red.jpg,DarkBlue,DarkBlue.jpg,,
,,,,,,,,,,,,,,,,,,-4,,,,,,,,,,,,,,,,,,,,,,,,,,,613a88917ff405c4017c9f25,001,2021-12-05_20h17.05.274,jm_natural_scene_simialrity_2-12-2021,2021.2.3,Win32,60.03121623,613a88917ff405c4017c9f25,61ad71e11ddd29ccf7a27d5b,61ad72843236e1261131cfbf,,,,,,-55,88,1,0,0,response7disk,1.1325,-14,-4,1,0,0,rectangle,-48,83,1,0,0,-4,-4,"[88,2,67,12,57,106,94,23,27,144]",-3,9,1,0,0,1,24,105,28,1,DarkGreen,DarkGreen.jpg,Pink,Pink.jpg,response7disk_3,rectangle
,,,,,,,,,,,,,,,,,,-4,,,,,,,,,,,,,,,,,,,,,,,,,,,613a88917ff405c4017c9f25,001,2021-12-05_20h17.05.274,jm_natural_scene_simialrity_2-12-2021,2021.2.3,Win32,60.03121623,613a88917ff405c4017c9f25,61ad71e11ddd29ccf7a27d5b,61ad72843236e1261131cfbf,,,,,,-62,88,1,0,0,response7disk,1.0479,-1,0,1,0,0,rectangle,-1,0,1,0,0,-4,3,"[88,2,67,12,57,106,94,23,27,144]",-1,0,1,0,0,1,25,106,3,1,Red,Red.jpg,DarkGreen,DarkGreen.jpg,,
,,,,,,,,,,,,,,,,,,-1,,,,,,,,,,,,,,,,,,,,,,,,,,,613a88917ff405c4017c9f25,001,2021-12-05_20h17.05.274,jm_natural_scene_simialrity_2-12-2021,2021.2.3,Win32,60.03121623,613a88917ff405c4017c9f25,61ad71e11ddd29ccf7a27d5b,61ad72843236e1261131cfbf,,,,,,-58,-63,1,0,0,response5disk,1.7816,-19,-4,1,0,0,rectangle,-19,-4,1,0,0,-4,-3,"[88,2,67,12,57,106,94,23,27,144]",-19,-4,1,0,0,1,26,107,26,1,DarkGreen,DarkGreen.jpg,LightBlue,LightBlue.jpg,,
,,,,,,,,,,,,,,,,,,-4,,,,,,,,,,,,,,,,,,,,,,,,,,,613a88917ff405c4017c9f25,001,2021-12-05_20h17.05.274,jm_natural_scene_simialrity_2-12-2021,2021.2.3,Win32,60.03121623,613a88917ff405c4017c9f25,61ad71e11ddd29ccf7a27d5b,61ad72843236e1261131cfbf,,,,,,-33,94,1,0,0,response7disk,1.8151,0,4,1,0,0,rectangle,0,4,1,0,0,-4,3,"[88,2,67,12,57,106,94,23,27,144]",0,4,1,0,0,1,27,108,14,1,Yellow,Yellow.jpg,DarkBlue,DarkBlue.jpg,,
,,,,,,,,,,,,,,,,,,-4,,,,,,,,,,,,,,,,,,,,,,,,,,,613a88917ff405c4017c9f25,001,2021-12-05_20h17.05.274,jm_natural_scene_simialrity_2-12-2021,2021.2.3,Win32,60.03121623,613a88917ff405c4017c9f25,61ad71e11ddd29ccf7a27d5b,61ad72843236e1261131cfbf,,,,,,-63,103,1,0,0,response7disk,1.0987,-9,7,1,0,0,rectangle,-9,7,1,0,0,-4,2,"[88,2,67,12,57,106,94,23,27,144]",-9,7,1,0,0,1,28,109,78,1,Pink,Pink.jpg,DarkBlue,DarkBlue.jpg,,
,,,,,,,,,,,,,,,,,,-3,,,,,,,,,,,,,,,,,,,,,,,,,,,613a88917ff405c4017c9f25,001,2021-12-05_20h17.05.274,jm_natural_scene_simialrity_2-12-2021,2021.2.3,Win32,60.03121623,613a88917ff405c4017c9f25,61ad71e11ddd29ccf7a27d5b,61ad72843236e1261131cfbf,,,,,,-57,34,1,0,0,response7disk,1.3986,-4,-8,1,0,0,rectangle,-4,-8,1,0,0,-4,-1,"[88,2,67,12,57,106,94,23,27,144]",-4,-8,1,0,0,1,29,110,4,1,Red,Red.jpg,Turquiose,Turquiose.jpg,,
,,,,,,,,,,,,,,,,,,4,,,,,,,,,,,,,,,,,,,,,,,,,,,613a88917ff405c4017c9f25,001,2021-12-05_20h17.05.274,jm_natural_scene_simialrity_2-12-2021,2021.2.3,Win32,60.03121623,613a88917ff405c4017c9f25,61ad71e11ddd29ccf7a27d5b,61ad72843236e1261131cfbf,,,,,,37,96,1,0,0,response1disk,1.1648,-6,15,1,0,0,rectangle,-6,15,1,0,0,-4,-3,"[88,2,67,12,57,106,94,23,27,144]",-6,15,1,0,0,1,30,111,44,1,Purple,Purple.jpg,Purple,Purple.jpg,,
,,,,,,,,,,,,,,,,,,2,,,,,,,,,,,,,,,,,,,,,,,,,,,613a88917ff405c4017c9f25,001,2021-12-05_20h17.05.274,jm_natural_scene_simialrity_2-12-2021,2021.2.3,Win32,60.03121623,613a88917ff405c4017c9f25,61ad71e11ddd29ccf7a27d5b,61ad72843236e1261131cfbf,,,,,,49,-39,1,0,0,response3disk,2.4312,3,1,1,0,0,rectangle,3,1,1,0,0,-4,-2,"[88,2,67,12,57,106,94,23,27,144]",3,1,1,0,0,1,31,112,38,1,LightBlue,LightBlue.jpg,Purple,Purple.jpg,,
,,,,,,,,,,,,,,,,,,-2,,,,,,,,,,,,,,,,,,,,,,,,,,,613a88917ff405c4017c9f25,001,2021-12-05_20h17.05.274,jm_natural_scene_simialrity_2-12-2021,2021.2.3,Win32,60.03121623,613a88917ff405c4017c9f25,61ad71e11ddd29ccf7a27d5b,61ad72843236e1261131cfbf,,,,,,-64,-42,1,0,0,response5disk,1.2982,-16,-3,1,0,0,rectangle,-16,-3,1,0,0,-4,3,"[88,2,67,12,57,106,94,23,27,144]",-16,-3,1,0,0,1,32,113,49,1,LightBlue,LightBlue.jpg,Red,Red.jpg,,
,,,,,,,,,,,,,,,,,,-3,,,,,,,,,,,,,,,,,,,,,,,,,,,613a88917ff405c4017c9f25,001,2021-12-05_20h17.05.274,jm_natural_scene_simialrity_2-12-2021,2021.2.3,Win32,60.03121623,613a88917ff405c4017c9f25,61ad71e11ddd29ccf7a27d5b,61ad72843236e1261131cfbf,,,,,,-93,24,1,0,0,response7disk,2.6643,-14,-10,1,0,0,rectangle,-14,-10,1,0,0,-4,2,"[88,2,67,12,57,106,94,23,27,144]",-14,-10,1,0,0,1,33,114,63,1,DarkBlue,DarkBlue.jpg,LightGreen,LightGreen.jpg,,
,,,,,,,,,,,,,,,,,,-4,,,,,,,,,,,,,,,,,,,,,,,,,,,613a88917ff405c4017c9f25,001,2021-12-05_20h17.05.274,jm_natural_scene_simialrity_2-12-2021,2021.2.3,Win32,60.03121623,613a88917ff405c4017c9f25,61ad71e11ddd29ccf7a27d5b,61ad72843236e1261131cfbf,,,,,,-44,69,1,0,0,response7disk,1.3483,-8,8,1,0,0,rectangle,-8,8,1,0,0,-4,-4,"[88,2,67,12,57,106,94,23,27,144]",-8,8,1,0,0,1,34,115,57,1,DarkBlue,DarkBlue.jpg,Yellow,Yellow.jpg,,
,,,,,,,,,,,,,,,,,,4,,,,,,,,,,,,,,,,,,,,,,,,,,,613a88917ff405c4017c9f25,001,2021-12-05_20h17.05.274,jm_natural_scene_simialrity_2-12-2021,2021.2.3,Win32,60.03121623,613a88917ff405c4017c9f25,61ad71e11ddd29ccf7a27d5b,61ad72843236e1261131cfbf,,,,,,25,65,1,0,0,response1disk,1.2493,-1,10,1,0,0,rectangle,-1,10,1,0,0,-4,3,"[88,2,67,12,57,106,94,23,27,144]",-1,10,1,0,0,1,35,116,9,1,Yellow,Yellow.jpg,Yellow,Yellow.jpg,,
,,,,,,,,,,,,,,,,,,-2,,,,,,,,,,,,,,,,,,,,,,,,,,,613a88917ff405c4017c9f25,001,2021-12-05_20h17.05.274,jm_natural_scene_simialrity_2-12-2021,2021.2.3,Win32,60.03121623,613a88917ff405c4017c9f25,61ad71e11ddd29ccf7a27d5b,61ad72843236e1261131cfbf,,,,,,-109,-62,1,0,0,response5disk,2.5809,6,18,1,0,0,rectangle,6,18,1,0,0,-4,-1,"[88,2,67,12,57,106,94,23,27,144]",6,18,1,0,0,1,36,117,50,1,DarkBlue,DarkBlue.jpg,Red,Red.jpg,,
,,,,,,,,,,,,,,,,,,-4,,,,,,,,,,,,,,,,,,,,,,,,,,,613a88917ff405c4017c9f25,001,2021-12-05_20h17.05.274,jm_natural_scene_simialrity_2-12-2021,2021.2.3,Win32,60.03121623,613a88917ff405c4017c9f25,61ad71e11ddd29ccf7a27d5b,61ad72843236e1261131cfbf,,,,,,-43,75,1,0,0,response7disk,2.447,-7,-2,1,0,0,rectangle,-7,-2,1,0,0,-4,-1,"[88,2,67,12,57,106,94,23,27,144]",-7,-2,1,0,0,1,37,118,2,1,Red,Red.jpg,LightGreen,LightGreen.jpg,,
,,,,,,,,,,,,,,,,,,-4,,,,,,,,,,,,,,,,,,,,,,,,,,,613a88917ff405c4017c9f25,001,2021-12-05_20h17.05.274,jm_natural_scene_simialrity_2-12-2021,2021.2.3,Win32,60.03121623,613a88917ff405c4017c9f25,61ad71e11ddd29ccf7a27d5b,61ad72843236e1261131cfbf,,,,,,-35,88,1,0,0,response7disk,1.5321,-6,-1,1,0,0,rectangle,-6,-1,1,0,0,-4,2,"[88,2,67,12,57,106,94,23,27,144]",-6,-1,1,0,0,1,38,119,64,1,Pink,Pink.jpg,LightGreen,LightGreen.jpg,,
,,,,,,,,,,,,,,,,,,-2,,,,,,,,,,,,,,,,,,,,,,,,,,,613a88917ff405c4017c9f25,001,2021-12-05_20h17.05.274,jm_natural_scene_simialrity_2-12-2021,2021.2.3,Win32,60.03121623,613a88917ff405c4017c9f25,61ad71e11ddd29ccf7a27d5b,61ad72843236e1261131cfbf,,,,,,-114,-36,1,0,0,response5disk,2.0312,-13,-6,1,0,0,rectangle,-13,-6,1,0,0,-4,-3,"[88,2,67,12,57,106,94,23,27,144]",-13,-6,1,0,0,1,39,120,52,1,Purple,Purple.jpg,Red,Red.jpg,,
,,,,,,,,,,,,,,,,,,2,,,,,,,,,,,,,,,,,,,,,,,,,,,613a88917ff405c4017c9f25,001,2021-12-05_20h17.05.274,jm_natural_scene_simialrity_2-12-2021,2021.2.3,Win32,60.03121623,613a88917ff405c4017c9f25,61ad71e11ddd29ccf7a27d5b,61ad72843236e1261131cfbf,,,,,,71,-31,1,0,0,response3disk,1.4988,-13,11,1,0,0,rectangle,-13,11,1,0,0,-4,-1,"[88,2,67,12,57,106,94,23,27,144]",-13,11,1,0,0,1,40,121,51,1,Pink,Pink.jpg,Red,Red.jpg,,
,,,,,,,,,,,,,,,,,,-1,,,,,,,,,,,,,,,,,,,,,,,,,,,613a88917ff405c4017c9f25,001,2021-12-05_20h17.05.274,jm_natural_scene_simialrity_2-12-2021,2021.2.3,Win32,60.03121623,613a88917ff405c4017c9f25,61ad71e11ddd29ccf7a27d5b,61ad72843236e1261131cfbf,,,,,,-25,-68,1,0,0,response5disk,2.0328,-8,-9,1,0,0,rectangle,-8,-9,1,0,0,-4,3,"[88,2,67,12,57,106,94,23,27,144]",-8,-9,1,0,0,1,41,122,43,1,Pink,Pink.jpg,Purple,Purple.jpg,,
,,,,,,,,,,,,,,,,,,-3,,,,,,,,,,,,,,,,,,,,,,,,,,,613a88917ff405c4017c9f25,001,2021-12-05_20h17.05.274,jm_natural_scene_simialrity_2-12-2021,2021.2.3,Win32,60.03121623,613a88917ff405c4017c9f25,61ad71e11ddd29ccf7a27d5b,61ad72843236e1261131cfbf,,,,,,-63,28,1,0,0,response7disk,1.2989,1,-7,1,0,0,rectangle,1,-7,1,0,0,-4,1,"[88,2,67,12,57,106,94,23,27,144]",1,-7,1,0,0,1,42,123,67,1,LightBlue,LightBlue.jpg,DarkGreen,DarkGreen.jpg,,
,,,,,,,,,,,,,,,,,,-2,,,,,,,,,,,,,,,,,,,,,,,,,,,613a88917ff405c4017c9f25,001,2021-12-05_20h17.05.274,jm_natural_scene_simialrity_2-12-2021,2021.2.3,Win32,60.03121623,613a88917ff405c4017c9f25,61ad71e11ddd29ccf7a27d5b,61ad72843236e1261131cfbf,,,,,,-61,-40,1,0,0,response5disk,1.9168,12,-7,1,0,0,rectangle,12,-7,1,0,0,-4,-1,"[88,2,67,12,57,106,94,23,27,144]",12,-7,1,0,0,1,43,124,41,1,DarkBlue,DarkBlue.jpg,Purple,Purple.jpg,,
,,,,,,,,,,,,,,,,,,2,,,,,,,,,,,,,,,,,,,,,,,,,,,613a88917ff405c4017c9f25,001,2021-12-05_20h17.05.274,jm_natural_scene_simialrity_2-12-2021,2021.2.3,Win32,60.03121623,613a88917ff405c4017c9f25,61ad71e11ddd29ccf7a27d5b,61ad72843236e1261131cfbf,,,,,,48,-24,1,0,0,response3disk,1.6155,-8,7,1,0,0,rectangle,-8,7,1,0,0,-4,1,"[88,2,67,12,57,106,94,23,27,144]",-8,7,1,0,0,1,44,125,77,1,Purple,Purple.jpg,LightBlue,LightBlue.jpg,,
,,,,,,,,,,,,,,,,,,-4,,,,,,,,,,,,,,,,,,,,,,,,,,,613a88917ff405c4017c9f25,001,2021-12-05_20h17.05.274,jm_natural_scene_simialrity_2-12-2021,2021.2.3,Win32,60.03121623,613a88917ff405c4017c9f25,61ad71e11ddd29ccf7a27d5b,61ad72843236e1261131cfbf,,,,,,-30,81,1,0,0,response7disk,1.6486,-6,4,1,0,0,rectangle,-6,4,1,0,0,-4,2,"[88,2,67,12,57,106,94,23,27,144]",-6,4,1,0,0,1,45,126,22,1,LightGreen,LightGreen.jpg,Pink,Pink.jpg,,
,,,,,,,,,,,,,,,,,,-1,,,,,,,,,,,,,,,,,,,,,,,,,,,613a88917ff405c4017c9f25,001,2021-12-05_20h17.05.274,jm_natural_scene_simialrity_2-12-2021,2021.2.3,Win32,60.03121623,613a88917ff405c4017c9f25,61ad71e11ddd29ccf7a27d5b,61ad72843236e1261131cfbf,,,,,,-50,-55,1,0,0,response5disk,2.3794,-1,4,1,0,0,rectangle,-1,4,1,0,0,-4,2,"[88,2,67,12,57,106,94,23,27,144]",-1,4,1,0,0,1,46,127,80,1,Purple,Purple.jpg,Pink,Pink.jpg,,
,,,,,,,,,,,,,,,,,,-3,,,,,,,,,,,,,,,,,,,,,,,,,,,613a88917ff405c4017c9f25,001,2021-12-05_20h17.05.274,jm_natural_scene_simialrity_2-12-2021,2021.2.3,Win32,60.03121623,613a88917ff405c4017c9f25,61ad71e11ddd29ccf7a27d5b,61ad72843236e1261131cfbf,,,,,,-84,38,1,0,0,response7disk,1.2151,-9,-15,1,0,0,rectangle,-9,-15,1,0,0,-4,-2,"[88,2,67,12,57,106,94,23,27,144]",-9,-15,1,0,0,1,47,128,68,1,DarkBlue,DarkBlue.jpg,DarkGreen,DarkGreen.jpg,,
,,,,,,,,,,,,,,,,,,-4,,,,,,,,,,,,,,,,,,,,,,,,,,,613a88917ff405c4017c9f25,001,2021-12-05_20h17.05.274,jm_natural_scene_simialrity_2-12-2021,2021.2.3,Win32,60.03121623,613a88917ff405c4017c9f25,61ad71e11ddd29ccf7a27d5b,61ad72843236e1261131cfbf,,,,,,-42,77,1,0,0,response7disk,1.8985,-4,1,1,0,0,rectangle,-4,1,1,0,0,-4,-1,"[88,2,67,12,57,106,94,23,27,144]",-4,1,1,0,0,1,48,129,25,1,DarkGreen,DarkGreen.jpg,Turquiose,Turquiose.jpg,,
,,,,,,,,,,,,,,,,,,-4,,,,,,,,,,,,,,,,,,,,,,,,,,,613a88917ff405c4017c9f25,001,2021-12-05_20h17.05.274,jm_natural_scene_simialrity_2-12-2021,2021.2.3,Win32,60.03121623,613a88917ff405c4017c9f25,61ad71e11ddd29ccf7a27d5b,61ad72843236e1261131cfbf,,,,,,-34,67,1,0,0,response7disk,1.433,-6,3,1,0,0,rectangle,-6,3,1,0,0,-4,2,"[88,2,67,12,57,106,94,23,27,144]",-6,3,1,0,0,1,49,130,46,1,LightGreen,LightGreen.jpg,Red,Red.jpg,,
,,,,,,,,,,,,,,,,,,-4,,,,,,,,,,,,,,,,,,,,,,,,,,,613a88917ff405c4017c9f25,001,2021-12-05_20h17.05.274,jm_natural_scene_simialrity_2-12-2021,2021.2.3,Win32,60.03121623,613a88917ff405c4017c9f25,61ad71e11ddd29ccf7a27d5b,61ad72843236e1261131cfbf,,,,,,-41,88,1,0,0,response7disk,1.2804,-12,9,1,0,0,rectangle,-12,9,1,0,0,-4,-4,"[88,2,67,12,57,106,94,23,27,144]",-12,9,1,0,0,1,50,131,23,1,LightGreen,LightGreen.jpg,Purple,Purple.jpg,,
,,,,,,,,,,,,,,,,,,-4,,,,,,,,,,,,,,,,,,,,,,,,,,,613a88917ff405c4017c9f25,001,2021-12-05_20h17.05.274,jm_natural_scene_simialrity_2-12-2021,2021.2.3,Win32,60.03121623,613a88917ff405c4017c9f25,61ad71e11ddd29ccf7a27d5b,61ad72843236e1261131cfbf,,,,,,-53,97,1,0,0,response7disk,1.1988,-9,-10,1,0,0,rectangle,-9,-10,1,0,0,-4,-4,"[88,2,67,12,57,106,94,23,27,144]",-9,-10,1,0,0,1,51,132,56,1,LightBlue,LightBlue.jpg,Yellow,Yellow.jpg,,
,,,,,,,,,,,,,,,,,,2,,,,,,,,,,,,,,,,,,,,,,,,,,,613a88917ff405c4017c9f25,001,2021-12-05_20h17.05.274,jm_natural_scene_simialrity_2-12-2021,2021.2.3,Win32,60.03121623,613a88917ff405c4017c9f25,61ad71e11ddd29ccf7a27d5b,61ad72843236e1261131cfbf,,,,,,74,-49,1,0,0,response3disk,2.3474,5,13,1,0,0,rectangle,5,13,1,0,0,-4,1,"[88,2,67,12,57,106,94,23,27,144]",5,13,1,0,0,1,52,133,71,1,LightBlue,LightBlue.jpg,Turquiose,Turquiose.jpg,,
,,,,,,,,,,,,,,,,,,2,,,,,,,,,,,,,,,,,,,,,,,,,,,613a88917ff405c4017c9f25,001,2021-12-05_20h17.05.274,jm_natural_scene_simialrity_2-12-2021,2021.2.3,Win32,60.03121623,613a88917ff405c4017c9f25,61ad71e11ddd29ccf7a27d5b,61ad72843236e1261131cfbf,,,,,,96,-40,1,0,0,response3disk,1.5652,14,8,1,0,0,rectangle,14,8,1,0,0,-4,1,"[88,2,67,12,57,106,94,23,27,144]",14,8,1,0,0,1,53,134,31,1,Turquiose,Turquiose.jpg,LightBlue,LightBlue.jpg,,
,,,,,,,,,,,,,,,,,,2,,,,,,,,,,,,,,,,,,,,,,,,,,,613a88917ff405c4017c9f25,001,2021-12-05_20h17.05.274,jm_natural_scene_simialrity_2-12-2021,2021.2.3,Win32,60.03121623,613a88917ff405c4017c9f25,61ad71e11ddd29ccf7a27d5b,61ad72843236e1261131cfbf,,,,,,89,-45,1,0,0,response3disk,1.4986,-7,15,1,0,0,rectangle,-7,15,1,0,0,-4,1,"[88,2,67,12,57,106,94,23,27,144]",-7,15,1,0,0,1,54,135,45,1,Yellow,Yellow.jpg,Red,Red.jpg,,
,,,,,,,,,,,,,,,,,,2,,,,,,,,,,,,,,,,,,,,,,,,,,,613a88917ff405c4017c9f25,001,2021-12-05_20h17.05.274,jm_natural_scene_simialrity_2-12-2021,2021.2.3,Win32,60.03121623,613a88917ff405c4017c9f25,61ad71e11ddd29ccf7a27d5b,61ad72843236e1261131cfbf,,,,,,68,-39,1,0,0,response3disk,1.0675,-4,7,1,0,0,rectangle,-4,7,1,0,0,-4,-4,"[88,2,67,12,57,106,94,23,27,144]",-4,7,1,0,0,1,55,136,15,1,Yellow,Yellow.jpg,Pink,Pink.jpg,,
,,,,,,,,,,,,,,,,,,2,,,,,,,,,,,,,,,,,,,,,,,,,,,613a88917ff405c4017c9f25,001,2021-12-05_20h17.05.274,jm_natural_scene_simialrity_2-12-2021,2021.2.3,Win32,60.03121623,613a88917ff405c4017c9f25,61ad71e11ddd29ccf7a27d5b,61ad72843236e1261131cfbf,,,,,,84,-39,1,0,0,response3disk,1.1653,13,11,1,0,0,rectangle,13,11,1,0,0,-4,-2,"[88,2,67,12,57,106,94,23,27,144]",13,11,1,0,0,1,56,137,79,1,Purple,Purple.jpg,DarkBlue,DarkBlue.jpg,,
,,,,,,,,,,,,,,,,,,4,,,,,,,,,,,,,,,,,,,,,,,,,,,613a88917ff405c4017c9f25,001,2021-12-05_20h17.05.274,jm_natural_scene_simialrity_2-12-2021,2021.2.3,Win32,60.03121623,613a88917ff405c4017c9f25,61ad71e11ddd29ccf7a27d5b,61ad72843236e1261131cfbf,,,,,,36,95,1,0,0,response1disk,1.0997,-4,7,1,0,0,rectangle,-4,7,1,0,0,-4,-1,"[88,2,67,12,57,106,94,23,27,144]",-4,7,1,0,0,1,57,138,24,1,DarkGreen,DarkGreen.jpg,DarkGreen,DarkGreen.jpg,,
,,,,,,,,,,,,,,,,,,-4,,,,,,,,,,,,,,,,,,,,,,,,,,,613a88917ff405c4017c9f25,001,2021-12-05_20h17.05.274,jm_natural_scene_simialrity_2-12-2021,2021.2.3,Win32,60.03121623,613a88917ff405c4017c9f25,61ad71e11ddd29ccf7a27d5b,61ad72843236e1261131cfbf,,,,,,-55,81,1,0,0,response7disk,1.032,-7,0,1,0,0,rectangle,-7,0,1,0,0,-4,-4,"[88,2,67,12,57,106,94,23,27,144]",-7,0,1,0,0,1,58,139,40,1,DarkBlue,DarkBlue.jpg,Pink,Pink.jpg,,
,,,,,,,,,,,,,,,,,,-1,,,,,,,,,,,,,,,,,,,,,,,,,,,613a88917ff405c4017c9f25,001,2021-12-05_20h17.05.274,jm_natural_scene_simialrity_2-12-2021,2021.2.3,Win32,60.03121623,613a88917ff405c4017c9f25,61ad71e11ddd29ccf7a27d5b,61ad72843236e1261131cfbf,,,,,,-31,-53,1,0,0,response5disk,1.6338,-2,-5,1,0,0,rectangle,-2,-5,1,0,0,-4,2,"[88,2,67,12,57,106,94,23,27,144]",-2,-5,1,0,0,1,59,140,20,1,LightGreen,LightGreen.jpg,LightBlue,LightBlue.jpg,,
,,,,,,,,,,,,,,,,,,-4,,,,,,,,,,,,,,,,,,,,,,,,,,,613a88917ff405c4017c9f25,001,2021-12-05_20h17.05.274,jm_natural_scene_simialrity_2-12-2021,2021.2.3,Win32,60.03121623,613a88917ff405c4017c9f25,61ad71e11ddd29ccf7a27d5b,61ad72843236e1261131cfbf,,,,,,-56,87,1,0,0,response7disk,1.2509,0,-7,1,0,0,rectangle,0,-7,1,0,0,-4,-3,"[88,2,67,12,57,106,94,23,27,144]",0,-7,1,0,0,1,60,141,13,1,Yellow,Yellow.jpg,LightBlue,LightBlue.jpg,,
,,,,,,,,,,,,,,,,,,-4,,,,,,,,,,,,,,,,,,,,,,,,,,,613a88917ff405c4017c9f25,001,2021-12-05_20h17.05.274,jm_natural_scene_simialrity_2-12-2021,2021.2.3,Win32,60.03121623,613a88917ff405c4017c9f25,61ad71e11ddd29ccf7a27d5b,61ad72843236e1261131cfbf,,,,,,-25,75,1,0,0,response7disk,1.1485,2,9,1,0,0,rectangle,2,9,1,0,0,-4,3,"[88,2,67,12,57,106,94,23,27,144]",2,9,1,0,0,1,61,142,54,1,DarkGreen,DarkGreen.jpg,Yellow,Yellow.jpg,,
,,,,,,,,,,,,,,,,,,-2,,,,,,,,,,,,,,,,,,,,,,,,,,,613a88917ff405c4017c9f25,001,2021-12-05_20h17.05.274,jm_natural_scene_simialrity_2-12-2021,2021.2.3,Win32,60.03121623,613a88917ff405c4017c9f25,61ad71e11ddd29ccf7a27d5b,61ad72843236e1261131cfbf,,,,,,-85,-35,1,0,0,response5disk,2.497,16,-5,1,0,0,rectangle,19,-98,1,0,0,1,1,"[88,2,67,12,57,106,94,23,27,144]",6,7,1,0,0,1,62,143,66,1,Turquiose,Turquiose.jpg,DarkGreen,DarkGreen.jpg,response3disk_3,rectangle
,,,,,,,,,,,,,,,,,,-4,,,,,,,,,,,,,,,,,,,,,,,,,,,613a88917ff405c4017c9f25,001,2021-12-05_20h17.05.274,jm_natural_scene_simialrity_2-12-2021,2021.2.3,Win32,60.03121623,613a88917ff405c4017c9f25,61ad71e11ddd29ccf7a27d5b,61ad72843236e1261131cfbf,,,,,,-36,74,1,0,0,response7disk,1.1157,-1,-6,1,0,0,rectangle,-1,-6,1,0,0,1,-1,"[88,2,67,12,57,106,94,23,27,144]",-1,-6,1,0,0,1,63,144,27,1,DarkGreen,DarkGreen.jpg,DarkBlue,DarkBlue.jpg,,
,,,,,,,,,,,,,,,,,,-1,,,,,,,,,,,,,,,,,,,,,,,,,,,613a88917ff405c4017c9f25,001,2021-12-05_20h17.05.274,jm_natural_scene_simialrity_2-12-2021,2021.2.3,Win32,60.03121623,613a88917ff405c4017c9f25,61ad71e11ddd29ccf7a27d5b,61ad72843236e1261131cfbf,,,,,,-29,-64,1,0,0,response5disk,1.6967,0,4,1,0,0,rectangle,0,4,1,0,0,1,-3,"[88,2,67,12,57,106,94,23,27,144]",0,4,1,0,0,1,64,145,74,1,Purple,Purple.jpg,Turquiose,Turquiose.jpg,,
,,,,,,,,,,,,,,,,,,1,,,,,,,,,,,,,,,,,,,,,,,,,,,613a88917ff405c4017c9f25,001,2021-12-05_20h17.05.274,jm_natural_scene_simialrity_2-12-2021,2021.2.3,Win32,60.03121623,613a88917ff405c4017c9f25,61ad71e11ddd29ccf7a27d5b,61ad72843236e1261131cfbf,,,,,,26,-49,1,0,0,response3disk,1.3968,8,-13,1,0,0,rectangle,8,-13,1,0,0,1,-1,"[88,2,67,12,57,106,94,23,27,144]",8,-13,1,0,0,1,65,146,7,1,Red,Red.jpg,Pink,Pink.jpg,,
,,,,,,,,,,,,,,,,,,-2,,,,,,,,,,,,,,,,,,,,,,,,,,,613a88917ff405c4017c9f25,001,2021-12-05_20h17.05.274,jm_natural_scene_simialrity_2-12-2021,2021.2.3,Win32,60.03121623,613a88917ff405c4017c9f25,61ad71e11ddd29ccf7a27d5b,61ad72843236e1261131cfbf,,,,,,-65,-46,1,0,0,response5disk,2.0649,-3,-1,1,0,0,rectangle,-3,-1,1,0,0,1,3,"[88,2,67,12,57,106,94,23,27,144]",-3,-1,1,0,0,1,66,147,19,1,LightGreen,LightGreen.jpg,Turquiose,Turquiose.jpg,,
,,,,,,,,,,,,,,,,,,4,,,,,,,,,,,,,,,,,,,,,,,,,,,613a88917ff405c4017c9f25,001,2021-12-05_20h17.05.274,jm_natural_scene_simialrity_2-12-2021,2021.2.3,Win32,60.03121623,613a88917ff405c4017c9f25,61ad71e11ddd29ccf7a27d5b,61ad72843236e1261131cfbf,,,,,,74,108,1,0,0,response1disk,1.3157,-9,-7,1,0,0,rectangle,-9,-7,1,0,0,1,-4,"[88,2,67,12,57,106,94,23,27,144]",-9,-7,1,0,0,1,67,148,17,1,LightGreen,LightGreen.jpg,LightGreen,LightGreen.jpg,,
,,,,,,,,,,,,,,,,,,-2,,,,,,,,,,,,,,,,,,,,,,,,,,,613a88917ff405c4017c9f25,001,2021-12-05_20h17.05.274,jm_natural_scene_simialrity_2-12-2021,2021.2.3,Win32,60.03121623,613a88917ff405c4017c9f25,61ad71e11ddd29ccf7a27d5b,61ad72843236e1261131cfbf,,,,,,-101,-41,1,0,0,response5disk,4.0124,-2,-14,1,0,0,rectangle,-2,-14,1,0,0,1,-2,"[88,2,67,12,57,106,94,23,27,144]",-2,-14,1,0,0,1,68,149,36,1,LightBlue,LightBlue.jpg,DarkBlue,DarkBlue.jpg,,
,,,,,,,,,,,,,,,,,,-4,,,,,,,,,,,,,,,,,,,,,,,,,,,613a88917ff405c4017c9f25,001,2021-12-05_20h17.05.274,jm_natural_scene_simialrity_2-12-2021,2021.2.3,Win32,60.03121623,613a88917ff405c4017c9f25,61ad71e11ddd29ccf7a27d5b,61ad72843236e1261131cfbf,,,,,,-30,61,1,0,0,response7disk,1.2677,-1,-1,1,0,0,rectangle,-1,-1,1,0,0,1,-4,"[88,2,67,12,57,106,94,23,27,144]",-1,-1,1,0,0,1,69,150,12,1,Yellow,Yellow.jpg,Turquiose,Turquiose.jpg,,
,,,,,,,,,,,,,,,,,,-2,,,,,,,,,,,,,,,,,,,,,,,,,,,613a88917ff405c4017c9f25,001,2021-12-05_20h17.05.274,jm_natural_scene_simialrity_2-12-2021,2021.2.3,Win32,60.03121623,613a88917ff405c4017c9f25,61ad71e11ddd29ccf7a27d5b,61ad72843236e1261131cfbf,,,,,,-82,-37,1,0,0,response5disk,1.532,-18,-8,1,0,0,rectangle,-18,-8,1,0,0,1,3,"[88,2,67,12,57,106,94,23,27,144]",-18,-8,1,0,0,1,70,151,32,1,Turquiose,Turquiose.jpg,DarkBlue,DarkBlue.jpg,,
,,,,,,,,,,,,,,,,,,-4,,,,,,,,,,,,,,,,,,,,,,,,,,,613a88917ff405c4017c9f25,001,2021-12-05_20h17.05.274,jm_natural_scene_simialrity_2-12-2021,2021.2.3,Win32,60.03121623,613a88917ff405c4017c9f25,61ad71e11ddd29ccf7a27d5b,61ad72843236e1261131cfbf,,,,,,-32,115,1,0,0,response7disk,1.6841,-18,13,1,0,0,rectangle,-18,13,1,0,0,1,-2,"[88,2,67,12,57,106,94,23,27,144]",-18,13,1,0,0,1,71,152,48,1,Turquiose,Turquiose.jpg,Red,Red.jpg,,
,,,,,,,,,,,,,,,,,,4,,,,,,,,,,,,,,,,,,,,,,,,,,,613a88917ff405c4017c9f25,001,2021-12-05_20h17.05.274,jm_natural_scene_simialrity_2-12-2021,2021.2.3,Win32,60.03121623,613a88917ff405c4017c9f25,61ad71e11ddd29ccf7a27d5b,61ad72843236e1261131cfbf,,,,,,59,86,1,0,0,response1disk,1.1819,1,8,1,0,0,rectangle,1,8,1,0,0,1,-3,"[88,2,67,12,57,106,94,23,27,144]",1,8,1,0,0,1,72,153,35,1,LightBlue,LightBlue.jpg,LightBlue,LightBlue.jpg,,
,,,,,,,,,,,,,,,,,,1,,,,,,,,,,,,,,,,,,,,,,,,,,,613a88917ff405c4017c9f25,001,2021-12-05_20h17.05.274,jm_natural_scene_simialrity_2-12-2021,2021.2.3,Win32,60.03121623,613a88917ff405c4017c9f25,61ad71e11ddd29ccf7a27d5b,61ad72843236e1261131cfbf,,,,,,19,-52,1,0,0,response3disk,1.382,-1,-9,1,0,0,rectangle,-1,-9,1,0,0,1,-4,"[88,2,67,12,57,106,94,23,27,144]",-1,-9,1,0,0,1,73,154,8,1,Red,Red.jpg,Purple,Purple.jpg,,
,,,,,,,,,,,,,,,,,,-3,,,,,,,,,,,,,,,,,,,,,,,,,,,613a88917ff405c4017c9f25,001,2021-12-05_20h17.05.274,jm_natural_scene_simialrity_2-12-2021,2021.2.3,Win32,60.03121623,613a88917ff405c4017c9f25,61ad71e11ddd29ccf7a27d5b,61ad72843236e1261131cfbf,,,,,,-54,39,1,0,0,response7disk,1.2655,-1,-2,1,0,0,rectangle,-1,-2,1,0,0,1,2,"[88,2,67,12,57,106,94,23,27,144]",-1,-2,1,0,0,1,74,155,59,1,Purple,Purple.jpg,Yellow,Yellow.jpg,,
,,,,,,,,,,,,,,,,,,1,,,,,,,,,,,,,,,,,,,,,,,,,,,613a88917ff405c4017c9f25,001,2021-12-05_20h17.05.274,jm_natural_scene_simialrity_2-12-2021,2021.2.3,Win32,60.03121623,613a88917ff405c4017c9f25,61ad71e11ddd29ccf7a27d5b,61ad72843236e1261131cfbf,,,,,,47,-73,1,0,0,response3disk,2.6312,6,-12,1,0,0,rectangle,6,-12,1,0,0,1,-3,"[88,2,67,12,57,106,94,23,27,144]",6,-12,1,0,0,1,75,156,18,1,LightGreen,LightGreen.jpg,DarkGreen,DarkGreen.jpg,,
,,,,,,,,,,,,,,,,,,-4,,,,,,,,,,,,,,,,,,,,,,,,,,,613a88917ff405c4017c9f25,001,2021-12-05_20h17.05.274,jm_natural_scene_simialrity_2-12-2021,2021.2.3,Win32,60.03121623,613a88917ff405c4017c9f25,61ad71e11ddd29ccf7a27d5b,61ad72843236e1261131cfbf,,,,,,-46,74,1,0,0,response7disk,1.0984,-3,6,1,0,0,rectangle,-3,6,1,0,0,1,-4,"[88,2,67,12,57,106,94,23,27,144]",-3,6,1,0,0,1,76,157,55,1,Turquiose,Turquiose.jpg,Yellow,Yellow.jpg,,
,,,,,,,,,,,,,,,,,,-2,,,,,,,,,,,,,,,,,,,,,,,,,,,613a88917ff405c4017c9f25,001,2021-12-05_20h17.05.274,jm_natural_scene_simialrity_2-12-2021,2021.2.3,Win32,60.03121623,613a88917ff405c4017c9f25,61ad71e11ddd29ccf7a27d5b,61ad72843236e1261131cfbf,,,,,,-61,-23,1,0,0,response5disk,1.4798,4,4,1,0,0,rectangle,4,4,1,0,0,1,-3,"[88,2,67,12,57,106,94,23,27,144]",4,4,1,0,0,1,77,158,72,1,DarkBlue,DarkBlue.jpg,Turquiose,Turquiose.jpg,,
,,,,,,,,,,,,,,,,,,4,,,,,,,,,,,,,,,,,,,,,,,,,,,613a88917ff405c4017c9f25,001,2021-12-05_20h17.05.274,jm_natural_scene_simialrity_2-12-2021,2021.2.3,Win32,60.03121623,613a88917ff405c4017c9f25,61ad71e11ddd29ccf7a27d5b,61ad72843236e1261131cfbf,,,,,,35,73,1,0,0,response1disk,3.9628,9,8,1,0,0,rectangle,9,8,1,0,0,1,3,"[88,2,67,12,57,106,94,23,27,144]",9,8,1,0,0,1,78,159,30,1,Turquiose,Turquiose.jpg,Turquiose,Turquiose.jpg,,
,,,,,,,,,,,,,,,,,,3,,,,,,,,,,,,,,,,,,,,,,,,,,,613a88917ff405c4017c9f25,001,2021-12-05_20h17.05.274,jm_natural_scene_simialrity_2-12-2021,2021.2.3,Win32,60.03121623,613a88917ff405c4017c9f25,61ad71e11ddd29ccf7a27d5b,61ad72843236e1261131cfbf,,,,,,99,48,1,0,0,response1disk,2.5832,12,1,1,0,0,rectangle,12,1,1,0,0,1,-4,"[88,2,67,12,57,106,94,23,27,144]",12,1,1,0,0,1,79,160,60,1,DarkGreen,DarkGreen.jpg,LightGreen,LightGreen.jpg,,
,,,,,,,,,,,,,,,,,,4,,,,,,,,,,,,,,,,,,,,,,,,,,,613a88917ff405c4017c9f25,001,2021-12-05_20h17.05.274,jm_natural_scene_simialrity_2-12-2021,2021.2.3,Win32,60.03121623,613a88917ff405c4017c9f25,61ad71e11ddd29ccf7a27d5b,61ad72843236e1261131cfbf,,,,,,52,94,1,0,0,response1disk,1.116,0,-10,1,0,0,rectangle,0,-10,1,0,0,1,3,"[88,2,67,12,57,106,94,23,27,144]",0,-10,1,0,0,1,80,161,39,1,DarkBlue,DarkBlue.jpg,DarkBlue,DarkBlue.jpg,,
