key_resp.keys,key_resp.rt,key_resp_16.keys,key_resp_16.rt,key_resp_2.keys,key_resp_2.rt,key_resp_3.keys,key_resp_3.rt,key_resp_19.keys,key_resp_19.rt,key_resp_10.keys,key_resp_10.rt,mouse_prac.x,mouse_prac.y,mouse_prac.leftButton,mouse_prac.midButton,mouse_prac.rightButton,mouse_prac.clicked_name,similarity,mouse_10.x,mouse_10.y,mouse_10.leftButton,mouse_10.midButton,mouse_10.rightButton,mouse_10.clicked_name,mouse_catch_prac.x,mouse_catch_prac.y,mouse_catch_prac.leftButton,mouse_catch_prac.midButton,mouse_catch_prac.rightButton,catchnumberprac,mouse_6.x,mouse_6.y,mouse_6.leftButton,mouse_6.midButton,mouse_6.rightButton,during_prac.thisRepN,during_prac.thisTrialN,during_prac.thisN,during_prac.thisIndex,during_prac.ran,trailimage1,trial1adress,trailimage2,trial2adress,participant,session,date,expName,psychopyVersion,OS,frameRate,PROLIFIC_PID,STUDY_ID,SESSION_ID,mouse_catch_prac.clicked_name,catchprac,mouse_6.clicked_name,key_resp_22.keys,key_resp_22.rt,mouse.x,mouse.y,mouse.leftButton,mouse.midButton,mouse.rightButton,mouse.clicked_name,response_time,mouse_2.x,mouse_2.y,mouse_2.leftButton,mouse_2.midButton,mouse_2.rightButton,mouse_2.clicked_name,mouse_3.x,mouse_3.y,mouse_3.leftButton,mouse_3.midButton,mouse_3.rightButton,catchresponse,catchnumber,catchtrialorder,mouse_11.x,mouse_11.y,mouse_11.leftButton,mouse_11.midButton,mouse_11.rightButton,trials_2.thisRepN,trials_2.thisTrialN,trials_2.thisN,trials_2.thisIndex,trials_2.ran,image1,image1adress,image2,image2adress,mouse_3.clicked_name,mouse_11.clicked_name
space,2.1463,space,68.9336,space,8.5568,space,15.0732,space,41.6431,space,10.2586,106,67,1,0,0,response1disk_5,3,5,2,1,0,0,rectangle_8,5,2,1,0,0,-4,5,2,1,0,0,0,0,0,0,1,trail1,trail1.jpg,trail1,trail1.jpg,616491882ae704cf46f3a9cc,001,2021-12-05_20h19.02.541,jm_natural_scene_simialrity_2-12-2021,2021.2.3,Win32,144.3209698,616491882ae704cf46f3a9cc,61ad71e11ddd29ccf7a27d5b,61ad7217ad07b4bce1964f86,,,,,,,,,,,,,,,,,,,,,,,,,,,,,,,,,,,,,,,,,,
,,,,,,,,,,,,-45,-88,1,0,0,response5disk_5,-1,1,0,1,0,0,rectangle_8,1,0,1,0,0,-4,1,0,1,0,0,0,1,1,1,1,trail1,trail1.jpg,trail2,trail2.jpg,616491882ae704cf46f3a9cc,001,2021-12-05_20h19.02.541,jm_natural_scene_simialrity_2-12-2021,2021.2.3,Win32,144.3209698,616491882ae704cf46f3a9cc,61ad71e11ddd29ccf7a27d5b,61ad7217ad07b4bce1964f86,,,,,,,,,,,,,,,,,,,,,,,,,,,,,,,,,,,,,,,,,,
,,,,,,,,,,,,43,102,1,0,0,response1disk_5,4,-11,-6,1,0,0,rectangle_8,-67,123,1,0,0,-4,-10,-5,1,0,0,0,2,2,3,1,trail2,trail2.jpg,trail2,trail2.jpg,616491882ae704cf46f3a9cc,001,2021-12-05_20h19.02.541,jm_natural_scene_simialrity_2-12-2021,2021.2.3,Win32,144.3209698,616491882ae704cf46f3a9cc,61ad71e11ddd29ccf7a27d5b,61ad7217ad07b4bce1964f86,response7disk_7,-4,rectangle_4,,,,,,,,,,,,,,,,,,,,,,,,,,,,,,,,,,,,,,,
,,,,,,,,,,,,-46,101,1,0,0,response7disk_5,-4,-8,10,1,0,0,rectangle_8,-8,10,1,0,0,-4,-8,10,1,0,0,0,3,3,4,1,trail2,trail2.jpg,trail3,trail3.jpg,616491882ae704cf46f3a9cc,001,2021-12-05_20h19.02.541,jm_natural_scene_simialrity_2-12-2021,2021.2.3,Win32,144.3209698,616491882ae704cf46f3a9cc,61ad71e11ddd29ccf7a27d5b,61ad7217ad07b4bce1964f86,,,,,,,,,,,,,,,,,,,,,,,,,,,,,,,,,,,,,,,,,,
,,,,,,,,,,,,36,118,1,0,0,response1disk_5,4,-1,-7,1,0,0,rectangle_8,-42,94,1,0,0,-4,4,16,1,0,0,0,4,4,5,1,trail3,trail3.jpg,trail3,trail3.jpg,616491882ae704cf46f3a9cc,001,2021-12-05_20h19.02.541,jm_natural_scene_simialrity_2-12-2021,2021.2.3,Win32,144.3209698,616491882ae704cf46f3a9cc,61ad71e11ddd29ccf7a27d5b,61ad7217ad07b4bce1964f86,response7disk_7,-4,rectangle_4,,,,,,,,,,,,,,,,,,,,,,,,,,,,,,,,,,,,,,,
,,,,,,,,,,,,-68,118,1,0,0,response7disk_5,-4,6,-1,1,0,0,rectangle_8,6,-1,1,0,0,-4,6,-1,1,0,0,0,5,5,2,1,trail1,trail1.jpg,trail3,trail3.jpg,616491882ae704cf46f3a9cc,001,2021-12-05_20h19.02.541,jm_natural_scene_simialrity_2-12-2021,2021.2.3,Win32,144.3209698,616491882ae704cf46f3a9cc,61ad71e11ddd29ccf7a27d5b,61ad7217ad07b4bce1964f86,,,,,,,,,,,,,,,,,,,,,,,,,,,,,,,,,,,,,,,,,,
,,,,,,,,,,,,,,,,,,-3,,,,,,,,,,,,,,,,,,,,,,,,,,,616491882ae704cf46f3a9cc,001,2021-12-05_20h19.02.541,jm_natural_scene_simialrity_2-12-2021,2021.2.3,Win32,144.3209698,616491882ae704cf46f3a9cc,61ad71e11ddd29ccf7a27d5b,61ad7217ad07b4bce1964f86,,,,space,2.7469,-79,43,1,0,0,response7disk,4.3701,-6,4,1,0,0,rectangle,-6,4,1,0,0,,-4,"[114,157,106,57,14,123,108,142,67,7]",-6,4,1,0,0,0,0,0,3,1,Red,Red.jpg,DarkGreen,DarkGreen.jpg,,
,,,,,,,,,,,,,,,,,,4,,,,,,,,,,,,,,,,,,,,,,,,,,,616491882ae704cf46f3a9cc,001,2021-12-05_20h19.02.541,jm_natural_scene_simialrity_2-12-2021,2021.2.3,Win32,144.3209698,616491882ae704cf46f3a9cc,61ad71e11ddd29ccf7a27d5b,61ad7217ad07b4bce1964f86,,,,,,31,91,1,0,0,response1disk,0.8066,8,-8,1,0,0,rectangle,8,-8,1,0,0,,1,"[114,157,106,57,14,123,108,142,67,7]",8,-8,1,0,0,0,1,1,9,1,Yellow,Yellow.jpg,Yellow,Yellow.jpg,,
,,,,,,,,,,,,,,,,,,-4,,,,,,,,,,,,,,,,,,,,,,,,,,,616491882ae704cf46f3a9cc,001,2021-12-05_20h19.02.541,jm_natural_scene_simialrity_2-12-2021,2021.2.3,Win32,144.3209698,616491882ae704cf46f3a9cc,61ad71e11ddd29ccf7a27d5b,61ad7217ad07b4bce1964f86,,,,,,-54,89,1,0,0,response7disk,1.2726,5,4,1,0,0,rectangle,5,4,1,0,0,,-1,"[114,157,106,57,14,123,108,142,67,7]",5,4,1,0,0,0,2,2,43,1,Pink,Pink.jpg,Purple,Purple.jpg,,
,,,,,,,,,,,,,,,,,,-4,,,,,,,,,,,,,,,,,,,,,,,,,,,616491882ae704cf46f3a9cc,001,2021-12-05_20h19.02.541,jm_natural_scene_simialrity_2-12-2021,2021.2.3,Win32,144.3209698,616491882ae704cf46f3a9cc,61ad71e11ddd29ccf7a27d5b,61ad7217ad07b4bce1964f86,,,,,,-43,96,1,0,0,response7disk,1.7732,8,-6,1,0,0,rectangle,8,-6,1,0,0,,1,"[114,157,106,57,14,123,108,142,67,7]",8,-6,1,0,0,0,3,3,47,1,DarkGreen,DarkGreen.jpg,Red,Red.jpg,,
,,,,,,,,,,,,,,,,,,-4,,,,,,,,,,,,,,,,,,,,,,,,,,,616491882ae704cf46f3a9cc,001,2021-12-05_20h19.02.541,jm_natural_scene_simialrity_2-12-2021,2021.2.3,Win32,144.3209698,616491882ae704cf46f3a9cc,61ad71e11ddd29ccf7a27d5b,61ad7217ad07b4bce1964f86,,,,,,-47,97,1,0,0,response7disk,0.7092,0,7,1,0,0,rectangle,0,7,1,0,0,,2,"[114,157,106,57,14,123,108,142,67,7]",0,7,1,0,0,0,4,4,28,1,DarkGreen,DarkGreen.jpg,Pink,Pink.jpg,,
,,,,,,,,,,,,,,,,,,-4,,,,,,,,,,,,,,,,,,,,,,,,,,,616491882ae704cf46f3a9cc,001,2021-12-05_20h19.02.541,jm_natural_scene_simialrity_2-12-2021,2021.2.3,Win32,144.3209698,616491882ae704cf46f3a9cc,61ad71e11ddd29ccf7a27d5b,61ad7217ad07b4bce1964f86,,,,,,-61,86,1,0,0,response7disk,1.0573,6,21,1,0,0,rectangle,6,21,1,0,0,,2,"[114,157,106,57,14,123,108,142,67,7]",6,21,1,0,0,0,5,5,55,1,Turquiose,Turquiose.jpg,Yellow,Yellow.jpg,,
,,,,,,,,,,,,,,,,,,-2,,,,,,,,,,,,,,,,,,,,,,,,,,,616491882ae704cf46f3a9cc,001,2021-12-05_20h19.02.541,jm_natural_scene_simialrity_2-12-2021,2021.2.3,Win32,144.3209698,616491882ae704cf46f3a9cc,61ad71e11ddd29ccf7a27d5b,61ad7217ad07b4bce1964f86,,,,,,-62,-27,1,0,0,response5disk,1.4536,-12,12,1,0,0,rectangle,-65,97,1,0,0,-4,-4,"[114,157,106,57,14,123,108,142,67,7]",-9,15,1,0,0,0,6,6,21,1,LightGreen,LightGreen.jpg,DarkBlue,DarkBlue.jpg,response7disk_3,rectangle
,,,,,,,,,,,,,,,,,,4,,,,,,,,,,,,,,,,,,,,,,,,,,,616491882ae704cf46f3a9cc,001,2021-12-05_20h19.02.541,jm_natural_scene_simialrity_2-12-2021,2021.2.3,Win32,144.3209698,616491882ae704cf46f3a9cc,61ad71e11ddd29ccf7a27d5b,61ad7217ad07b4bce1964f86,,,,,,36,113,1,0,0,response1disk,0.8623,16,24,1,0,0,rectangle,16,24,1,0,0,-4,-3,"[114,157,106,57,14,123,108,142,67,7]",16,24,1,0,0,0,7,7,44,1,Purple,Purple.jpg,Purple,Purple.jpg,,
,,,,,,,,,,,,,,,,,,3,,,,,,,,,,,,,,,,,,,,,,,,,,,616491882ae704cf46f3a9cc,001,2021-12-05_20h19.02.541,jm_natural_scene_simialrity_2-12-2021,2021.2.3,Win32,144.3209698,616491882ae704cf46f3a9cc,61ad71e11ddd29ccf7a27d5b,61ad7217ad07b4bce1964f86,,,,,,70,48,1,0,0,response1disk,2.5382,-1,-16,1,0,0,rectangle,-1,-16,1,0,0,-4,-3,"[114,157,106,57,14,123,108,142,67,7]",-1,-16,1,0,0,0,8,8,74,1,Purple,Purple.jpg,Turquiose,Turquiose.jpg,,
,,,,,,,,,,,,,,,,,,4,,,,,,,,,,,,,,,,,,,,,,,,,,,616491882ae704cf46f3a9cc,001,2021-12-05_20h19.02.541,jm_natural_scene_simialrity_2-12-2021,2021.2.3,Win32,144.3209698,616491882ae704cf46f3a9cc,61ad71e11ddd29ccf7a27d5b,61ad7217ad07b4bce1964f86,,,,,,38,86,1,0,0,response1disk,1.8229,10,5,1,0,0,rectangle,10,5,1,0,0,-4,-3,"[114,157,106,57,14,123,108,142,67,7]",10,5,1,0,0,0,9,9,79,1,Purple,Purple.jpg,DarkBlue,DarkBlue.jpg,,
,,,,,,,,,,,,,,,,,,4,,,,,,,,,,,,,,,,,,,,,,,,,,,616491882ae704cf46f3a9cc,001,2021-12-05_20h19.02.541,jm_natural_scene_simialrity_2-12-2021,2021.2.3,Win32,144.3209698,616491882ae704cf46f3a9cc,61ad71e11ddd29ccf7a27d5b,61ad7217ad07b4bce1964f86,,,,,,23,77,1,0,0,response1disk,0.6954,18,5,1,0,0,rectangle,18,5,1,0,0,-4,1,"[114,157,106,57,14,123,108,142,67,7]",18,5,1,0,0,0,10,10,0,1,Red,Red.jpg,Red,Red.jpg,,
,,,,,,,,,,,,,,,,,,4,,,,,,,,,,,,,,,,,,,,,,,,,,,616491882ae704cf46f3a9cc,001,2021-12-05_20h19.02.541,jm_natural_scene_simialrity_2-12-2021,2021.2.3,Win32,144.3209698,616491882ae704cf46f3a9cc,61ad71e11ddd29ccf7a27d5b,61ad7217ad07b4bce1964f86,,,,,,28,112,1,0,0,response1disk,1.0498,0,-6,1,0,0,rectangle,0,-6,1,0,0,-4,2,"[114,157,106,57,14,123,108,142,67,7]",0,-6,1,0,0,0,11,11,40,1,DarkBlue,DarkBlue.jpg,Pink,Pink.jpg,,
,,,,,,,,,,,,,,,,,,-4,,,,,,,,,,,,,,,,,,,,,,,,,,,616491882ae704cf46f3a9cc,001,2021-12-05_20h19.02.541,jm_natural_scene_simialrity_2-12-2021,2021.2.3,Win32,144.3209698,616491882ae704cf46f3a9cc,61ad71e11ddd29ccf7a27d5b,61ad7217ad07b4bce1964f86,,,,,,-57,99,1,0,0,response7disk,1.0919,3,11,1,0,0,rectangle,3,11,1,0,0,-4,1,"[114,157,106,57,14,123,108,142,67,7]",3,11,1,0,0,0,12,12,2,1,Red,Red.jpg,LightGreen,LightGreen.jpg,,
,,,,,,,,,,,,,,,,,,-3,,,,,,,,,,,,,,,,,,,,,,,,,,,616491882ae704cf46f3a9cc,001,2021-12-05_20h19.02.541,jm_natural_scene_simialrity_2-12-2021,2021.2.3,Win32,144.3209698,616491882ae704cf46f3a9cc,61ad71e11ddd29ccf7a27d5b,61ad7217ad07b4bce1964f86,,,,,,-92,32,1,0,0,response7disk,1.5924,-17,2,1,0,0,rectangle,98,-58,1,0,0,2,2,"[114,157,106,57,14,123,108,142,67,7]",2,8,1,0,0,0,13,13,34,1,Turquiose,Turquiose.jpg,Purple,Purple.jpg,response3disk_3,rectangle
,,,,,,,,,,,,,,,,,,-2,,,,,,,,,,,,,,,,,,,,,,,,,,,616491882ae704cf46f3a9cc,001,2021-12-05_20h19.02.541,jm_natural_scene_simialrity_2-12-2021,2021.2.3,Win32,144.3209698,616491882ae704cf46f3a9cc,61ad71e11ddd29ccf7a27d5b,61ad7217ad07b4bce1964f86,,,,,,-71,-34,1,0,0,response5disk,3.9499,-4,3,1,0,0,rectangle,-4,3,1,0,0,2,-2,"[114,157,106,57,14,123,108,142,67,7]",-4,3,1,0,0,0,14,14,31,1,Turquiose,Turquiose.jpg,LightBlue,LightBlue.jpg,,
,,,,,,,,,,,,,,,,,,1,,,,,,,,,,,,,,,,,,,,,,,,,,,616491882ae704cf46f3a9cc,001,2021-12-05_20h19.02.541,jm_natural_scene_simialrity_2-12-2021,2021.2.3,Win32,144.3209698,616491882ae704cf46f3a9cc,61ad71e11ddd29ccf7a27d5b,61ad7217ad07b4bce1964f86,,,,,,36,-86,1,0,0,response3disk,1.8253,8,-23,1,0,0,rectangle,8,-23,1,0,0,2,1,"[114,157,106,57,14,123,108,142,67,7]",8,-23,1,0,0,0,15,15,58,1,Pink,Pink.jpg,Yellow,Yellow.jpg,,
,,,,,,,,,,,,,,,,,,-4,,,,,,,,,,,,,,,,,,,,,,,,,,,616491882ae704cf46f3a9cc,001,2021-12-05_20h19.02.541,jm_natural_scene_simialrity_2-12-2021,2021.2.3,Win32,144.3209698,616491882ae704cf46f3a9cc,61ad71e11ddd29ccf7a27d5b,61ad7217ad07b4bce1964f86,,,,,,-44,129,1,0,0,response7disk,1.6689,5,11,1,0,0,rectangle,5,11,1,0,0,2,1,"[114,157,106,57,14,123,108,142,67,7]",5,11,1,0,0,0,16,16,57,1,DarkBlue,DarkBlue.jpg,Yellow,Yellow.jpg,,
,,,,,,,,,,,,,,,,,,-4,,,,,,,,,,,,,,,,,,,,,,,,,,,616491882ae704cf46f3a9cc,001,2021-12-05_20h19.02.541,jm_natural_scene_simialrity_2-12-2021,2021.2.3,Win32,144.3209698,616491882ae704cf46f3a9cc,61ad71e11ddd29ccf7a27d5b,61ad7217ad07b4bce1964f86,,,,,,-47,115,1,0,0,response7disk,2.5243,-9,18,1,0,0,rectangle,-9,18,1,0,0,2,2,"[114,157,106,57,14,123,108,142,67,7]",-9,18,1,0,0,0,17,17,56,1,LightBlue,LightBlue.jpg,Yellow,Yellow.jpg,,
,,,,,,,,,,,,,,,,,,-3,,,,,,,,,,,,,,,,,,,,,,,,,,,616491882ae704cf46f3a9cc,001,2021-12-05_20h19.02.541,jm_natural_scene_simialrity_2-12-2021,2021.2.3,Win32,144.3209698,616491882ae704cf46f3a9cc,61ad71e11ddd29ccf7a27d5b,61ad7217ad07b4bce1964f86,,,,,,-60,36,1,0,0,response7disk,1.0917,0,-18,1,0,0,rectangle,0,-18,1,0,0,2,-4,"[114,157,106,57,14,123,108,142,67,7]",0,-18,1,0,0,0,18,18,61,1,Turquiose,Turquiose.jpg,LightGreen,LightGreen.jpg,,
,,,,,,,,,,,,,,,,,,-4,,,,,,,,,,,,,,,,,,,,,,,,,,,616491882ae704cf46f3a9cc,001,2021-12-05_20h19.02.541,jm_natural_scene_simialrity_2-12-2021,2021.2.3,Win32,144.3209698,616491882ae704cf46f3a9cc,61ad71e11ddd29ccf7a27d5b,61ad7217ad07b4bce1964f86,,,,,,-48,82,1,0,0,response7disk,0.9388,-2,5,1,0,0,rectangle,-2,5,1,0,0,2,-3,"[114,157,106,57,14,123,108,142,67,7]",-2,5,1,0,0,0,19,19,70,1,Purple,Purple.jpg,DarkGreen,DarkGreen.jpg,,
,,,,,,,,,,,,,,,,,,-4,,,,,,,,,,,,,,,,,,,,,,,,,,,616491882ae704cf46f3a9cc,001,2021-12-05_20h19.02.541,jm_natural_scene_simialrity_2-12-2021,2021.2.3,Win32,144.3209698,616491882ae704cf46f3a9cc,61ad71e11ddd29ccf7a27d5b,61ad7217ad07b4bce1964f86,,,,,,-46,86,1,0,0,response7disk,0.9318,8,-7,1,0,0,rectangle,8,-7,1,0,0,2,1,"[114,157,106,57,14,123,108,142,67,7]",8,-7,1,0,0,0,20,20,13,1,Yellow,Yellow.jpg,LightBlue,LightBlue.jpg,,
,,,,,,,,,,,,,,,,,,-1,,,,,,,,,,,,,,,,,,,,,,,,,,,616491882ae704cf46f3a9cc,001,2021-12-05_20h19.02.541,jm_natural_scene_simialrity_2-12-2021,2021.2.3,Win32,144.3209698,616491882ae704cf46f3a9cc,61ad71e11ddd29ccf7a27d5b,61ad7217ad07b4bce1964f86,,,,,,-33,-75,1,0,0,response5disk,1.3214,16,-13,1,0,0,rectangle,16,-13,1,0,0,2,-4,"[114,157,106,57,14,123,108,142,67,7]",16,-13,1,0,0,0,21,21,1,1,Red,Red.jpg,Yellow,Yellow.jpg,,
,,,,,,,,,,,,,,,,,,-4,,,,,,,,,,,,,,,,,,,,,,,,,,,616491882ae704cf46f3a9cc,001,2021-12-05_20h19.02.541,jm_natural_scene_simialrity_2-12-2021,2021.2.3,Win32,144.3209698,616491882ae704cf46f3a9cc,61ad71e11ddd29ccf7a27d5b,61ad7217ad07b4bce1964f86,,,,,,-52,91,1,0,0,response7disk,2.0721,-2,9,1,0,0,rectangle,-2,9,1,0,0,2,1,"[114,157,106,57,14,123,108,142,67,7]",-2,9,1,0,0,0,22,22,6,1,Red,Red.jpg,DarkBlue,DarkBlue.jpg,,
,,,,,,,,,,,,,,,,,,-1,,,,,,,,,,,,,,,,,,,,,,,,,,,616491882ae704cf46f3a9cc,001,2021-12-05_20h19.02.541,jm_natural_scene_simialrity_2-12-2021,2021.2.3,Win32,144.3209698,616491882ae704cf46f3a9cc,61ad71e11ddd29ccf7a27d5b,61ad7217ad07b4bce1964f86,,,,,,-37,-99,1,0,0,response5disk,2.107,-1,-5,1,0,0,rectangle,-1,-5,1,0,0,2,1,"[114,157,106,57,14,123,108,142,67,7]",-1,-5,1,0,0,0,23,23,19,1,LightGreen,LightGreen.jpg,Turquiose,Turquiose.jpg,,
,,,,,,,,,,,,,,,,,,-4,,,,,,,,,,,,,,,,,,,,,,,,,,,616491882ae704cf46f3a9cc,001,2021-12-05_20h19.02.541,jm_natural_scene_simialrity_2-12-2021,2021.2.3,Win32,144.3209698,616491882ae704cf46f3a9cc,61ad71e11ddd29ccf7a27d5b,61ad7217ad07b4bce1964f86,,,,,,-60,80,1,0,0,response7disk,1.8915,4,2,1,0,0,rectangle,4,2,1,0,0,2,-1,"[114,157,106,57,14,123,108,142,67,7]",4,2,1,0,0,0,24,24,22,1,LightGreen,LightGreen.jpg,Pink,Pink.jpg,,
,,,,,,,,,,,,,,,,,,1,,,,,,,,,,,,,,,,,,,,,,,,,,,616491882ae704cf46f3a9cc,001,2021-12-05_20h19.02.541,jm_natural_scene_simialrity_2-12-2021,2021.2.3,Win32,144.3209698,616491882ae704cf46f3a9cc,61ad71e11ddd29ccf7a27d5b,61ad7217ad07b4bce1964f86,,,,,,36,-100,1,0,0,response3disk,1.0637,9,-8,1,0,0,rectangle,9,-8,1,0,0,2,-4,"[114,157,106,57,14,123,108,142,67,7]",9,-8,1,0,0,0,25,25,63,1,DarkBlue,DarkBlue.jpg,LightGreen,LightGreen.jpg,,
,,,,,,,,,,,,,,,,,,-3,,,,,,,,,,,,,,,,,,,,,,,,,,,616491882ae704cf46f3a9cc,001,2021-12-05_20h19.02.541,jm_natural_scene_simialrity_2-12-2021,2021.2.3,Win32,144.3209698,616491882ae704cf46f3a9cc,61ad71e11ddd29ccf7a27d5b,61ad7217ad07b4bce1964f86,,,,,,-85,39,1,0,0,response7disk,1.7454,-17,-2,1,0,0,rectangle,-17,-2,1,0,0,2,-1,"[114,157,106,57,14,123,108,142,67,7]",-17,-2,1,0,0,0,26,26,49,1,LightBlue,LightBlue.jpg,Red,Red.jpg,,
,,,,,,,,,,,,,,,,,,2,,,,,,,,,,,,,,,,,,,,,,,,,,,616491882ae704cf46f3a9cc,001,2021-12-05_20h19.02.541,jm_natural_scene_simialrity_2-12-2021,2021.2.3,Win32,144.3209698,616491882ae704cf46f3a9cc,61ad71e11ddd29ccf7a27d5b,61ad7217ad07b4bce1964f86,,,,,,74,-45,1,0,0,response3disk,2.1071,6,-3,1,0,0,rectangle,6,-3,1,0,0,2,1,"[114,157,106,57,14,123,108,142,67,7]",6,-3,1,0,0,0,27,27,45,1,Yellow,Yellow.jpg,Red,Red.jpg,,
,,,,,,,,,,,,,,,,,,4,,,,,,,,,,,,,,,,,,,,,,,,,,,616491882ae704cf46f3a9cc,001,2021-12-05_20h19.02.541,jm_natural_scene_simialrity_2-12-2021,2021.2.3,Win32,144.3209698,616491882ae704cf46f3a9cc,61ad71e11ddd29ccf7a27d5b,61ad7217ad07b4bce1964f86,,,,,,23,88,1,0,0,response1disk,0.6748,-5,-7,1,0,0,rectangle,-5,-7,1,0,0,2,1,"[114,157,106,57,14,123,108,142,67,7]",-5,-7,1,0,0,0,28,28,24,1,DarkGreen,DarkGreen.jpg,DarkGreen,DarkGreen.jpg,,
,,,,,,,,,,,,,,,,,,2,,,,,,,,,,,,,,,,,,,,,,,,,,,616491882ae704cf46f3a9cc,001,2021-12-05_20h19.02.541,jm_natural_scene_simialrity_2-12-2021,2021.2.3,Win32,144.3209698,616491882ae704cf46f3a9cc,61ad71e11ddd29ccf7a27d5b,61ad7217ad07b4bce1964f86,,,,,,110,-44,1,0,0,response3disk,1.8498,-2,-7,1,0,0,rectangle,-2,-7,1,0,0,2,-3,"[114,157,106,57,14,123,108,142,67,7]",-2,-7,1,0,0,0,29,29,18,1,LightGreen,LightGreen.jpg,DarkGreen,DarkGreen.jpg,,
,,,,,,,,,,,,,,,,,,-4,,,,,,,,,,,,,,,,,,,,,,,,,,,616491882ae704cf46f3a9cc,001,2021-12-05_20h19.02.541,jm_natural_scene_simialrity_2-12-2021,2021.2.3,Win32,144.3209698,616491882ae704cf46f3a9cc,61ad71e11ddd29ccf7a27d5b,61ad7217ad07b4bce1964f86,,,,,,-52,88,1,0,0,response7disk,2.1557,2,10,1,0,0,rectangle,2,10,1,0,0,2,-1,"[114,157,106,57,14,123,108,142,67,7]",2,10,1,0,0,0,30,30,46,1,LightGreen,LightGreen.jpg,Red,Red.jpg,,
,,,,,,,,,,,,,,,,,,1,,,,,,,,,,,,,,,,,,,,,,,,,,,616491882ae704cf46f3a9cc,001,2021-12-05_20h19.02.541,jm_natural_scene_simialrity_2-12-2021,2021.2.3,Win32,144.3209698,616491882ae704cf46f3a9cc,61ad71e11ddd29ccf7a27d5b,61ad7217ad07b4bce1964f86,,,,,,38,-104,1,0,0,response3disk,1.4914,5,-22,1,0,0,rectangle,5,-22,1,0,0,2,-1,"[114,157,106,57,14,123,108,142,67,7]",5,-22,1,0,0,0,31,31,72,1,DarkBlue,DarkBlue.jpg,Turquiose,Turquiose.jpg,,
,,,,,,,,,,,,,,,,,,-4,,,,,,,,,,,,,,,,,,,,,,,,,,,616491882ae704cf46f3a9cc,001,2021-12-05_20h19.02.541,jm_natural_scene_simialrity_2-12-2021,2021.2.3,Win32,144.3209698,616491882ae704cf46f3a9cc,61ad71e11ddd29ccf7a27d5b,61ad7217ad07b4bce1964f86,,,,,,-33,81,1,0,0,response7disk,0.9389,21,6,1,0,0,rectangle,21,6,1,0,0,2,-4,"[114,157,106,57,14,123,108,142,67,7]",21,6,1,0,0,0,32,32,54,1,DarkGreen,DarkGreen.jpg,Yellow,Yellow.jpg,,
,,,,,,,,,,,,,,,,,,-3,,,,,,,,,,,,,,,,,,,,,,,,,,,616491882ae704cf46f3a9cc,001,2021-12-05_20h19.02.541,jm_natural_scene_simialrity_2-12-2021,2021.2.3,Win32,144.3209698,616491882ae704cf46f3a9cc,61ad71e11ddd29ccf7a27d5b,61ad7217ad07b4bce1964f86,,,,,,-82,47,1,0,0,response7disk,1.0431,-5,-20,1,0,0,rectangle,-5,-20,1,0,0,2,-3,"[114,157,106,57,14,123,108,142,67,7]",-5,-20,1,0,0,0,33,33,65,1,Purple,Purple.jpg,LightGreen,LightGreen.jpg,,
,,,,,,,,,,,,,,,,,,-3,,,,,,,,,,,,,,,,,,,,,,,,,,,616491882ae704cf46f3a9cc,001,2021-12-05_20h19.02.541,jm_natural_scene_simialrity_2-12-2021,2021.2.3,Win32,144.3209698,616491882ae704cf46f3a9cc,61ad71e11ddd29ccf7a27d5b,61ad7217ad07b4bce1964f86,,,,,,-61,33,1,0,0,response7disk,0.9312,-20,16,1,0,0,rectangle,-20,16,1,0,0,2,-3,"[114,157,106,57,14,123,108,142,67,7]",-20,16,1,0,0,0,34,34,69,1,Pink,Pink.jpg,DarkGreen,DarkGreen.jpg,,
,,,,,,,,,,,,,,,,,,-3,,,,,,,,,,,,,,,,,,,,,,,,,,,616491882ae704cf46f3a9cc,001,2021-12-05_20h19.02.541,jm_natural_scene_simialrity_2-12-2021,2021.2.3,Win32,144.3209698,616491882ae704cf46f3a9cc,61ad71e11ddd29ccf7a27d5b,61ad7217ad07b4bce1964f86,,,,,,-69,32,1,0,0,response7disk,1.2448,17,-2,1,0,0,rectangle,17,-2,1,0,0,2,-1,"[114,157,106,57,14,123,108,142,67,7]",17,-2,1,0,0,0,35,35,80,1,Purple,Purple.jpg,Pink,Pink.jpg,,
,,,,,,,,,,,,,,,,,,-1,,,,,,,,,,,,,,,,,,,,,,,,,,,616491882ae704cf46f3a9cc,001,2021-12-05_20h19.02.541,jm_natural_scene_simialrity_2-12-2021,2021.2.3,Win32,144.3209698,616491882ae704cf46f3a9cc,61ad71e11ddd29ccf7a27d5b,61ad7217ad07b4bce1964f86,,,,,,-30,-78,1,0,0,response5disk,1.5021,-14,-7,1,0,0,rectangle,-14,-7,1,0,0,2,-1,"[114,157,106,57,14,123,108,142,67,7]",-14,-7,1,0,0,0,36,36,27,1,DarkGreen,DarkGreen.jpg,DarkBlue,DarkBlue.jpg,,
,,,,,,,,,,,,,,,,,,4,,,,,,,,,,,,,,,,,,,,,,,,,,,616491882ae704cf46f3a9cc,001,2021-12-05_20h19.02.541,jm_natural_scene_simialrity_2-12-2021,2021.2.3,Win32,144.3209698,616491882ae704cf46f3a9cc,61ad71e11ddd29ccf7a27d5b,61ad7217ad07b4bce1964f86,,,,,,19,92,1,0,0,response1disk,0.7579,-9,-11,1,0,0,rectangle,-9,-11,1,0,0,2,-3,"[114,157,106,57,14,123,108,142,67,7]",-9,-11,1,0,0,0,37,37,35,1,LightBlue,LightBlue.jpg,LightBlue,LightBlue.jpg,,
,,,,,,,,,,,,,,,,,,-3,,,,,,,,,,,,,,,,,,,,,,,,,,,616491882ae704cf46f3a9cc,001,2021-12-05_20h19.02.541,jm_natural_scene_simialrity_2-12-2021,2021.2.3,Win32,144.3209698,616491882ae704cf46f3a9cc,61ad71e11ddd29ccf7a27d5b,61ad7217ad07b4bce1964f86,,,,,,-98,56,1,0,0,response7disk,2.0306,-23,16,1,0,0,rectangle,-23,16,1,0,0,2,3,"[114,157,106,57,14,123,108,142,67,7]",-23,16,1,0,0,0,38,38,26,1,DarkGreen,DarkGreen.jpg,LightBlue,LightBlue.jpg,,
,,,,,,,,,,,,,,,,,,2,,,,,,,,,,,,,,,,,,,,,,,,,,,616491882ae704cf46f3a9cc,001,2021-12-05_20h19.02.541,jm_natural_scene_simialrity_2-12-2021,2021.2.3,Win32,144.3209698,616491882ae704cf46f3a9cc,61ad71e11ddd29ccf7a27d5b,61ad7217ad07b4bce1964f86,,,,,,75,-51,1,0,0,response3disk,1.6343,11,-3,1,0,0,rectangle,11,-3,1,0,0,2,-4,"[114,157,106,57,14,123,108,142,67,7]",11,-3,1,0,0,0,39,39,7,1,Red,Red.jpg,Pink,Pink.jpg,,
,,,,,,,,,,,,,,,,,,-3,,,,,,,,,,,,,,,,,,,,,,,,,,,616491882ae704cf46f3a9cc,001,2021-12-05_20h19.02.541,jm_natural_scene_simialrity_2-12-2021,2021.2.3,Win32,144.3209698,616491882ae704cf46f3a9cc,61ad71e11ddd29ccf7a27d5b,61ad7217ad07b4bce1964f86,,,,,,-85,29,1,0,0,response7disk,1.4744,-9,-14,1,0,0,rectangle,-9,-14,1,0,0,2,-3,"[114,157,106,57,14,123,108,142,67,7]",-9,-14,1,0,0,0,40,40,37,1,LightBlue,LightBlue.jpg,Pink,Pink.jpg,,
,,,,,,,,,,,,,,,,,,-4,,,,,,,,,,,,,,,,,,,,,,,,,,,616491882ae704cf46f3a9cc,001,2021-12-05_20h19.02.541,jm_natural_scene_simialrity_2-12-2021,2021.2.3,Win32,144.3209698,616491882ae704cf46f3a9cc,61ad71e11ddd29ccf7a27d5b,61ad7217ad07b4bce1964f86,,,,,,-59,90,1,0,0,response7disk,1.4185,4,-4,1,0,0,rectangle,4,-4,1,0,0,2,-2,"[114,157,106,57,14,123,108,142,67,7]",4,-4,1,0,0,0,41,41,20,1,LightGreen,LightGreen.jpg,LightBlue,LightBlue.jpg,,
,,,,,,,,,,,,,,,,,,-4,,,,,,,,,,,,,,,,,,,,,,,,,,,616491882ae704cf46f3a9cc,001,2021-12-05_20h19.02.541,jm_natural_scene_simialrity_2-12-2021,2021.2.3,Win32,144.3209698,616491882ae704cf46f3a9cc,61ad71e11ddd29ccf7a27d5b,61ad7217ad07b4bce1964f86,,,,,,-51,83,1,0,0,response7disk,0.6885,9,8,1,0,0,rectangle,9,8,1,0,0,2,1,"[114,157,106,57,14,123,108,142,67,7]",9,8,1,0,0,0,42,42,62,1,LightBlue,LightBlue.jpg,LightGreen,LightGreen.jpg,,
,,,,,,,,,,,,,,,,,,-3,,,,,,,,,,,,,,,,,,,,,,,,,,,616491882ae704cf46f3a9cc,001,2021-12-05_20h19.02.541,jm_natural_scene_simialrity_2-12-2021,2021.2.3,Win32,144.3209698,616491882ae704cf46f3a9cc,61ad71e11ddd29ccf7a27d5b,61ad7217ad07b4bce1964f86,,,,,,-62,42,1,0,0,response7disk,1.7315,20,-13,1,0,0,rectangle,20,-13,1,0,0,2,2,"[114,157,106,57,14,123,108,142,67,7]",20,-13,1,0,0,0,43,43,75,1,DarkBlue,DarkBlue.jpg,LightBlue,LightBlue.jpg,,
,,,,,,,,,,,,,,,,,,-1,,,,,,,,,,,,,,,,,,,,,,,,,,,616491882ae704cf46f3a9cc,001,2021-12-05_20h19.02.541,jm_natural_scene_simialrity_2-12-2021,2021.2.3,Win32,144.3209698,616491882ae704cf46f3a9cc,61ad71e11ddd29ccf7a27d5b,61ad7217ad07b4bce1964f86,,,,,,-37,-83,1,0,0,response5disk,1.2273,2,-12,1,0,0,rectangle,2,-12,1,0,0,2,2,"[114,157,106,57,14,123,108,142,67,7]",2,-12,1,0,0,0,44,44,36,1,LightBlue,LightBlue.jpg,DarkBlue,DarkBlue.jpg,,
,,,,,,,,,,,,,,,,,,-1,,,,,,,,,,,,,,,,,,,,,,,,,,,616491882ae704cf46f3a9cc,001,2021-12-05_20h19.02.541,jm_natural_scene_simialrity_2-12-2021,2021.2.3,Win32,144.3209698,616491882ae704cf46f3a9cc,61ad71e11ddd29ccf7a27d5b,61ad7217ad07b4bce1964f86,,,,,,-47,-68,1,0,0,response5disk,1.1893,5,-6,1,0,0,rectangle,5,-6,1,0,0,2,3,"[114,157,106,57,14,123,108,142,67,7]",5,-6,1,0,0,0,45,45,71,1,LightBlue,LightBlue.jpg,Turquiose,Turquiose.jpg,,
,,,,,,,,,,,,,,,,,,1,,,,,,,,,,,,,,,,,,,,,,,,,,,616491882ae704cf46f3a9cc,001,2021-12-05_20h19.02.541,jm_natural_scene_simialrity_2-12-2021,2021.2.3,Win32,144.3209698,616491882ae704cf46f3a9cc,61ad71e11ddd29ccf7a27d5b,61ad7217ad07b4bce1964f86,,,,,,41,-100,1,0,0,response3disk,2.4059,-19,9,1,0,0,rectangle,-19,9,1,0,0,2,3,"[114,157,106,57,14,123,108,142,67,7]",-19,9,1,0,0,0,46,46,51,1,Pink,Pink.jpg,Red,Red.jpg,,
,,,,,,,,,,,,,,,,,,-3,,,,,,,,,,,,,,,,,,,,,,,,,,,616491882ae704cf46f3a9cc,001,2021-12-05_20h19.02.541,jm_natural_scene_simialrity_2-12-2021,2021.2.3,Win32,144.3209698,616491882ae704cf46f3a9cc,61ad71e11ddd29ccf7a27d5b,61ad7217ad07b4bce1964f86,,,,,,-92,51,1,0,0,response7disk,1.4534,-21,-8,1,0,0,rectangle,-21,-8,1,0,0,2,-3,"[114,157,106,57,14,123,108,142,67,7]",-21,-8,1,0,0,0,47,47,48,1,Turquiose,Turquiose.jpg,Red,Red.jpg,,
,,,,,,,,,,,,,,,,,,-3,,,,,,,,,,,,,,,,,,,,,,,,,,,616491882ae704cf46f3a9cc,001,2021-12-05_20h19.02.541,jm_natural_scene_simialrity_2-12-2021,2021.2.3,Win32,144.3209698,616491882ae704cf46f3a9cc,61ad71e11ddd29ccf7a27d5b,61ad7217ad07b4bce1964f86,,,,,,-83,33,1,0,0,response7disk,1.9956,-21,-10,1,0,0,rectangle,-21,-10,1,0,0,2,-3,"[114,157,106,57,14,123,108,142,67,7]",-21,-10,1,0,0,0,48,48,5,1,Red,Red.jpg,LightBlue,LightBlue.jpg,,
,,,,,,,,,,,,,,,,,,-1,,,,,,,,,,,,,,,,,,,,,,,,,,,616491882ae704cf46f3a9cc,001,2021-12-05_20h19.02.541,jm_natural_scene_simialrity_2-12-2021,2021.2.3,Win32,144.3209698,616491882ae704cf46f3a9cc,61ad71e11ddd29ccf7a27d5b,61ad7217ad07b4bce1964f86,,,,,,-52,-79,1,0,0,response5disk,1.0709,9,-25,1,0,0,rectangle,9,-25,1,0,0,2,2,"[114,157,106,57,14,123,108,142,67,7]",9,-25,1,0,0,0,49,49,66,1,Turquiose,Turquiose.jpg,DarkGreen,DarkGreen.jpg,,
,,,,,,,,,,,,,,,,,,-3,,,,,,,,,,,,,,,,,,,,,,,,,,,616491882ae704cf46f3a9cc,001,2021-12-05_20h19.02.541,jm_natural_scene_simialrity_2-12-2021,2021.2.3,Win32,144.3209698,616491882ae704cf46f3a9cc,61ad71e11ddd29ccf7a27d5b,61ad7217ad07b4bce1964f86,,,,,,-79,38,1,0,0,response7disk,1.2132,-20,-4,1,0,0,rectangle,-20,-4,1,0,0,2,-4,"[114,157,106,57,14,123,108,142,67,7]",-20,-4,1,0,0,0,50,50,59,1,Purple,Purple.jpg,Yellow,Yellow.jpg,,
,,,,,,,,,,,,,,,,,,-4,,,,,,,,,,,,,,,,,,,,,,,,,,,616491882ae704cf46f3a9cc,001,2021-12-05_20h19.02.541,jm_natural_scene_simialrity_2-12-2021,2021.2.3,Win32,144.3209698,616491882ae704cf46f3a9cc,61ad71e11ddd29ccf7a27d5b,61ad7217ad07b4bce1964f86,,,,,,-63,90,1,0,0,response7disk,0.7023,-10,8,1,0,0,rectangle,-10,8,1,0,0,2,1,"[114,157,106,57,14,123,108,142,67,7]",-10,8,1,0,0,0,51,51,64,1,Pink,Pink.jpg,LightGreen,LightGreen.jpg,,
,,,,,,,,,,,,,,,,,,-3,,,,,,,,,,,,,,,,,,,,,,,,,,,616491882ae704cf46f3a9cc,001,2021-12-05_20h19.02.541,jm_natural_scene_simialrity_2-12-2021,2021.2.3,Win32,144.3209698,616491882ae704cf46f3a9cc,61ad71e11ddd29ccf7a27d5b,61ad7217ad07b4bce1964f86,,,,,,-95,40,1,0,0,response7disk,0.8517,-14,-8,1,0,0,rectangle,-14,-8,1,0,0,2,-3,"[114,157,106,57,14,123,108,142,67,7]",-14,-8,1,0,0,0,52,52,12,1,Yellow,Yellow.jpg,Turquiose,Turquiose.jpg,,
,,,,,,,,,,,,,,,,,,-4,,,,,,,,,,,,,,,,,,,,,,,,,,,616491882ae704cf46f3a9cc,001,2021-12-05_20h19.02.541,jm_natural_scene_simialrity_2-12-2021,2021.2.3,Win32,144.3209698,616491882ae704cf46f3a9cc,61ad71e11ddd29ccf7a27d5b,61ad7217ad07b4bce1964f86,,,,,,-49,100,1,0,0,response7disk,1.0921,-6,-25,1,0,0,rectangle,-6,-25,1,0,0,2,3,"[114,157,106,57,14,123,108,142,67,7]",-6,-25,1,0,0,0,53,53,16,1,Yellow,Yellow.jpg,Purple,Purple.jpg,,
,,,,,,,,,,,,,,,,,,-4,,,,,,,,,,,,,,,,,,,,,,,,,,,616491882ae704cf46f3a9cc,001,2021-12-05_20h19.02.541,jm_natural_scene_simialrity_2-12-2021,2021.2.3,Win32,144.3209698,616491882ae704cf46f3a9cc,61ad71e11ddd29ccf7a27d5b,61ad7217ad07b4bce1964f86,,,,,,-55,100,1,0,0,response7disk,0.8484,-6,2,1,0,0,rectangle,-6,2,1,0,0,2,1,"[114,157,106,57,14,123,108,142,67,7]",-6,2,1,0,0,0,54,54,73,1,Pink,Pink.jpg,Turquiose,Turquiose.jpg,,
,,,,,,,,,,,,,,,,,,-3,,,,,,,,,,,,,,,,,,,,,,,,,,,616491882ae704cf46f3a9cc,001,2021-12-05_20h19.02.541,jm_natural_scene_simialrity_2-12-2021,2021.2.3,Win32,144.3209698,616491882ae704cf46f3a9cc,61ad71e11ddd29ccf7a27d5b,61ad7217ad07b4bce1964f86,,,,,,-79,52,1,0,0,response7disk,0.9805,-14,-15,1,0,0,rectangle,-14,-15,1,0,0,2,1,"[114,157,106,57,14,123,108,142,67,7]",-14,-15,1,0,0,0,55,55,78,1,Pink,Pink.jpg,DarkBlue,DarkBlue.jpg,,
,,,,,,,,,,,,,,,,,,2,,,,,,,,,,,,,,,,,,,,,,,,,,,616491882ae704cf46f3a9cc,001,2021-12-05_20h19.02.541,jm_natural_scene_simialrity_2-12-2021,2021.2.3,Win32,144.3209698,616491882ae704cf46f3a9cc,61ad71e11ddd29ccf7a27d5b,61ad7217ad07b4bce1964f86,,,,,,67,-34,1,0,0,response3disk,1.4952,21,4,1,0,0,rectangle,-25,99,1,0,0,-4,-4,"[114,157,106,57,14,123,108,142,67,7]",24,5,1,0,0,0,56,56,60,1,DarkGreen,DarkGreen.jpg,LightGreen,LightGreen.jpg,response7disk_3,rectangle
,,,,,,,,,,,,,,,,,,2,,,,,,,,,,,,,,,,,,,,,,,,,,,616491882ae704cf46f3a9cc,001,2021-12-05_20h19.02.541,jm_natural_scene_simialrity_2-12-2021,2021.2.3,Win32,144.3209698,616491882ae704cf46f3a9cc,61ad71e11ddd29ccf7a27d5b,61ad7217ad07b4bce1964f86,,,,,,57,-29,1,0,0,response3disk,1.5508,3,3,1,0,0,rectangle,3,3,1,0,0,-4,-4,"[114,157,106,57,14,123,108,142,67,7]",3,3,1,0,0,0,57,57,32,1,Turquiose,Turquiose.jpg,DarkBlue,DarkBlue.jpg,,
,,,,,,,,,,,,,,,,,,1,,,,,,,,,,,,,,,,,,,,,,,,,,,616491882ae704cf46f3a9cc,001,2021-12-05_20h19.02.541,jm_natural_scene_simialrity_2-12-2021,2021.2.3,Win32,144.3209698,616491882ae704cf46f3a9cc,61ad71e11ddd29ccf7a27d5b,61ad7217ad07b4bce1964f86,,,,,,45,-88,1,0,0,response3disk,1.3283,23,-13,1,0,0,rectangle,23,-13,1,0,0,-4,1,"[114,157,106,57,14,123,108,142,67,7]",23,-13,1,0,0,0,58,58,23,1,LightGreen,LightGreen.jpg,Purple,Purple.jpg,,
,,,,,,,,,,,,,,,,,,4,,,,,,,,,,,,,,,,,,,,,,,,,,,616491882ae704cf46f3a9cc,001,2021-12-05_20h19.02.541,jm_natural_scene_simialrity_2-12-2021,2021.2.3,Win32,144.3209698,616491882ae704cf46f3a9cc,61ad71e11ddd29ccf7a27d5b,61ad7217ad07b4bce1964f86,,,,,,18,117,1,0,0,response1disk,0.9527,12,11,1,0,0,rectangle,12,11,1,0,0,-4,1,"[114,157,106,57,14,123,108,142,67,7]",12,11,1,0,0,0,59,59,17,1,LightGreen,LightGreen.jpg,LightGreen,LightGreen.jpg,,
,,,,,,,,,,,,,,,,,,1,,,,,,,,,,,,,,,,,,,,,,,,,,,616491882ae704cf46f3a9cc,001,2021-12-05_20h19.02.541,jm_natural_scene_simialrity_2-12-2021,2021.2.3,Win32,144.3209698,616491882ae704cf46f3a9cc,61ad71e11ddd29ccf7a27d5b,61ad7217ad07b4bce1964f86,,,,,,23,-84,1,0,0,response3disk,1.8112,14,4,1,0,0,rectangle,14,4,1,0,0,-4,-1,"[114,157,106,57,14,123,108,142,67,7]",14,4,1,0,0,0,60,60,67,1,LightBlue,LightBlue.jpg,DarkGreen,DarkGreen.jpg,,
,,,,,,,,,,,,,,,,,,1,,,,,,,,,,,,,,,,,,,,,,,,,,,616491882ae704cf46f3a9cc,001,2021-12-05_20h19.02.541,jm_natural_scene_simialrity_2-12-2021,2021.2.3,Win32,144.3209698,616491882ae704cf46f3a9cc,61ad71e11ddd29ccf7a27d5b,61ad7217ad07b4bce1964f86,,,,,,51,-81,1,0,0,response3disk,1.241,19,-24,1,0,0,rectangle,19,-24,1,0,0,1,-1,"[114,157,106,57,14,123,108,142,67,7]",19,-24,1,0,0,0,61,61,77,1,Purple,Purple.jpg,LightBlue,LightBlue.jpg,,
,,,,,,,,,,,,,,,,,,1,,,,,,,,,,,,,,,,,,,,,,,,,,,616491882ae704cf46f3a9cc,001,2021-12-05_20h19.02.541,jm_natural_scene_simialrity_2-12-2021,2021.2.3,Win32,144.3209698,616491882ae704cf46f3a9cc,61ad71e11ddd29ccf7a27d5b,61ad7217ad07b4bce1964f86,,,,,,36,-81,1,0,0,response3disk,0.7928,-6,-7,1,0,0,rectangle,-6,-7,1,0,0,1,-3,"[114,157,106,57,14,123,108,142,67,7]",-6,-7,1,0,0,0,62,62,68,1,DarkBlue,DarkBlue.jpg,DarkGreen,DarkGreen.jpg,,
,,,,,,,,,,,,,,,,,,4,,,,,,,,,,,,,,,,,,,,,,,,,,,616491882ae704cf46f3a9cc,001,2021-12-05_20h19.02.541,jm_natural_scene_simialrity_2-12-2021,2021.2.3,Win32,144.3209698,616491882ae704cf46f3a9cc,61ad71e11ddd29ccf7a27d5b,61ad7217ad07b4bce1964f86,,,,,,64,103,1,0,0,response1disk,0.814,1,-17,1,0,0,rectangle,1,-17,1,0,0,1,-2,"[114,157,106,57,14,123,108,142,67,7]",1,-17,1,0,0,0,63,63,30,1,Turquiose,Turquiose.jpg,Turquiose,Turquiose.jpg,,
,,,,,,,,,,,,,,,,,,1,,,,,,,,,,,,,,,,,,,,,,,,,,,616491882ae704cf46f3a9cc,001,2021-12-05_20h19.02.541,jm_natural_scene_simialrity_2-12-2021,2021.2.3,Win32,144.3209698,616491882ae704cf46f3a9cc,61ad71e11ddd29ccf7a27d5b,61ad7217ad07b4bce1964f86,,,,,,46,-87,1,0,0,response3disk,1.5437,0,-6,1,0,0,rectangle,0,-6,1,0,0,1,-2,"[114,157,106,57,14,123,108,142,67,7]",0,-6,1,0,0,0,64,64,76,1,Pink,Pink.jpg,LightBlue,LightBlue.jpg,,
,,,,,,,,,,,,,,,,,,4,,,,,,,,,,,,,,,,,,,,,,,,,,,616491882ae704cf46f3a9cc,001,2021-12-05_20h19.02.541,jm_natural_scene_simialrity_2-12-2021,2021.2.3,Win32,144.3209698,616491882ae704cf46f3a9cc,61ad71e11ddd29ccf7a27d5b,61ad7217ad07b4bce1964f86,,,,,,31,117,1,0,0,response1disk,0.6049,-18,-9,1,0,0,rectangle,-18,-9,1,0,0,1,-1,"[114,157,106,57,14,123,108,142,67,7]",-18,-9,1,0,0,0,65,65,39,1,DarkBlue,DarkBlue.jpg,DarkBlue,DarkBlue.jpg,,
,,,,,,,,,,,,,,,,,,4,,,,,,,,,,,,,,,,,,,,,,,,,,,616491882ae704cf46f3a9cc,001,2021-12-05_20h19.02.541,jm_natural_scene_simialrity_2-12-2021,2021.2.3,Win32,144.3209698,616491882ae704cf46f3a9cc,61ad71e11ddd29ccf7a27d5b,61ad7217ad07b4bce1964f86,,,,,,37,81,1,0,0,response1disk,0.6678,1,-12,1,0,0,rectangle,95,55,1,0,0,3,3,"[114,157,106,57,14,123,108,142,67,7]",0,3,1,0,0,0,66,66,42,1,Pink,Pink.jpg,Pink,Pink.jpg,response1disk_3,rectangle
,,,,,,,,,,,,,,,,,,1,,,,,,,,,,,,,,,,,,,,,,,,,,,616491882ae704cf46f3a9cc,001,2021-12-05_20h19.02.541,jm_natural_scene_simialrity_2-12-2021,2021.2.3,Win32,144.3209698,616491882ae704cf46f3a9cc,61ad71e11ddd29ccf7a27d5b,61ad7217ad07b4bce1964f86,,,,,,58,-72,1,0,0,response3disk,1.6133,-8,9,1,0,0,rectangle,-8,9,1,0,0,3,-1,"[114,157,106,57,14,123,108,142,67,7]",-8,9,1,0,0,0,67,67,8,1,Red,Red.jpg,Purple,Purple.jpg,,
,,,,,,,,,,,,,,,,,,1,,,,,,,,,,,,,,,,,,,,,,,,,,,616491882ae704cf46f3a9cc,001,2021-12-05_20h19.02.541,jm_natural_scene_simialrity_2-12-2021,2021.2.3,Win32,144.3209698,616491882ae704cf46f3a9cc,61ad71e11ddd29ccf7a27d5b,61ad7217ad07b4bce1964f86,,,,,,37,-103,1,0,0,response3disk,1.0014,23,1,1,0,0,rectangle,23,1,1,0,0,3,3,"[114,157,106,57,14,123,108,142,67,7]",23,1,1,0,0,0,68,68,25,1,DarkGreen,DarkGreen.jpg,Turquiose,Turquiose.jpg,,
,,,,,,,,,,,,,,,,,,-4,,,,,,,,,,,,,,,,,,,,,,,,,,,616491882ae704cf46f3a9cc,001,2021-12-05_20h19.02.541,jm_natural_scene_simialrity_2-12-2021,2021.2.3,Win32,144.3209698,616491882ae704cf46f3a9cc,61ad71e11ddd29ccf7a27d5b,61ad7217ad07b4bce1964f86,,,,,,-59,105,1,0,0,response7disk,0.8204,-4,7,1,0,0,rectangle,-4,7,1,0,0,3,-2,"[114,157,106,57,14,123,108,142,67,7]",-4,7,1,0,0,0,69,69,11,1,Yellow,Yellow.jpg,DarkGreen,DarkGreen.jpg,,
,,,,,,,,,,,,,,,,,,-3,,,,,,,,,,,,,,,,,,,,,,,,,,,616491882ae704cf46f3a9cc,001,2021-12-05_20h19.02.541,jm_natural_scene_simialrity_2-12-2021,2021.2.3,Win32,144.3209698,616491882ae704cf46f3a9cc,61ad71e11ddd29ccf7a27d5b,61ad7217ad07b4bce1964f86,,,,,,-92,38,1,0,0,response7disk,1.1405,-3,16,1,0,0,rectangle,-3,16,1,0,0,3,1,"[114,157,106,57,14,123,108,142,67,7]",-3,16,1,0,0,0,70,70,41,1,DarkBlue,DarkBlue.jpg,Purple,Purple.jpg,,
,,,,,,,,,,,,,,,,,,-2,,,,,,,,,,,,,,,,,,,,,,,,,,,616491882ae704cf46f3a9cc,001,2021-12-05_20h19.02.541,jm_natural_scene_simialrity_2-12-2021,2021.2.3,Win32,144.3209698,616491882ae704cf46f3a9cc,61ad71e11ddd29ccf7a27d5b,61ad7217ad07b4bce1964f86,,,,,,-95,-39,1,0,0,response5disk,2.8373,-11,3,1,0,0,rectangle,-11,3,1,0,0,3,-3,"[114,157,106,57,14,123,108,142,67,7]",-11,3,1,0,0,0,71,71,50,1,DarkBlue,DarkBlue.jpg,Red,Red.jpg,,
,,,,,,,,,,,,,,,,,,-1,,,,,,,,,,,,,,,,,,,,,,,,,,,616491882ae704cf46f3a9cc,001,2021-12-05_20h19.02.541,jm_natural_scene_simialrity_2-12-2021,2021.2.3,Win32,144.3209698,616491882ae704cf46f3a9cc,61ad71e11ddd29ccf7a27d5b,61ad7217ad07b4bce1964f86,,,,,,-36,-95,1,0,0,response5disk,2.5104,1,-4,1,0,0,rectangle,1,-4,1,0,0,3,1,"[114,157,106,57,14,123,108,142,67,7]",1,-4,1,0,0,0,72,72,15,1,Yellow,Yellow.jpg,Pink,Pink.jpg,,
,,,,,,,,,,,,,,,,,,-3,,,,,,,,,,,,,,,,,,,,,,,,,,,616491882ae704cf46f3a9cc,001,2021-12-05_20h19.02.541,jm_natural_scene_simialrity_2-12-2021,2021.2.3,Win32,144.3209698,616491882ae704cf46f3a9cc,61ad71e11ddd29ccf7a27d5b,61ad7217ad07b4bce1964f86,,,,,,-94,36,1,0,0,response7disk,1.5577,14,-6,1,0,0,rectangle,14,-6,1,0,0,3,-1,"[114,157,106,57,14,123,108,142,67,7]",14,-6,1,0,0,0,73,73,4,1,Red,Red.jpg,Turquiose,Turquiose.jpg,,
,,,,,,,,,,,,,,,,,,-4,,,,,,,,,,,,,,,,,,,,,,,,,,,616491882ae704cf46f3a9cc,001,2021-12-05_20h19.02.541,jm_natural_scene_simialrity_2-12-2021,2021.2.3,Win32,144.3209698,616491882ae704cf46f3a9cc,61ad71e11ddd29ccf7a27d5b,61ad7217ad07b4bce1964f86,,,,,,-60,116,1,0,0,response7disk,1.1683,-9,17,1,0,0,rectangle,-9,17,1,0,0,3,2,"[114,157,106,57,14,123,108,142,67,7]",-9,17,1,0,0,0,74,74,33,1,Turquiose,Turquiose.jpg,Pink,Pink.jpg,,
,,,,,,,,,,,,,,,,,,-3,,,,,,,,,,,,,,,,,,,,,,,,,,,616491882ae704cf46f3a9cc,001,2021-12-05_20h19.02.541,jm_natural_scene_simialrity_2-12-2021,2021.2.3,Win32,144.3209698,616491882ae704cf46f3a9cc,61ad71e11ddd29ccf7a27d5b,61ad7217ad07b4bce1964f86,,,,,,-82,40,1,0,0,response7disk,0.7996,-18,12,1,0,0,rectangle,-18,12,1,0,0,3,2,"[114,157,106,57,14,123,108,142,67,7]",-18,12,1,0,0,0,75,75,14,1,Yellow,Yellow.jpg,DarkBlue,DarkBlue.jpg,,
,,,,,,,,,,,,,,,,,,-3,,,,,,,,,,,,,,,,,,,,,,,,,,,616491882ae704cf46f3a9cc,001,2021-12-05_20h19.02.541,jm_natural_scene_simialrity_2-12-2021,2021.2.3,Win32,144.3209698,616491882ae704cf46f3a9cc,61ad71e11ddd29ccf7a27d5b,61ad7217ad07b4bce1964f86,,,,,,-126,27,1,0,0,response7disk,0.7441,-18,8,1,0,0,rectangle,-18,8,1,0,0,3,-1,"[114,157,106,57,14,123,108,142,67,7]",-18,8,1,0,0,0,76,76,29,1,DarkGreen,DarkGreen.jpg,Purple,Purple.jpg,,
,,,,,,,,,,,,,,,,,,-2,,,,,,,,,,,,,,,,,,,,,,,,,,,616491882ae704cf46f3a9cc,001,2021-12-05_20h19.02.541,jm_natural_scene_simialrity_2-12-2021,2021.2.3,Win32,144.3209698,616491882ae704cf46f3a9cc,61ad71e11ddd29ccf7a27d5b,61ad7217ad07b4bce1964f86,,,,,,-67,-39,1,0,0,response5disk,1.6899,-3,-24,1,0,0,rectangle,-3,-24,1,0,0,3,1,"[114,157,106,57,14,123,108,142,67,7]",-3,-24,1,0,0,0,77,77,38,1,LightBlue,LightBlue.jpg,Purple,Purple.jpg,,
,,,,,,,,,,,,,,,,,,-1,,,,,,,,,,,,,,,,,,,,,,,,,,,616491882ae704cf46f3a9cc,001,2021-12-05_20h19.02.541,jm_natural_scene_simialrity_2-12-2021,2021.2.3,Win32,144.3209698,616491882ae704cf46f3a9cc,61ad71e11ddd29ccf7a27d5b,61ad7217ad07b4bce1964f86,,,,,,-44,-74,1,0,0,response5disk,0.7582,-7,-6,1,0,0,rectangle,-7,-6,1,0,0,3,-3,"[114,157,106,57,14,123,108,142,67,7]",-7,-6,1,0,0,0,78,78,53,1,LightGreen,LightGreen.jpg,Yellow,Yellow.jpg,,
,,,,,,,,,,,,,,,,,,-1,,,,,,,,,,,,,,,,,,,,,,,,,,,616491882ae704cf46f3a9cc,001,2021-12-05_20h19.02.541,jm_natural_scene_simialrity_2-12-2021,2021.2.3,Win32,144.3209698,616491882ae704cf46f3a9cc,61ad71e11ddd29ccf7a27d5b,61ad7217ad07b4bce1964f86,,,,,,-55,-107,1,0,0,response5disk,0.8206,6,8,1,0,0,rectangle,6,8,1,0,0,3,-1,"[114,157,106,57,14,123,108,142,67,7]",6,8,1,0,0,0,79,79,10,1,Yellow,Yellow.jpg,LightGreen,LightGreen.jpg,,
,,,,,,,,,,,,,,,,,,-1,,,,,,,,,,,,,,,,,,,,,,,,,,,616491882ae704cf46f3a9cc,001,2021-12-05_20h19.02.541,jm_natural_scene_simialrity_2-12-2021,2021.2.3,Win32,144.3209698,616491882ae704cf46f3a9cc,61ad71e11ddd29ccf7a27d5b,61ad7217ad07b4bce1964f86,,,,,,-42,-70,1,0,0,response5disk,0.7719,-12,-5,1,0,0,rectangle,-12,-5,1,0,0,3,2,"[114,157,106,57,14,123,108,142,67,7]",-12,-5,1,0,0,0,80,80,52,1,Purple,Purple.jpg,Red,Red.jpg,,
,,,,,,,,,,,,,,,,,,-1,,,,,,,,,,,,,,,,,,,,,,,,,,,616491882ae704cf46f3a9cc,001,2021-12-05_20h19.02.541,jm_natural_scene_simialrity_2-12-2021,2021.2.3,Win32,144.3209698,616491882ae704cf46f3a9cc,61ad71e11ddd29ccf7a27d5b,61ad7217ad07b4bce1964f86,,,,,,-79,-102,1,0,0,response5disk,0.6989,-12,-8,1,0,0,rectangle,-12,-8,1,0,0,3,-4,"[114,157,106,57,14,123,108,142,67,7]",-12,-8,1,0,0,1,0,81,59,1,Purple,Purple.jpg,Yellow,Yellow.jpg,,
,,,,,,,,,,,,,,,,,,-1,,,,,,,,,,,,,,,,,,,,,,,,,,,616491882ae704cf46f3a9cc,001,2021-12-05_20h19.02.541,jm_natural_scene_simialrity_2-12-2021,2021.2.3,Win32,144.3209698,616491882ae704cf46f3a9cc,61ad71e11ddd29ccf7a27d5b,61ad7217ad07b4bce1964f86,,,,,,-45,-97,1,0,0,response5disk,1.6722,-19,2,1,0,0,rectangle,-19,2,1,0,0,3,2,"[114,157,106,57,14,123,108,142,67,7]",-19,2,1,0,0,1,1,82,23,1,LightGreen,LightGreen.jpg,Purple,Purple.jpg,,
,,,,,,,,,,,,,,,,,,-1,,,,,,,,,,,,,,,,,,,,,,,,,,,616491882ae704cf46f3a9cc,001,2021-12-05_20h19.02.541,jm_natural_scene_simialrity_2-12-2021,2021.2.3,Win32,144.3209698,616491882ae704cf46f3a9cc,61ad71e11ddd29ccf7a27d5b,61ad7217ad07b4bce1964f86,,,,,,-76,-104,1,0,0,response5disk,3.0528,-15,-4,1,0,0,rectangle,-15,-4,1,0,0,3,-1,"[114,157,106,57,14,123,108,142,67,7]",-15,-4,1,0,0,1,2,83,80,1,Purple,Purple.jpg,Pink,Pink.jpg,,
,,,,,,,,,,,,,,,,,,4,,,,,,,,,,,,,,,,,,,,,,,,,,,616491882ae704cf46f3a9cc,001,2021-12-05_20h19.02.541,jm_natural_scene_simialrity_2-12-2021,2021.2.3,Win32,144.3209698,616491882ae704cf46f3a9cc,61ad71e11ddd29ccf7a27d5b,61ad7217ad07b4bce1964f86,,,,,,44,103,1,0,0,response1disk,0.7789,17,10,1,0,0,rectangle,17,10,1,0,0,3,3,"[114,157,106,57,14,123,108,142,67,7]",17,10,1,0,0,1,3,84,24,1,DarkGreen,DarkGreen.jpg,DarkGreen,DarkGreen.jpg,,
,,,,,,,,,,,,,,,,,,-1,,,,,,,,,,,,,,,,,,,,,,,,,,,616491882ae704cf46f3a9cc,001,2021-12-05_20h19.02.541,jm_natural_scene_simialrity_2-12-2021,2021.2.3,Win32,144.3209698,616491882ae704cf46f3a9cc,61ad71e11ddd29ccf7a27d5b,61ad7217ad07b4bce1964f86,,,,,,-24,-86,1,0,0,response5disk,0.8484,10,1,1,0,0,rectangle,10,1,1,0,0,3,-1,"[114,157,106,57,14,123,108,142,67,7]",10,1,1,0,0,1,4,85,74,1,Purple,Purple.jpg,Turquiose,Turquiose.jpg,,
,,,,,,,,,,,,,,,,,,4,,,,,,,,,,,,,,,,,,,,,,,,,,,616491882ae704cf46f3a9cc,001,2021-12-05_20h19.02.541,jm_natural_scene_simialrity_2-12-2021,2021.2.3,Win32,144.3209698,616491882ae704cf46f3a9cc,61ad71e11ddd29ccf7a27d5b,61ad7217ad07b4bce1964f86,,,,,,47,80,1,0,0,response1disk,0.751,13,22,1,0,0,rectangle,13,22,1,0,0,3,1,"[114,157,106,57,14,123,108,142,67,7]",13,22,1,0,0,1,5,86,17,1,LightGreen,LightGreen.jpg,LightGreen,LightGreen.jpg,,
,,,,,,,,,,,,,,,,,,-1,,,,,,,,,,,,,,,,,,,,,,,,,,,616491882ae704cf46f3a9cc,001,2021-12-05_20h19.02.541,jm_natural_scene_simialrity_2-12-2021,2021.2.3,Win32,144.3209698,616491882ae704cf46f3a9cc,61ad71e11ddd29ccf7a27d5b,61ad7217ad07b4bce1964f86,,,,,,-34,-82,1,0,0,response5disk,0.7893,-6,7,1,0,0,rectangle,-6,7,1,0,0,3,-1,"[114,157,106,57,14,123,108,142,67,7]",-6,7,1,0,0,1,6,87,41,1,DarkBlue,DarkBlue.jpg,Purple,Purple.jpg,,
,,,,,,,,,,,,,,,,,,-2,,,,,,,,,,,,,,,,,,,,,,,,,,,616491882ae704cf46f3a9cc,001,2021-12-05_20h19.02.541,jm_natural_scene_simialrity_2-12-2021,2021.2.3,Win32,144.3209698,616491882ae704cf46f3a9cc,61ad71e11ddd29ccf7a27d5b,61ad7217ad07b4bce1964f86,,,,,,-108,-38,1,0,0,response5disk,1.4602,-13,-7,1,0,0,rectangle,-13,-7,1,0,0,3,3,"[114,157,106,57,14,123,108,142,67,7]",-13,-7,1,0,0,1,7,88,38,1,LightBlue,LightBlue.jpg,Purple,Purple.jpg,,
,,,,,,,,,,,,,,,,,,-1,,,,,,,,,,,,,,,,,,,,,,,,,,,616491882ae704cf46f3a9cc,001,2021-12-05_20h19.02.541,jm_natural_scene_simialrity_2-12-2021,2021.2.3,Win32,144.3209698,616491882ae704cf46f3a9cc,61ad71e11ddd29ccf7a27d5b,61ad7217ad07b4bce1964f86,,,,,,-53,-70,1,0,0,response5disk,0.7689,-8,0,1,0,0,rectangle,-8,0,1,0,0,3,1,"[114,157,106,57,14,123,108,142,67,7]",-8,0,1,0,0,1,8,89,10,1,Yellow,Yellow.jpg,LightGreen,LightGreen.jpg,,
,,,,,,,,,,,,,,,,,,-1,,,,,,,,,,,,,,,,,,,,,,,,,,,616491882ae704cf46f3a9cc,001,2021-12-05_20h19.02.541,jm_natural_scene_simialrity_2-12-2021,2021.2.3,Win32,144.3209698,616491882ae704cf46f3a9cc,61ad71e11ddd29ccf7a27d5b,61ad7217ad07b4bce1964f86,,,,,,-29,-80,1,0,0,response5disk,0.6815,1,-10,1,0,0,rectangle,1,-10,1,0,0,3,2,"[114,157,106,57,14,123,108,142,67,7]",1,-10,1,0,0,1,9,90,78,1,Pink,Pink.jpg,DarkBlue,DarkBlue.jpg,,
,,,,,,,,,,,,,,,,,,-1,,,,,,,,,,,,,,,,,,,,,,,,,,,616491882ae704cf46f3a9cc,001,2021-12-05_20h19.02.541,jm_natural_scene_simialrity_2-12-2021,2021.2.3,Win32,144.3209698,616491882ae704cf46f3a9cc,61ad71e11ddd29ccf7a27d5b,61ad7217ad07b4bce1964f86,,,,,,-51,-74,1,0,0,response5disk,0.6398,-16,-7,1,0,0,rectangle,-16,-7,1,0,0,3,-4,"[114,157,106,57,14,123,108,142,67,7]",-16,-7,1,0,0,1,10,91,54,1,DarkGreen,DarkGreen.jpg,Yellow,Yellow.jpg,,
,,,,,,,,,,,,,,,,,,-1,,,,,,,,,,,,,,,,,,,,,,,,,,,616491882ae704cf46f3a9cc,001,2021-12-05_20h19.02.541,jm_natural_scene_simialrity_2-12-2021,2021.2.3,Win32,144.3209698,616491882ae704cf46f3a9cc,61ad71e11ddd29ccf7a27d5b,61ad7217ad07b4bce1964f86,,,,,,-58,-105,1,0,0,response5disk,0.7619,-5,-18,1,0,0,rectangle,-5,-18,1,0,0,3,-4,"[114,157,106,57,14,123,108,142,67,7]",-5,-18,1,0,0,1,11,92,25,1,DarkGreen,DarkGreen.jpg,Turquiose,Turquiose.jpg,,
,,,,,,,,,,,,,,,,,,-3,,,,,,,,,,,,,,,,,,,,,,,,,,,616491882ae704cf46f3a9cc,001,2021-12-05_20h19.02.541,jm_natural_scene_simialrity_2-12-2021,2021.2.3,Win32,144.3209698,616491882ae704cf46f3a9cc,61ad71e11ddd29ccf7a27d5b,61ad7217ad07b4bce1964f86,,,,,,-86,33,1,0,0,response7disk,2.0584,-7,-7,1,0,0,rectangle,-7,-7,1,0,0,3,-4,"[114,157,106,57,14,123,108,142,67,7]",-7,-7,1,0,0,1,12,93,14,1,Yellow,Yellow.jpg,DarkBlue,DarkBlue.jpg,,
,,,,,,,,,,,,,,,,,,1,,,,,,,,,,,,,,,,,,,,,,,,,,,616491882ae704cf46f3a9cc,001,2021-12-05_20h19.02.541,jm_natural_scene_simialrity_2-12-2021,2021.2.3,Win32,144.3209698,616491882ae704cf46f3a9cc,61ad71e11ddd29ccf7a27d5b,61ad7217ad07b4bce1964f86,,,,,,36,-88,1,0,0,response3disk,1.0602,-6,-12,1,0,0,rectangle,-6,-12,1,0,0,3,3,"[114,157,106,57,14,123,108,142,67,7]",-6,-12,1,0,0,1,13,94,8,1,Red,Red.jpg,Purple,Purple.jpg,,
,,,,,,,,,,,,,,,,,,-1,,,,,,,,,,,,,,,,,,,,,,,,,,,616491882ae704cf46f3a9cc,001,2021-12-05_20h19.02.541,jm_natural_scene_simialrity_2-12-2021,2021.2.3,Win32,144.3209698,616491882ae704cf46f3a9cc,61ad71e11ddd29ccf7a27d5b,61ad7217ad07b4bce1964f86,,,,,,-31,-90,1,0,0,response5disk,1.4954,0,-9,1,0,0,rectangle,0,-9,1,0,0,3,3,"[114,157,106,57,14,123,108,142,67,7]",0,-9,1,0,0,1,14,95,62,1,LightBlue,LightBlue.jpg,LightGreen,LightGreen.jpg,,
,,,,,,,,,,,,,,,,,,-3,,,,,,,,,,,,,,,,,,,,,,,,,,,616491882ae704cf46f3a9cc,001,2021-12-05_20h19.02.541,jm_natural_scene_simialrity_2-12-2021,2021.2.3,Win32,144.3209698,616491882ae704cf46f3a9cc,61ad71e11ddd29ccf7a27d5b,61ad7217ad07b4bce1964f86,,,,,,-79,50,1,0,0,response7disk,1.4738,1,17,1,0,0,rectangle,1,17,1,0,0,3,2,"[114,157,106,57,14,123,108,142,67,7]",1,17,1,0,0,1,15,96,6,1,Red,Red.jpg,DarkBlue,DarkBlue.jpg,,
,,,,,,,,,,,,,,,,,,-2,,,,,,,,,,,,,,,,,,,,,,,,,,,616491882ae704cf46f3a9cc,001,2021-12-05_20h19.02.541,jm_natural_scene_simialrity_2-12-2021,2021.2.3,Win32,144.3209698,616491882ae704cf46f3a9cc,61ad71e11ddd29ccf7a27d5b,61ad7217ad07b4bce1964f86,,,,,,-86,-39,1,0,0,response5disk,0.9039,2,16,1,0,0,rectangle,2,16,1,0,0,3,-4,"[114,157,106,57,14,123,108,142,67,7]",2,16,1,0,0,1,16,97,72,1,DarkBlue,DarkBlue.jpg,Turquiose,Turquiose.jpg,,
,,,,,,,,,,,,,,,,,,-1,,,,,,,,,,,,,,,,,,,,,,,,,,,616491882ae704cf46f3a9cc,001,2021-12-05_20h19.02.541,jm_natural_scene_simialrity_2-12-2021,2021.2.3,Win32,144.3209698,616491882ae704cf46f3a9cc,61ad71e11ddd29ccf7a27d5b,61ad7217ad07b4bce1964f86,,,,,,-25,-93,1,0,0,response5disk,1.0224,-11,-16,1,0,0,rectangle,-11,-16,1,0,0,3,-1,"[114,157,106,57,14,123,108,142,67,7]",-11,-16,1,0,0,1,17,98,43,1,Pink,Pink.jpg,Purple,Purple.jpg,,
,,,,,,,,,,,,,,,,,,-3,,,,,,,,,,,,,,,,,,,,,,,,,,,616491882ae704cf46f3a9cc,001,2021-12-05_20h19.02.541,jm_natural_scene_simialrity_2-12-2021,2021.2.3,Win32,144.3209698,616491882ae704cf46f3a9cc,61ad71e11ddd29ccf7a27d5b,61ad7217ad07b4bce1964f86,,,,,,-85,32,1,0,0,response7disk,1.3629,-6,2,1,0,0,rectangle,-6,2,1,0,0,3,-3,"[114,157,106,57,14,123,108,142,67,7]",-6,2,1,0,0,1,18,99,26,1,DarkGreen,DarkGreen.jpg,LightBlue,LightBlue.jpg,,
,,,,,,,,,,,,,,,,,,-2,,,,,,,,,,,,,,,,,,,,,,,,,,,616491882ae704cf46f3a9cc,001,2021-12-05_20h19.02.541,jm_natural_scene_simialrity_2-12-2021,2021.2.3,Win32,144.3209698,616491882ae704cf46f3a9cc,61ad71e11ddd29ccf7a27d5b,61ad7217ad07b4bce1964f86,,,,,,-92,-29,1,0,0,response5disk,0.8624,-14,-6,1,0,0,rectangle,-14,-6,1,0,0,3,-2,"[114,157,106,57,14,123,108,142,67,7]",-14,-6,1,0,0,1,19,100,37,1,LightBlue,LightBlue.jpg,Pink,Pink.jpg,,
,,,,,,,,,,,,,,,,,,-4,,,,,,,,,,,,,,,,,,,,,,,,,,,616491882ae704cf46f3a9cc,001,2021-12-05_20h19.02.541,jm_natural_scene_simialrity_2-12-2021,2021.2.3,Win32,144.3209698,616491882ae704cf46f3a9cc,61ad71e11ddd29ccf7a27d5b,61ad7217ad07b4bce1964f86,,,,,,-54,89,1,0,0,response7disk,1.3073,22,-8,1,0,0,rectangle,22,-8,1,0,0,3,2,"[114,157,106,57,14,123,108,142,67,7]",22,-8,1,0,0,1,20,101,13,1,Yellow,Yellow.jpg,LightBlue,LightBlue.jpg,,
,,,,,,,,,,,,,,,,,,-3,,,,,,,,,,,,,,,,,,,,,,,,,,,616491882ae704cf46f3a9cc,001,2021-12-05_20h19.02.541,jm_natural_scene_simialrity_2-12-2021,2021.2.3,Win32,144.3209698,616491882ae704cf46f3a9cc,61ad71e11ddd29ccf7a27d5b,61ad7217ad07b4bce1964f86,,,,,,-81,45,1,0,0,response7disk,0.9318,-1,-3,1,0,0,rectangle,-1,-3,1,0,0,3,-4,"[114,157,106,57,14,123,108,142,67,7]",-1,-3,1,0,0,1,21,102,12,1,Yellow,Yellow.jpg,Turquiose,Turquiose.jpg,,
,,,,,,,,,,,,,,,,,,-4,,,,,,,,,,,,,,,,,,,,,,,,,,,616491882ae704cf46f3a9cc,001,2021-12-05_20h19.02.541,jm_natural_scene_simialrity_2-12-2021,2021.2.3,Win32,144.3209698,616491882ae704cf46f3a9cc,61ad71e11ddd29ccf7a27d5b,61ad7217ad07b4bce1964f86,,,,,,-53,90,1,0,0,response7disk,0.8205,-19,2,1,0,0,rectangle,-19,2,1,0,0,3,-3,"[114,157,106,57,14,123,108,142,67,7]",-19,2,1,0,0,1,22,103,77,1,Purple,Purple.jpg,LightBlue,LightBlue.jpg,,
,,,,,,,,,,,,,,,,,,3,,,,,,,,,,,,,,,,,,,,,,,,,,,616491882ae704cf46f3a9cc,001,2021-12-05_20h19.02.541,jm_natural_scene_simialrity_2-12-2021,2021.2.3,Win32,144.3209698,616491882ae704cf46f3a9cc,61ad71e11ddd29ccf7a27d5b,61ad7217ad07b4bce1964f86,,,,,,78,43,1,0,0,response1disk,1.6969,16,15,1,0,0,rectangle,16,15,1,0,0,3,3,"[114,157,106,57,14,123,108,142,67,7]",16,15,1,0,0,1,23,104,60,1,DarkGreen,DarkGreen.jpg,LightGreen,LightGreen.jpg,,
,,,,,,,,,,,,,,,,,,3,,,,,,,,,,,,,,,,,,,,,,,,,,,616491882ae704cf46f3a9cc,001,2021-12-05_20h19.02.541,jm_natural_scene_simialrity_2-12-2021,2021.2.3,Win32,144.3209698,616491882ae704cf46f3a9cc,61ad71e11ddd29ccf7a27d5b,61ad7217ad07b4bce1964f86,,,,,,67,37,1,0,0,response1disk,0.744,9,2,1,0,0,rectangle,-73,126,1,0,0,-4,-4,"[114,157,106,57,14,123,108,142,67,7]",7,20,1,0,0,1,24,105,18,1,LightGreen,LightGreen.jpg,DarkGreen,DarkGreen.jpg,response7disk_3,rectangle
,,,,,,,,,,,,,,,,,,-1,,,,,,,,,,,,,,,,,,,,,,,,,,,616491882ae704cf46f3a9cc,001,2021-12-05_20h19.02.541,jm_natural_scene_simialrity_2-12-2021,2021.2.3,Win32,144.3209698,616491882ae704cf46f3a9cc,61ad71e11ddd29ccf7a27d5b,61ad7217ad07b4bce1964f86,,,,,,-24,-82,1,0,0,response5disk,1.3108,-9,-20,1,0,0,rectangle,-9,-20,1,0,0,-4,3,"[114,157,106,57,14,123,108,142,67,7]",-9,-20,1,0,0,1,25,106,52,1,Purple,Purple.jpg,Red,Red.jpg,,
,,,,,,,,,,,,,,,,,,-2,,,,,,,,,,,,,,,,,,,,,,,,,,,616491882ae704cf46f3a9cc,001,2021-12-05_20h19.02.541,jm_natural_scene_simialrity_2-12-2021,2021.2.3,Win32,144.3209698,616491882ae704cf46f3a9cc,61ad71e11ddd29ccf7a27d5b,61ad7217ad07b4bce1964f86,,,,,,-99,-64,1,0,0,response5disk,2.6146,7,10,1,0,0,rectangle,-101,46,1,0,0,-3,-3,"[114,157,106,57,14,123,108,142,67,7]",-1,13,1,0,0,1,26,107,67,1,LightBlue,LightBlue.jpg,DarkGreen,DarkGreen.jpg,response7disk_3,rectangle
,,,,,,,,,,,,,,,,,,1,,,,,,,,,,,,,,,,,,,,,,,,,,,616491882ae704cf46f3a9cc,001,2021-12-05_20h19.02.541,jm_natural_scene_simialrity_2-12-2021,2021.2.3,Win32,144.3209698,616491882ae704cf46f3a9cc,61ad71e11ddd29ccf7a27d5b,61ad7217ad07b4bce1964f86,,,,,,56,-67,1,0,0,response3disk,2.0513,6,-12,1,0,0,rectangle,6,-12,1,0,0,-3,3,"[114,157,106,57,14,123,108,142,67,7]",6,-12,1,0,0,1,27,108,34,1,Turquiose,Turquiose.jpg,Purple,Purple.jpg,,
,,,,,,,,,,,,,,,,,,3,,,,,,,,,,,,,,,,,,,,,,,,,,,616491882ae704cf46f3a9cc,001,2021-12-05_20h19.02.541,jm_natural_scene_simialrity_2-12-2021,2021.2.3,Win32,144.3209698,616491882ae704cf46f3a9cc,61ad71e11ddd29ccf7a27d5b,61ad7217ad07b4bce1964f86,,,,,,92,47,1,0,0,response1disk,1.4951,24,-8,1,0,0,rectangle,24,-8,1,0,0,-3,1,"[114,157,106,57,14,123,108,142,67,7]",24,-8,1,0,0,1,28,109,15,1,Yellow,Yellow.jpg,Pink,Pink.jpg,,
,,,,,,,,,,,,,,,,,,1,,,,,,,,,,,,,,,,,,,,,,,,,,,616491882ae704cf46f3a9cc,001,2021-12-05_20h19.02.541,jm_natural_scene_simialrity_2-12-2021,2021.2.3,Win32,144.3209698,616491882ae704cf46f3a9cc,61ad71e11ddd29ccf7a27d5b,61ad7217ad07b4bce1964f86,,,,,,39,-107,1,0,0,response3disk,1.349,1,-23,1,0,0,rectangle,1,-23,1,0,0,-3,-4,"[114,157,106,57,14,123,108,142,67,7]",1,-23,1,0,0,1,29,110,79,1,Purple,Purple.jpg,DarkBlue,DarkBlue.jpg,,
,,,,,,,,,,,,,,,,,,-1,,,,,,,,,,,,,,,,,,,,,,,,,,,616491882ae704cf46f3a9cc,001,2021-12-05_20h19.02.541,jm_natural_scene_simialrity_2-12-2021,2021.2.3,Win32,144.3209698,616491882ae704cf46f3a9cc,61ad71e11ddd29ccf7a27d5b,61ad7217ad07b4bce1964f86,,,,,,-55,-132,1,0,0,response5disk,0.7927,-19,-13,1,0,0,rectangle,-19,-13,1,0,0,-3,-3,"[114,157,106,57,14,123,108,142,67,7]",-19,-13,1,0,0,1,30,111,70,1,Purple,Purple.jpg,DarkGreen,DarkGreen.jpg,,
,,,,,,,,,,,,,,,,,,-2,,,,,,,,,,,,,,,,,,,,,,,,,,,616491882ae704cf46f3a9cc,001,2021-12-05_20h19.02.541,jm_natural_scene_simialrity_2-12-2021,2021.2.3,Win32,144.3209698,616491882ae704cf46f3a9cc,61ad71e11ddd29ccf7a27d5b,61ad7217ad07b4bce1964f86,,,,,,-76,-67,1,0,0,response5disk,1.1058,-2,-24,1,0,0,rectangle,-2,-24,1,0,0,-3,1,"[114,157,106,57,14,123,108,142,67,7]",-2,-24,1,0,0,1,31,112,75,1,DarkBlue,DarkBlue.jpg,LightBlue,LightBlue.jpg,,
,,,,,,,,,,,,,,,,,,-4,,,,,,,,,,,,,,,,,,,,,,,,,,,616491882ae704cf46f3a9cc,001,2021-12-05_20h19.02.541,jm_natural_scene_simialrity_2-12-2021,2021.2.3,Win32,144.3209698,616491882ae704cf46f3a9cc,61ad71e11ddd29ccf7a27d5b,61ad7217ad07b4bce1964f86,,,,,,-48,87,1,0,0,response7disk,1.523,1,6,1,0,0,rectangle,-58,91,1,0,0,-4,-4,"[114,157,106,57,14,123,108,142,67,7]",18,6,1,0,0,1,32,113,11,1,Yellow,Yellow.jpg,DarkGreen,DarkGreen.jpg,response7disk_3,rectangle
,,,,,,,,,,,,,,,,,,-3,,,,,,,,,,,,,,,,,,,,,,,,,,,616491882ae704cf46f3a9cc,001,2021-12-05_20h19.02.541,jm_natural_scene_simialrity_2-12-2021,2021.2.3,Win32,144.3209698,616491882ae704cf46f3a9cc,61ad71e11ddd29ccf7a27d5b,61ad7217ad07b4bce1964f86,,,,,,-71,48,1,0,0,response7disk,3.3863,-10,-6,1,0,0,rectangle,-10,-6,1,0,0,-4,-4,"[114,157,106,57,14,123,108,142,67,7]",-10,-6,1,0,0,1,33,114,50,1,DarkBlue,DarkBlue.jpg,Red,Red.jpg,,
,,,,,,,,,,,,,,,,,,-2,,,,,,,,,,,,,,,,,,,,,,,,,,,616491882ae704cf46f3a9cc,001,2021-12-05_20h19.02.541,jm_natural_scene_simialrity_2-12-2021,2021.2.3,Win32,144.3209698,616491882ae704cf46f3a9cc,61ad71e11ddd29ccf7a27d5b,61ad7217ad07b4bce1964f86,,,,,,-85,-40,1,0,0,response5disk,1.0083,-3,3,1,0,0,rectangle,-3,3,1,0,0,-4,-4,"[114,157,106,57,14,123,108,142,67,7]",-3,3,1,0,0,1,34,115,20,1,LightGreen,LightGreen.jpg,LightBlue,LightBlue.jpg,,
,,,,,,,,,,,,,,,,,,-3,,,,,,,,,,,,,,,,,,,,,,,,,,,616491882ae704cf46f3a9cc,001,2021-12-05_20h19.02.541,jm_natural_scene_simialrity_2-12-2021,2021.2.3,Win32,144.3209698,616491882ae704cf46f3a9cc,61ad71e11ddd29ccf7a27d5b,61ad7217ad07b4bce1964f86,,,,,,-87,51,1,0,0,response7disk,1.4325,-10,-3,1,0,0,rectangle,-10,-3,1,0,0,-4,2,"[114,157,106,57,14,123,108,142,67,7]",-10,-3,1,0,0,1,35,116,45,1,Yellow,Yellow.jpg,Red,Red.jpg,,
,,,,,,,,,,,,,,,,,,-3,,,,,,,,,,,,,,,,,,,,,,,,,,,616491882ae704cf46f3a9cc,001,2021-12-05_20h19.02.541,jm_natural_scene_simialrity_2-12-2021,2021.2.3,Win32,144.3209698,616491882ae704cf46f3a9cc,61ad71e11ddd29ccf7a27d5b,61ad7217ad07b4bce1964f86,,,,,,-54,23,1,0,0,response7disk,2.1489,14,0,1,0,0,rectangle,14,0,1,0,0,-4,-2,"[114,157,106,57,14,123,108,142,67,7]",14,0,1,0,0,1,36,117,65,1,Purple,Purple.jpg,LightGreen,LightGreen.jpg,,
,,,,,,,,,,,,,,,,,,-3,,,,,,,,,,,,,,,,,,,,,,,,,,,616491882ae704cf46f3a9cc,001,2021-12-05_20h19.02.541,jm_natural_scene_simialrity_2-12-2021,2021.2.3,Win32,144.3209698,616491882ae704cf46f3a9cc,61ad71e11ddd29ccf7a27d5b,61ad7217ad07b4bce1964f86,,,,,,-94,33,1,0,0,response7disk,1.1542,-20,13,1,0,0,rectangle,-20,13,1,0,0,-4,2,"[114,157,106,57,14,123,108,142,67,7]",-20,13,1,0,0,1,37,118,4,1,Red,Red.jpg,Turquiose,Turquiose.jpg,,
,,,,,,,,,,,,,,,,,,3,,,,,,,,,,,,,,,,,,,,,,,,,,,616491882ae704cf46f3a9cc,001,2021-12-05_20h19.02.541,jm_natural_scene_simialrity_2-12-2021,2021.2.3,Win32,144.3209698,616491882ae704cf46f3a9cc,61ad71e11ddd29ccf7a27d5b,61ad7217ad07b4bce1964f86,,,,,,104,34,1,0,0,response1disk,1.6826,17,-2,1,0,0,rectangle,17,-2,1,0,0,-4,-4,"[114,157,106,57,14,123,108,142,67,7]",17,-2,1,0,0,1,38,119,58,1,Pink,Pink.jpg,Yellow,Yellow.jpg,,
,,,,,,,,,,,,,,,,,,-2,,,,,,,,,,,,,,,,,,,,,,,,,,,616491882ae704cf46f3a9cc,001,2021-12-05_20h19.02.541,jm_natural_scene_simialrity_2-12-2021,2021.2.3,Win32,144.3209698,616491882ae704cf46f3a9cc,61ad71e11ddd29ccf7a27d5b,61ad7217ad07b4bce1964f86,,,,,,-55,-35,1,0,0,response5disk,1.0223,-1,-2,1,0,0,rectangle,-1,-2,1,0,0,-4,-2,"[114,157,106,57,14,123,108,142,67,7]",-1,-2,1,0,0,1,39,120,46,1,LightGreen,LightGreen.jpg,Red,Red.jpg,,
,,,,,,,,,,,,,,,,,,-3,,,,,,,,,,,,,,,,,,,,,,,,,,,616491882ae704cf46f3a9cc,001,2021-12-05_20h19.02.541,jm_natural_scene_simialrity_2-12-2021,2021.2.3,Win32,144.3209698,616491882ae704cf46f3a9cc,61ad71e11ddd29ccf7a27d5b,61ad7217ad07b4bce1964f86,,,,,,-61,33,1,0,0,response7disk,1.5924,1,0,1,0,0,rectangle,1,0,1,0,0,-4,3,"[114,157,106,57,14,123,108,142,67,7]",1,0,1,0,0,1,40,121,5,1,Red,Red.jpg,LightBlue,LightBlue.jpg,,
,,,,,,,,,,,,,,,,,,-3,,,,,,,,,,,,,,,,,,,,,,,,,,,616491882ae704cf46f3a9cc,001,2021-12-05_20h19.02.541,jm_natural_scene_simialrity_2-12-2021,2021.2.3,Win32,144.3209698,616491882ae704cf46f3a9cc,61ad71e11ddd29ccf7a27d5b,61ad7217ad07b4bce1964f86,,,,,,-84,27,1,0,0,response7disk,0.8136,3,10,1,0,0,rectangle,-33,-81,1,0,0,-1,-1,"[114,157,106,57,14,123,108,142,67,7]",9,3,1,0,0,1,41,122,28,1,DarkGreen,DarkGreen.jpg,Pink,Pink.jpg,response5disk_3,rectangle
,,,,,,,,,,,,,,,,,,-4,,,,,,,,,,,,,,,,,,,,,,,,,,,616491882ae704cf46f3a9cc,001,2021-12-05_20h19.02.541,jm_natural_scene_simialrity_2-12-2021,2021.2.3,Win32,144.3209698,616491882ae704cf46f3a9cc,61ad71e11ddd29ccf7a27d5b,61ad7217ad07b4bce1964f86,,,,,,-42,102,1,0,0,response7disk,1.1543,8,20,1,0,0,rectangle,8,20,1,0,0,-1,2,"[114,157,106,57,14,123,108,142,67,7]",8,20,1,0,0,1,42,123,55,1,Turquiose,Turquiose.jpg,Yellow,Yellow.jpg,,
,,,,,,,,,,,,,,,,,,-3,,,,,,,,,,,,,,,,,,,,,,,,,,,616491882ae704cf46f3a9cc,001,2021-12-05_20h19.02.541,jm_natural_scene_simialrity_2-12-2021,2021.2.3,Win32,144.3209698,616491882ae704cf46f3a9cc,61ad71e11ddd29ccf7a27d5b,61ad7217ad07b4bce1964f86,,,,,,-72,42,1,0,0,response7disk,0.8067,7,13,1,0,0,rectangle,7,13,1,0,0,-1,3,"[114,157,106,57,14,123,108,142,67,7]",7,13,1,0,0,1,43,124,47,1,DarkGreen,DarkGreen.jpg,Red,Red.jpg,,
,,,,,,,,,,,,,,,,,,-1,,,,,,,,,,,,,,,,,,,,,,,,,,,616491882ae704cf46f3a9cc,001,2021-12-05_20h19.02.541,jm_natural_scene_simialrity_2-12-2021,2021.2.3,Win32,144.3209698,616491882ae704cf46f3a9cc,61ad71e11ddd29ccf7a27d5b,61ad7217ad07b4bce1964f86,,,,,,-41,-78,1,0,0,response5disk,1.3422,-7,-11,1,0,0,rectangle,-7,-11,1,0,0,-1,2,"[114,157,106,57,14,123,108,142,67,7]",-7,-11,1,0,0,1,44,125,19,1,LightGreen,LightGreen.jpg,Turquiose,Turquiose.jpg,,
,,,,,,,,,,,,,,,,,,1,,,,,,,,,,,,,,,,,,,,,,,,,,,616491882ae704cf46f3a9cc,001,2021-12-05_20h19.02.541,jm_natural_scene_simialrity_2-12-2021,2021.2.3,Win32,144.3209698,616491882ae704cf46f3a9cc,61ad71e11ddd29ccf7a27d5b,61ad7217ad07b4bce1964f86,,,,,,40,-81,1,0,0,response3disk,1.0501,20,-16,1,0,0,rectangle,20,-16,1,0,0,-1,-4,"[114,157,106,57,14,123,108,142,67,7]",20,-16,1,0,0,1,45,126,21,1,LightGreen,LightGreen.jpg,DarkBlue,DarkBlue.jpg,,
,,,,,,,,,,,,,,,,,,1,,,,,,,,,,,,,,,,,,,,,,,,,,,616491882ae704cf46f3a9cc,001,2021-12-05_20h19.02.541,jm_natural_scene_simialrity_2-12-2021,2021.2.3,Win32,144.3209698,616491882ae704cf46f3a9cc,61ad71e11ddd29ccf7a27d5b,61ad7217ad07b4bce1964f86,,,,,,22,-83,1,0,0,response3disk,0.8694,2,-15,1,0,0,rectangle,2,-15,1,0,0,-1,-1,"[114,157,106,57,14,123,108,142,67,7]",2,-15,1,0,0,1,46,127,31,1,Turquiose,Turquiose.jpg,LightBlue,LightBlue.jpg,,
,,,,,,,,,,,,,,,,,,4,,,,,,,,,,,,,,,,,,,,,,,,,,,616491882ae704cf46f3a9cc,001,2021-12-05_20h19.02.541,jm_natural_scene_simialrity_2-12-2021,2021.2.3,Win32,144.3209698,616491882ae704cf46f3a9cc,61ad71e11ddd29ccf7a27d5b,61ad7217ad07b4bce1964f86,,,,,,26,79,1,0,0,response1disk,0.7788,-19,-5,1,0,0,rectangle,-19,-5,1,0,0,-1,2,"[114,157,106,57,14,123,108,142,67,7]",-19,-5,1,0,0,1,47,128,30,1,Turquiose,Turquiose.jpg,Turquiose,Turquiose.jpg,,
,,,,,,,,,,,,,,,,,,-3,,,,,,,,,,,,,,,,,,,,,,,,,,,616491882ae704cf46f3a9cc,001,2021-12-05_20h19.02.541,jm_natural_scene_simialrity_2-12-2021,2021.2.3,Win32,144.3209698,616491882ae704cf46f3a9cc,61ad71e11ddd29ccf7a27d5b,61ad7217ad07b4bce1964f86,,,,,,-88,57,1,0,0,response7disk,2.079,2,6,1,0,0,rectangle,2,6,1,0,0,-1,-3,"[114,157,106,57,14,123,108,142,67,7]",2,6,1,0,0,1,48,129,64,1,Pink,Pink.jpg,LightGreen,LightGreen.jpg,,
,,,,,,,,,,,,,,,,,,2,,,,,,,,,,,,,,,,,,,,,,,,,,,616491882ae704cf46f3a9cc,001,2021-12-05_20h19.02.541,jm_natural_scene_simialrity_2-12-2021,2021.2.3,Win32,144.3209698,616491882ae704cf46f3a9cc,61ad71e11ddd29ccf7a27d5b,61ad7217ad07b4bce1964f86,,,,,,53,-31,1,0,0,response3disk,1.7455,7,-3,1,0,0,rectangle,7,-3,1,0,0,-1,-3,"[114,157,106,57,14,123,108,142,67,7]",7,-3,1,0,0,1,49,130,68,1,DarkBlue,DarkBlue.jpg,DarkGreen,DarkGreen.jpg,,
,,,,,,,,,,,,,,,,,,4,,,,,,,,,,,,,,,,,,,,,,,,,,,616491882ae704cf46f3a9cc,001,2021-12-05_20h19.02.541,jm_natural_scene_simialrity_2-12-2021,2021.2.3,Win32,144.3209698,616491882ae704cf46f3a9cc,61ad71e11ddd29ccf7a27d5b,61ad7217ad07b4bce1964f86,,,,,,25,91,1,0,0,response1disk,0.7718,-19,-11,1,0,0,rectangle,-19,-11,1,0,0,-1,-3,"[114,157,106,57,14,123,108,142,67,7]",-19,-11,1,0,0,1,50,131,9,1,Yellow,Yellow.jpg,Yellow,Yellow.jpg,,
,,,,,,,,,,,,,,,,,,4,,,,,,,,,,,,,,,,,,,,,,,,,,,616491882ae704cf46f3a9cc,001,2021-12-05_20h19.02.541,jm_natural_scene_simialrity_2-12-2021,2021.2.3,Win32,144.3209698,616491882ae704cf46f3a9cc,61ad71e11ddd29ccf7a27d5b,61ad7217ad07b4bce1964f86,,,,,,37,81,1,0,0,response1disk,0.5632,-13,2,1,0,0,rectangle,-13,2,1,0,0,-1,-2,"[114,157,106,57,14,123,108,142,67,7]",-13,2,1,0,0,1,51,132,35,1,LightBlue,LightBlue.jpg,LightBlue,LightBlue.jpg,,
,,,,,,,,,,,,,,,,,,3,,,,,,,,,,,,,,,,,,,,,,,,,,,616491882ae704cf46f3a9cc,001,2021-12-05_20h19.02.541,jm_natural_scene_simialrity_2-12-2021,2021.2.3,Win32,144.3209698,616491882ae704cf46f3a9cc,61ad71e11ddd29ccf7a27d5b,61ad7217ad07b4bce1964f86,,,,,,69,28,1,0,0,response1disk,1.078,-10,2,1,0,0,rectangle,-10,2,1,0,0,-1,2,"[114,157,106,57,14,123,108,142,67,7]",-10,2,1,0,0,1,52,133,51,1,Pink,Pink.jpg,Red,Red.jpg,,
,,,,,,,,,,,,,,,,,,2,,,,,,,,,,,,,,,,,,,,,,,,,,,616491882ae704cf46f3a9cc,001,2021-12-05_20h19.02.541,jm_natural_scene_simialrity_2-12-2021,2021.2.3,Win32,144.3209698,616491882ae704cf46f3a9cc,61ad71e11ddd29ccf7a27d5b,61ad7217ad07b4bce1964f86,,,,,,59,-46,1,0,0,response3disk,0.8344,2,-20,1,0,0,rectangle,2,-20,1,0,0,-1,1,"[114,157,106,57,14,123,108,142,67,7]",2,-20,1,0,0,1,53,134,27,1,DarkGreen,DarkGreen.jpg,DarkBlue,DarkBlue.jpg,,
,,,,,,,,,,,,,,,,,,-4,,,,,,,,,,,,,,,,,,,,,,,,,,,616491882ae704cf46f3a9cc,001,2021-12-05_20h19.02.541,jm_natural_scene_simialrity_2-12-2021,2021.2.3,Win32,144.3209698,616491882ae704cf46f3a9cc,61ad71e11ddd29ccf7a27d5b,61ad7217ad07b4bce1964f86,,,,,,-39,97,1,0,0,response7disk,1.9402,1,12,1,0,0,rectangle,1,12,1,0,0,-1,2,"[114,157,106,57,14,123,108,142,67,7]",1,12,1,0,0,1,54,135,53,1,LightGreen,LightGreen.jpg,Yellow,Yellow.jpg,,
,,,,,,,,,,,,,,,,,,4,,,,,,,,,,,,,,,,,,,,,,,,,,,616491882ae704cf46f3a9cc,001,2021-12-05_20h19.02.541,jm_natural_scene_simialrity_2-12-2021,2021.2.3,Win32,144.3209698,616491882ae704cf46f3a9cc,61ad71e11ddd29ccf7a27d5b,61ad7217ad07b4bce1964f86,,,,,,48,76,1,0,0,response1disk,0.6746,-7,5,1,0,0,rectangle,-7,5,1,0,0,-1,-2,"[114,157,106,57,14,123,108,142,67,7]",-7,5,1,0,0,1,55,136,44,1,Purple,Purple.jpg,Purple,Purple.jpg,,
,,,,,,,,,,,,,,,,,,-3,,,,,,,,,,,,,,,,,,,,,,,,,,,616491882ae704cf46f3a9cc,001,2021-12-05_20h19.02.541,jm_natural_scene_simialrity_2-12-2021,2021.2.3,Win32,144.3209698,616491882ae704cf46f3a9cc,61ad71e11ddd29ccf7a27d5b,61ad7217ad07b4bce1964f86,,,,,,-58,35,1,0,0,response7disk,1.4186,2,9,1,0,0,rectangle,2,9,1,0,0,-1,2,"[114,157,106,57,14,123,108,142,67,7]",2,9,1,0,0,1,56,137,16,1,Yellow,Yellow.jpg,Purple,Purple.jpg,,
,,,,,,,,,,,,,,,,,,-4,,,,,,,,,,,,,,,,,,,,,,,,,,,616491882ae704cf46f3a9cc,001,2021-12-05_20h19.02.541,jm_natural_scene_simialrity_2-12-2021,2021.2.3,Win32,144.3209698,616491882ae704cf46f3a9cc,61ad71e11ddd29ccf7a27d5b,61ad7217ad07b4bce1964f86,,,,,,-17,71,1,0,0,response7disk,1.7386,-4,-18,1,0,0,rectangle,-4,-18,1,0,0,-1,-3,"[114,157,106,57,14,123,108,142,67,7]",-4,-18,1,0,0,1,57,138,49,1,LightBlue,LightBlue.jpg,Red,Red.jpg,,
,,,,,,,,,,,,,,,,,,-4,,,,,,,,,,,,,,,,,,,,,,,,,,,616491882ae704cf46f3a9cc,001,2021-12-05_20h19.02.541,jm_natural_scene_simialrity_2-12-2021,2021.2.3,Win32,144.3209698,616491882ae704cf46f3a9cc,61ad71e11ddd29ccf7a27d5b,61ad7217ad07b4bce1964f86,,,,,,-53,95,1,0,0,response7disk,0.5912,2,1,1,0,0,rectangle,2,1,1,0,0,-1,-2,"[114,157,106,57,14,123,108,142,67,7]",2,1,1,0,0,1,58,139,2,1,Red,Red.jpg,LightGreen,LightGreen.jpg,,
,,,,,,,,,,,,,,,,,,-2,,,,,,,,,,,,,,,,,,,,,,,,,,,616491882ae704cf46f3a9cc,001,2021-12-05_20h19.02.541,jm_natural_scene_simialrity_2-12-2021,2021.2.3,Win32,144.3209698,616491882ae704cf46f3a9cc,61ad71e11ddd29ccf7a27d5b,61ad7217ad07b4bce1964f86,,,,,,-61,-39,1,0,0,response5disk,1.2032,-15,-19,1,0,0,rectangle,-15,-19,1,0,0,-1,2,"[114,157,106,57,14,123,108,142,67,7]",-15,-19,1,0,0,1,59,140,71,1,LightBlue,LightBlue.jpg,Turquiose,Turquiose.jpg,,
,,,,,,,,,,,,,,,,,,4,,,,,,,,,,,,,,,,,,,,,,,,,,,616491882ae704cf46f3a9cc,001,2021-12-05_20h19.02.541,jm_natural_scene_simialrity_2-12-2021,2021.2.3,Win32,144.3209698,616491882ae704cf46f3a9cc,61ad71e11ddd29ccf7a27d5b,61ad7217ad07b4bce1964f86,,,,,,52,103,1,0,0,response1disk,1.0986,0,9,1,0,0,rectangle,-38,-104,1,0,0,-1,-1,"[114,157,106,57,14,123,108,142,67,7]",-3,-7,1,0,0,1,60,141,0,1,Red,Red.jpg,Red,Red.jpg,response5disk_3,rectangle
,,,,,,,,,,,,,,,,,,-2,,,,,,,,,,,,,,,,,,,,,,,,,,,616491882ae704cf46f3a9cc,001,2021-12-05_20h19.02.541,jm_natural_scene_simialrity_2-12-2021,2021.2.3,Win32,144.3209698,616491882ae704cf46f3a9cc,61ad71e11ddd29ccf7a27d5b,61ad7217ad07b4bce1964f86,,,,,,-46,-30,1,0,0,response5disk,1.0013,-5,-7,1,0,0,rectangle,-5,-7,1,0,0,-1,-4,"[114,157,106,57,14,123,108,142,67,7]",-5,-7,1,0,0,1,61,142,57,1,DarkBlue,DarkBlue.jpg,Yellow,Yellow.jpg,,
,,,,,,,,,,,,,,,,,,-2,,,,,,,,,,,,,,,,,,,,,,,,,,,616491882ae704cf46f3a9cc,001,2021-12-05_20h19.02.541,jm_natural_scene_simialrity_2-12-2021,2021.2.3,Win32,144.3209698,616491882ae704cf46f3a9cc,61ad71e11ddd29ccf7a27d5b,61ad7217ad07b4bce1964f86,,,,,,-93,-39,1,0,0,response5disk,1.1335,20,-8,1,0,0,rectangle,20,-8,1,0,0,-1,-3,"[114,157,106,57,14,123,108,142,67,7]",20,-8,1,0,0,1,62,143,29,1,DarkGreen,DarkGreen.jpg,Purple,Purple.jpg,,
,,,,,,,,,,,,,,,,,,-4,,,,,,,,,,,,,,,,,,,,,,,,,,,616491882ae704cf46f3a9cc,001,2021-12-05_20h19.02.541,jm_natural_scene_simialrity_2-12-2021,2021.2.3,Win32,144.3209698,616491882ae704cf46f3a9cc,61ad71e11ddd29ccf7a27d5b,61ad7217ad07b4bce1964f86,,,,,,-42,105,1,0,0,response7disk,1.0447,9,15,1,0,0,rectangle,9,15,1,0,0,-1,3,"[114,157,106,57,14,123,108,142,67,7]",9,15,1,0,0,1,63,144,56,1,LightBlue,LightBlue.jpg,Yellow,Yellow.jpg,,
,,,,,,,,,,,,,,,,,,-4,,,,,,,,,,,,,,,,,,,,,,,,,,,616491882ae704cf46f3a9cc,001,2021-12-05_20h19.02.541,jm_natural_scene_simialrity_2-12-2021,2021.2.3,Win32,144.3209698,616491882ae704cf46f3a9cc,61ad71e11ddd29ccf7a27d5b,61ad7217ad07b4bce1964f86,,,,,,-51,84,1,0,0,response7disk,0.8553,1,-19,1,0,0,rectangle,1,-19,1,0,0,-1,3,"[114,157,106,57,14,123,108,142,67,7]",1,-19,1,0,0,1,64,145,69,1,Pink,Pink.jpg,DarkGreen,DarkGreen.jpg,,
,,,,,,,,,,,,,,,,,,-3,,,,,,,,,,,,,,,,,,,,,,,,,,,616491882ae704cf46f3a9cc,001,2021-12-05_20h19.02.541,jm_natural_scene_simialrity_2-12-2021,2021.2.3,Win32,144.3209698,616491882ae704cf46f3a9cc,61ad71e11ddd29ccf7a27d5b,61ad7217ad07b4bce1964f86,,,,,,-64,47,1,0,0,response7disk,0.7372,0,6,1,0,0,rectangle,0,6,1,0,0,-1,1,"[114,157,106,57,14,123,108,142,67,7]",0,6,1,0,0,1,65,146,73,1,Pink,Pink.jpg,Turquiose,Turquiose.jpg,,
,,,,,,,,,,,,,,,,,,3,,,,,,,,,,,,,,,,,,,,,,,,,,,616491882ae704cf46f3a9cc,001,2021-12-05_20h19.02.541,jm_natural_scene_simialrity_2-12-2021,2021.2.3,Win32,144.3209698,616491882ae704cf46f3a9cc,61ad71e11ddd29ccf7a27d5b,61ad7217ad07b4bce1964f86,,,,,,83,29,1,0,0,response1disk,1.3561,1,-3,1,0,0,rectangle,1,-3,1,0,0,-1,3,"[114,157,106,57,14,123,108,142,67,7]",1,-3,1,0,0,1,66,147,66,1,Turquiose,Turquiose.jpg,DarkGreen,DarkGreen.jpg,,
,,,,,,,,,,,,,,,,,,-3,,,,,,,,,,,,,,,,,,,,,,,,,,,616491882ae704cf46f3a9cc,001,2021-12-05_20h19.02.541,jm_natural_scene_simialrity_2-12-2021,2021.2.3,Win32,144.3209698,616491882ae704cf46f3a9cc,61ad71e11ddd29ccf7a27d5b,61ad7217ad07b4bce1964f86,,,,,,-94,48,1,0,0,response7disk,1.6897,-18,10,1,0,0,rectangle,-18,10,1,0,0,-1,1,"[114,157,106,57,14,123,108,142,67,7]",-18,10,1,0,0,1,67,148,22,1,LightGreen,LightGreen.jpg,Pink,Pink.jpg,,
,,,,,,,,,,,,,,,,,,-3,,,,,,,,,,,,,,,,,,,,,,,,,,,616491882ae704cf46f3a9cc,001,2021-12-05_20h19.02.541,jm_natural_scene_simialrity_2-12-2021,2021.2.3,Win32,144.3209698,616491882ae704cf46f3a9cc,61ad71e11ddd29ccf7a27d5b,61ad7217ad07b4bce1964f86,,,,,,-93,46,1,0,0,response7disk,0.9388,-22,8,1,0,0,rectangle,-22,8,1,0,0,-1,1,"[114,157,106,57,14,123,108,142,67,7]",-22,8,1,0,0,1,68,149,33,1,Turquiose,Turquiose.jpg,Pink,Pink.jpg,,
,,,,,,,,,,,,,,,,,,1,,,,,,,,,,,,,,,,,,,,,,,,,,,616491882ae704cf46f3a9cc,001,2021-12-05_20h19.02.541,jm_natural_scene_simialrity_2-12-2021,2021.2.3,Win32,144.3209698,616491882ae704cf46f3a9cc,61ad71e11ddd29ccf7a27d5b,61ad7217ad07b4bce1964f86,,,,,,51,-79,1,0,0,response3disk,1.6969,20,-6,1,0,0,rectangle,20,-6,1,0,0,-1,-2,"[114,157,106,57,14,123,108,142,67,7]",20,-6,1,0,0,1,69,150,32,1,Turquiose,Turquiose.jpg,DarkBlue,DarkBlue.jpg,,
,,,,,,,,,,,,,,,,,,-1,,,,,,,,,,,,,,,,,,,,,,,,,,,616491882ae704cf46f3a9cc,001,2021-12-05_20h19.02.541,jm_natural_scene_simialrity_2-12-2021,2021.2.3,Win32,144.3209698,616491882ae704cf46f3a9cc,61ad71e11ddd29ccf7a27d5b,61ad7217ad07b4bce1964f86,,,,,,-42,-102,1,0,0,response5disk,1.4465,-16,-2,1,0,0,rectangle,-16,-2,1,0,0,-1,3,"[114,157,106,57,14,123,108,142,67,7]",-16,-2,1,0,0,1,70,151,61,1,Turquiose,Turquiose.jpg,LightGreen,LightGreen.jpg,,
,,,,,,,,,,,,,,,,,,-2,,,,,,,,,,,,,,,,,,,,,,,,,,,616491882ae704cf46f3a9cc,001,2021-12-05_20h19.02.541,jm_natural_scene_simialrity_2-12-2021,2021.2.3,Win32,144.3209698,616491882ae704cf46f3a9cc,61ad71e11ddd29ccf7a27d5b,61ad7217ad07b4bce1964f86,,,,,,-110,-50,1,0,0,response5disk,1.6999,-7,3,1,0,0,rectangle,-7,3,1,0,0,-1,-2,"[114,157,106,57,14,123,108,142,67,7]",-7,3,1,0,0,1,71,152,48,1,Turquiose,Turquiose.jpg,Red,Red.jpg,,
,,,,,,,,,,,,,,,,,,-3,,,,,,,,,,,,,,,,,,,,,,,,,,,616491882ae704cf46f3a9cc,001,2021-12-05_20h19.02.541,jm_natural_scene_simialrity_2-12-2021,2021.2.3,Win32,144.3209698,616491882ae704cf46f3a9cc,61ad71e11ddd29ccf7a27d5b,61ad7217ad07b4bce1964f86,,,,,,-87,28,1,0,0,response7disk,1.6761,7,2,1,0,0,rectangle,7,2,1,0,0,-1,1,"[114,157,106,57,14,123,108,142,67,7]",7,2,1,0,0,1,72,153,3,1,Red,Red.jpg,DarkGreen,DarkGreen.jpg,,
,,,,,,,,,,,,,,,,,,1,,,,,,,,,,,,,,,,,,,,,,,,,,,616491882ae704cf46f3a9cc,001,2021-12-05_20h19.02.541,jm_natural_scene_simialrity_2-12-2021,2021.2.3,Win32,144.3209698,616491882ae704cf46f3a9cc,61ad71e11ddd29ccf7a27d5b,61ad7217ad07b4bce1964f86,,,,,,54,-89,1,0,0,response3disk,1.874,20,4,1,0,0,rectangle,20,4,1,0,0,-1,-4,"[114,157,106,57,14,123,108,142,67,7]",20,4,1,0,0,1,73,154,1,1,Red,Red.jpg,Yellow,Yellow.jpg,,
,,,,,,,,,,,,,,,,,,-2,,,,,,,,,,,,,,,,,,,,,,,,,,,616491882ae704cf46f3a9cc,001,2021-12-05_20h19.02.541,jm_natural_scene_simialrity_2-12-2021,2021.2.3,Win32,144.3209698,616491882ae704cf46f3a9cc,61ad71e11ddd29ccf7a27d5b,61ad7217ad07b4bce1964f86,,,,,,-93,-36,1,0,0,response5disk,1.5718,-7,-12,1,0,0,rectangle,-7,-12,1,0,0,-1,-1,"[114,157,106,57,14,123,108,142,67,7]",-7,-12,1,0,0,1,74,155,76,1,Pink,Pink.jpg,LightBlue,LightBlue.jpg,,
,,,,,,,,,,,,,,,,,,1,,,,,,,,,,,,,,,,,,,,,,,,,,,616491882ae704cf46f3a9cc,001,2021-12-05_20h19.02.541,jm_natural_scene_simialrity_2-12-2021,2021.2.3,Win32,144.3209698,616491882ae704cf46f3a9cc,61ad71e11ddd29ccf7a27d5b,61ad7217ad07b4bce1964f86,,,,,,27,-97,1,0,0,response3disk,1.8182,-12,-12,1,0,0,rectangle,67,-100,1,0,0,1,1,"[114,157,106,57,14,123,108,142,67,7]",-10,-5,1,0,0,1,75,156,7,1,Red,Red.jpg,Pink,Pink.jpg,response3disk_3,rectangle
,,,,,,,,,,,,,,,,,,-1,,,,,,,,,,,,,,,,,,,,,,,,,,,616491882ae704cf46f3a9cc,001,2021-12-05_20h19.02.541,jm_natural_scene_simialrity_2-12-2021,2021.2.3,Win32,144.3209698,616491882ae704cf46f3a9cc,61ad71e11ddd29ccf7a27d5b,61ad7217ad07b4bce1964f86,,,,,,-34,-103,1,0,0,response5disk,1.4115,-11,2,1,0,0,rectangle,-11,2,1,0,0,1,1,"[114,157,106,57,14,123,108,142,67,7]",-11,2,1,0,0,1,76,157,36,1,LightBlue,LightBlue.jpg,DarkBlue,DarkBlue.jpg,,
,,,,,,,,,,,,,,,,,,4,,,,,,,,,,,,,,,,,,,,,,,,,,,616491882ae704cf46f3a9cc,001,2021-12-05_20h19.02.541,jm_natural_scene_simialrity_2-12-2021,2021.2.3,Win32,144.3209698,616491882ae704cf46f3a9cc,61ad71e11ddd29ccf7a27d5b,61ad7217ad07b4bce1964f86,,,,,,51,89,1,0,0,response1disk,0.7649,10,5,1,0,0,rectangle,10,5,1,0,0,1,-2,"[114,157,106,57,14,123,108,142,67,7]",10,5,1,0,0,1,77,158,42,1,Pink,Pink.jpg,Pink,Pink.jpg,,
,,,,,,,,,,,,,,,,,,4,,,,,,,,,,,,,,,,,,,,,,,,,,,616491882ae704cf46f3a9cc,001,2021-12-05_20h19.02.541,jm_natural_scene_simialrity_2-12-2021,2021.2.3,Win32,144.3209698,616491882ae704cf46f3a9cc,61ad71e11ddd29ccf7a27d5b,61ad7217ad07b4bce1964f86,,,,,,27,75,1,0,0,response1disk,0.7163,4,9,1,0,0,rectangle,4,9,1,0,0,1,3,"[114,157,106,57,14,123,108,142,67,7]",4,9,1,0,0,1,78,159,39,1,DarkBlue,DarkBlue.jpg,DarkBlue,DarkBlue.jpg,,
,,,,,,,,,,,,,,,,,,-3,,,,,,,,,,,,,,,,,,,,,,,,,,,616491882ae704cf46f3a9cc,001,2021-12-05_20h19.02.541,jm_natural_scene_simialrity_2-12-2021,2021.2.3,Win32,144.3209698,616491882ae704cf46f3a9cc,61ad71e11ddd29ccf7a27d5b,61ad7217ad07b4bce1964f86,,,,,,-94,36,1,0,0,response7disk,1.8426,7,-6,1,0,0,rectangle,7,-6,1,0,0,1,3,"[114,157,106,57,14,123,108,142,67,7]",7,-6,1,0,0,1,79,160,40,1,DarkBlue,DarkBlue.jpg,Pink,Pink.jpg,,
,,,,,,,,,,,,,,,,,,-1,,,,,,,,,,,,,,,,,,,,,,,,,,,616491882ae704cf46f3a9cc,001,2021-12-05_20h19.02.541,jm_natural_scene_simialrity_2-12-2021,2021.2.3,Win32,144.3209698,616491882ae704cf46f3a9cc,61ad71e11ddd29ccf7a27d5b,61ad7217ad07b4bce1964f86,,,,,,-67,-109,1,0,0,response5disk,1.356,-19,-3,1,0,0,rectangle,-19,-3,1,0,0,1,1,"[114,157,106,57,14,123,108,142,67,7]",-19,-3,1,0,0,1,80,161,63,1,DarkBlue,DarkBlue.jpg,LightGreen,LightGreen.jpg,,
