key_resp.keys,key_resp.rt,key_resp_16.keys,key_resp_16.rt,key_resp_2.keys,key_resp_2.rt,key_resp_3.keys,key_resp_3.rt,key_resp_19.keys,key_resp_19.rt,key_resp_10.keys,key_resp_10.rt,mouse_prac.x,mouse_prac.y,mouse_prac.leftButton,mouse_prac.midButton,mouse_prac.rightButton,mouse_prac.clicked_name,similarity,mouse_10.x,mouse_10.y,mouse_10.leftButton,mouse_10.midButton,mouse_10.rightButton,mouse_10.clicked_name,mouse_catch_prac.x,mouse_catch_prac.y,mouse_catch_prac.leftButton,mouse_catch_prac.midButton,mouse_catch_prac.rightButton,catchnumberprac,mouse_6.x,mouse_6.y,mouse_6.leftButton,mouse_6.midButton,mouse_6.rightButton,during_prac.thisRepN,during_prac.thisTrialN,during_prac.thisN,during_prac.thisIndex,during_prac.ran,trailimage1,trial1adress,trailimage2,trial2adress,participant,session,date,expName,psychopyVersion,OS,frameRate,PROLIFIC_PID,STUDY_ID,SESSION_ID,mouse_catch_prac.clicked_name,catchprac,mouse_6.clicked_name,key_resp_22.keys,key_resp_22.rt,mouse.x,mouse.y,mouse.leftButton,mouse.midButton,mouse.rightButton,mouse.clicked_name,response_time,mouse_2.x,mouse_2.y,mouse_2.leftButton,mouse_2.midButton,mouse_2.rightButton,mouse_2.clicked_name,mouse_3.x,mouse_3.y,mouse_3.leftButton,mouse_3.midButton,mouse_3.rightButton,catchresponse,catchnumber,catchtrialorder,mouse_11.x,mouse_11.y,mouse_11.leftButton,mouse_11.midButton,mouse_11.rightButton,trials_2.thisRepN,trials_2.thisTrialN,trials_2.thisN,trials_2.thisIndex,trials_2.ran,image1,image1adress,image2,image2adress,mouse_3.clicked_name,mouse_11.clicked_name
space,1.5968,space,15.9477,space,5.6037,space,11.4788,space,12.0071,space,7.6178,74,-67,1,0,0,response3disk_5,2,9,17,1,0,0,rectangle_8,9,17,1,0,0,3,9,17,1,0,0,0,0,0,5,1,trail3,trail3.jpg,trail3,trail3.jpg,61678cac42a2c1fecd5e0800,001,2021-12-06_02h19.52.584,jm_natural_scene_simialrity_2-12-2021,2021.2.3,Win32,59.91611744,61678cac42a2c1fecd5e0800,61ad71e11ddd29ccf7a27d5b,61ad7335350c4d3516d9fc89,,,,,,,,,,,,,,,,,,,,,,,,,,,,,,,,,,,,,,,,,,
,,,,,,,,,,,,-75,52,1,0,0,response7disk_5,-3,-2,0,1,0,0,rectangle_8,-2,0,1,0,0,3,-2,0,1,0,0,0,1,1,1,1,trail1,trail1.jpg,trail2,trail2.jpg,61678cac42a2c1fecd5e0800,001,2021-12-06_02h19.52.584,jm_natural_scene_simialrity_2-12-2021,2021.2.3,Win32,59.91611744,61678cac42a2c1fecd5e0800,61ad71e11ddd29ccf7a27d5b,61ad7335350c4d3516d9fc89,,,,,,,,,,,,,,,,,,,,,,,,,,,,,,,,,,,,,,,,,,
,,,,,,,,,,,,65,66,1,0,0,response1disk_5,4,-10,2,1,0,0,rectangle_8,97,26,1,0,0,3,-1,1,1,0,0,0,2,2,3,1,trail2,trail2.jpg,trail2,trail2.jpg,61678cac42a2c1fecd5e0800,001,2021-12-06_02h19.52.584,jm_natural_scene_simialrity_2-12-2021,2021.2.3,Win32,59.91611744,61678cac42a2c1fecd5e0800,61ad71e11ddd29ccf7a27d5b,61ad7335350c4d3516d9fc89,response1disk_7,3,rectangle_4,,,,,,,,,,,,,,,,,,,,,,,,,,,,,,,,,,,,,,,
,,,,,,,,,,,,-80,53,1,0,0,response7disk_5,-3,-1,0,1,0,0,rectangle_8,89,40,1,0,0,3,-1,-7,1,0,0,0,3,3,4,1,trail2,trail2.jpg,trail3,trail3.jpg,61678cac42a2c1fecd5e0800,001,2021-12-06_02h19.52.584,jm_natural_scene_simialrity_2-12-2021,2021.2.3,Win32,59.91611744,61678cac42a2c1fecd5e0800,61ad71e11ddd29ccf7a27d5b,61ad7335350c4d3516d9fc89,response1disk_7,3,rectangle_4,,,,,,,,,,,,,,,,,,,,,,,,,,,,,,,,,,,,,,,
,,,,,,,,,,,,-75,48,1,0,0,response7disk_5,-3,0,-4,1,0,0,rectangle_8,0,-4,1,0,0,3,0,-4,1,0,0,0,4,4,2,1,trail1,trail1.jpg,trail3,trail3.jpg,61678cac42a2c1fecd5e0800,001,2021-12-06_02h19.52.584,jm_natural_scene_simialrity_2-12-2021,2021.2.3,Win32,59.91611744,61678cac42a2c1fecd5e0800,61ad71e11ddd29ccf7a27d5b,61ad7335350c4d3516d9fc89,,,,,,,,,,,,,,,,,,,,,,,,,,,,,,,,,,,,,,,,,,
,,,,,,,,,,,,50,84,1,0,0,response1disk_5,4,2,-9,1,0,0,rectangle_8,2,-9,1,0,0,3,2,-9,1,0,0,0,5,5,0,1,trail1,trail1.jpg,trail1,trail1.jpg,61678cac42a2c1fecd5e0800,001,2021-12-06_02h19.52.584,jm_natural_scene_simialrity_2-12-2021,2021.2.3,Win32,59.91611744,61678cac42a2c1fecd5e0800,61ad71e11ddd29ccf7a27d5b,61ad7335350c4d3516d9fc89,,,,,,,,,,,,,,,,,,,,,,,,,,,,,,,,,,,,,,,,,,
,,,,,,,,,,,,,,,,,,-4,,,,,,,,,,,,,,,,,,,,,,,,,,,61678cac42a2c1fecd5e0800,001,2021-12-06_02h19.52.584,jm_natural_scene_simialrity_2-12-2021,2021.2.3,Win32,59.91611744,61678cac42a2c1fecd5e0800,61ad71e11ddd29ccf7a27d5b,61ad7335350c4d3516d9fc89,,,,space,1.8953,-63,68,1,0,0,response7disk,0.9011,-5,3,1,0,0,rectangle,-5,3,1,0,0,,1,"[83,13,26,4,100,149,19,0,85,13]",-5,3,1,0,0,0,0,0,7,1,Red,Red.jpg,Pink,Pink.jpg,,
,,,,,,,,,,,,,,,,,,-3,,,,,,,,,,,,,,,,,,,,,,,,,,,61678cac42a2c1fecd5e0800,001,2021-12-06_02h19.52.584,jm_natural_scene_simialrity_2-12-2021,2021.2.3,Win32,59.91611744,61678cac42a2c1fecd5e0800,61ad71e11ddd29ccf7a27d5b,61ad7335350c4d3516d9fc89,,,,,,-60,52,1,0,0,response7disk,1.0678,0,3,1,0,0,rectangle,0,3,1,0,0,,-2,"[83,13,26,4,100,149,19,0,85,13]",0,3,1,0,0,0,1,1,38,1,LightBlue,LightBlue.jpg,Purple,Purple.jpg,,
,,,,,,,,,,,,,,,,,,-3,,,,,,,,,,,,,,,,,,,,,,,,,,,61678cac42a2c1fecd5e0800,001,2021-12-06_02h19.52.584,jm_natural_scene_simialrity_2-12-2021,2021.2.3,Win32,59.91611744,61678cac42a2c1fecd5e0800,61ad71e11ddd29ccf7a27d5b,61ad7335350c4d3516d9fc89,,,,,,-67,54,1,0,0,response7disk,0.752,6,0,1,0,0,rectangle,6,0,1,0,0,,-3,"[83,13,26,4,100,149,19,0,85,13]",6,0,1,0,0,0,2,2,21,1,LightGreen,LightGreen.jpg,DarkBlue,DarkBlue.jpg,,
,,,,,,,,,,,,,,,,,,-3,,,,,,,,,,,,,,,,,,,,,,,,,,,61678cac42a2c1fecd5e0800,001,2021-12-06_02h19.52.584,jm_natural_scene_simialrity_2-12-2021,2021.2.3,Win32,59.91611744,61678cac42a2c1fecd5e0800,61ad71e11ddd29ccf7a27d5b,61ad7335350c4d3516d9fc89,,,,,,-62,31,1,0,0,response7disk,0.7673,9,-3,1,0,0,rectangle,111,-34,1,0,0,2,2,"[83,13,26,4,100,149,19,0,85,13]",-3,-5,1,0,0,0,3,3,36,1,LightBlue,LightBlue.jpg,DarkBlue,DarkBlue.jpg,response3disk_3,rectangle
,,,,,,,,,,,,,,,,,,-4,,,,,,,,,,,,,,,,,,,,,,,,,,,61678cac42a2c1fecd5e0800,001,2021-12-06_02h19.52.584,jm_natural_scene_simialrity_2-12-2021,2021.2.3,Win32,59.91611744,61678cac42a2c1fecd5e0800,61ad71e11ddd29ccf7a27d5b,61ad7335350c4d3516d9fc89,,,,,,-60,84,1,0,0,response7disk,0.7684,1,-14,1,0,0,rectangle,1,-14,1,0,0,2,-3,"[83,13,26,4,100,149,19,0,85,13]",1,-14,1,0,0,0,4,4,37,1,LightBlue,LightBlue.jpg,Pink,Pink.jpg,,
,,,,,,,,,,,,,,,,,,-3,,,,,,,,,,,,,,,,,,,,,,,,,,,61678cac42a2c1fecd5e0800,001,2021-12-06_02h19.52.584,jm_natural_scene_simialrity_2-12-2021,2021.2.3,Win32,59.91611744,61678cac42a2c1fecd5e0800,61ad71e11ddd29ccf7a27d5b,61ad7335350c4d3516d9fc89,,,,,,-83,52,1,0,0,response7disk,0.7685,-10,0,1,0,0,rectangle,-10,0,1,0,0,2,3,"[83,13,26,4,100,149,19,0,85,13]",-10,0,1,0,0,0,5,5,34,1,Turquiose,Turquiose.jpg,Purple,Purple.jpg,,
,,,,,,,,,,,,,,,,,,-3,,,,,,,,,,,,,,,,,,,,,,,,,,,61678cac42a2c1fecd5e0800,001,2021-12-06_02h19.52.584,jm_natural_scene_simialrity_2-12-2021,2021.2.3,Win32,59.91611744,61678cac42a2c1fecd5e0800,61ad71e11ddd29ccf7a27d5b,61ad7335350c4d3516d9fc89,,,,,,-68,66,1,0,0,response7disk,0.702,7,6,1,0,0,rectangle,7,6,1,0,0,2,-1,"[83,13,26,4,100,149,19,0,85,13]",7,6,1,0,0,0,6,6,43,1,Pink,Pink.jpg,Purple,Purple.jpg,,
,,,,,,,,,,,,,,,,,,-3,,,,,,,,,,,,,,,,,,,,,,,,,,,61678cac42a2c1fecd5e0800,001,2021-12-06_02h19.52.584,jm_natural_scene_simialrity_2-12-2021,2021.2.3,Win32,59.91611744,61678cac42a2c1fecd5e0800,61ad71e11ddd29ccf7a27d5b,61ad7335350c4d3516d9fc89,,,,,,-85,50,1,0,0,response7disk,0.6852,-7,-3,1,0,0,rectangle,-7,-3,1,0,0,2,3,"[83,13,26,4,100,149,19,0,85,13]",-7,-3,1,0,0,0,7,7,29,1,DarkGreen,DarkGreen.jpg,Purple,Purple.jpg,,
,,,,,,,,,,,,,,,,,,-3,,,,,,,,,,,,,,,,,,,,,,,,,,,61678cac42a2c1fecd5e0800,001,2021-12-06_02h19.52.584,jm_natural_scene_simialrity_2-12-2021,2021.2.3,Win32,59.91611744,61678cac42a2c1fecd5e0800,61ad71e11ddd29ccf7a27d5b,61ad7335350c4d3516d9fc89,,,,,,-82,53,1,0,0,response7disk,0.6351,-1,2,1,0,0,rectangle,-1,2,1,0,0,2,1,"[83,13,26,4,100,149,19,0,85,13]",-1,2,1,0,0,0,8,8,10,1,Yellow,Yellow.jpg,LightGreen,LightGreen.jpg,,
,,,,,,,,,,,,,,,,,,-3,,,,,,,,,,,,,,,,,,,,,,,,,,,61678cac42a2c1fecd5e0800,001,2021-12-06_02h19.52.584,jm_natural_scene_simialrity_2-12-2021,2021.2.3,Win32,59.91611744,61678cac42a2c1fecd5e0800,61ad71e11ddd29ccf7a27d5b,61ad7335350c4d3516d9fc89,,,,,,-67,48,1,0,0,response7disk,0.6018,-4,4,1,0,0,rectangle,-4,4,1,0,0,2,-1,"[83,13,26,4,100,149,19,0,85,13]",-4,4,1,0,0,0,9,9,69,1,Pink,Pink.jpg,DarkGreen,DarkGreen.jpg,,
,,,,,,,,,,,,,,,,,,-3,,,,,,,,,,,,,,,,,,,,,,,,,,,61678cac42a2c1fecd5e0800,001,2021-12-06_02h19.52.584,jm_natural_scene_simialrity_2-12-2021,2021.2.3,Win32,59.91611744,61678cac42a2c1fecd5e0800,61ad71e11ddd29ccf7a27d5b,61ad7335350c4d3516d9fc89,,,,,,-62,45,1,0,0,response7disk,0.535,5,1,1,0,0,rectangle,5,1,1,0,0,2,-2,"[83,13,26,4,100,149,19,0,85,13]",5,1,1,0,0,0,10,10,28,1,DarkGreen,DarkGreen.jpg,Pink,Pink.jpg,,
,,,,,,,,,,,,,,,,,,-3,,,,,,,,,,,,,,,,,,,,,,,,,,,61678cac42a2c1fecd5e0800,001,2021-12-06_02h19.52.584,jm_natural_scene_simialrity_2-12-2021,2021.2.3,Win32,59.91611744,61678cac42a2c1fecd5e0800,61ad71e11ddd29ccf7a27d5b,61ad7335350c4d3516d9fc89,,,,,,-63,40,1,0,0,response7disk,0.6173,7,-8,1,0,0,rectangle,7,-8,1,0,0,2,2,"[83,13,26,4,100,149,19,0,85,13]",7,-8,1,0,0,0,11,11,70,1,Purple,Purple.jpg,DarkGreen,DarkGreen.jpg,,
,,,,,,,,,,,,,,,,,,-3,,,,,,,,,,,,,,,,,,,,,,,,,,,61678cac42a2c1fecd5e0800,001,2021-12-06_02h19.52.584,jm_natural_scene_simialrity_2-12-2021,2021.2.3,Win32,59.91611744,61678cac42a2c1fecd5e0800,61ad71e11ddd29ccf7a27d5b,61ad7335350c4d3516d9fc89,,,,,,-69,38,1,0,0,response7disk,0.5852,5,-9,1,0,0,rectangle,-104,-41,1,0,0,2,-2,"[83,13,26,4,100,149,19,0,85,13]",-11,-9,1,0,0,0,12,12,16,1,Yellow,Yellow.jpg,Purple,Purple.jpg,response5disk_3,rectangle
,,,,,,,,,,,,,,,,,,-2,,,,,,,,,,,,,,,,,,,,,,,,,,,61678cac42a2c1fecd5e0800,001,2021-12-06_02h19.52.584,jm_natural_scene_simialrity_2-12-2021,2021.2.3,Win32,59.91611744,61678cac42a2c1fecd5e0800,61ad71e11ddd29ccf7a27d5b,61ad7335350c4d3516d9fc89,,,,,,-59,-48,1,0,0,response5disk,2.02,0,4,1,0,0,rectangle,0,4,1,0,0,2,1,"[83,13,26,4,100,149,19,0,85,13]",0,4,1,0,0,0,13,13,75,1,DarkBlue,DarkBlue.jpg,LightBlue,LightBlue.jpg,,
,,,,,,,,,,,,,,,,,,-3,,,,,,,,,,,,,,,,,,,,,,,,,,,61678cac42a2c1fecd5e0800,001,2021-12-06_02h19.52.584,jm_natural_scene_simialrity_2-12-2021,2021.2.3,Win32,59.91611744,61678cac42a2c1fecd5e0800,61ad71e11ddd29ccf7a27d5b,61ad7335350c4d3516d9fc89,,,,,,-68,36,1,0,0,response7disk,0.6853,-12,0,1,0,0,rectangle,-12,0,1,0,0,2,1,"[83,13,26,4,100,149,19,0,85,13]",-12,0,1,0,0,0,14,14,67,1,LightBlue,LightBlue.jpg,DarkGreen,DarkGreen.jpg,,
,,,,,,,,,,,,,,,,,,4,,,,,,,,,,,,,,,,,,,,,,,,,,,61678cac42a2c1fecd5e0800,001,2021-12-06_02h19.52.584,jm_natural_scene_simialrity_2-12-2021,2021.2.3,Win32,59.91611744,61678cac42a2c1fecd5e0800,61ad71e11ddd29ccf7a27d5b,61ad7335350c4d3516d9fc89,,,,,,82,85,1,0,0,response1disk,1.2179,6,-12,1,0,0,rectangle,6,-12,1,0,0,2,3,"[83,13,26,4,100,149,19,0,85,13]",6,-12,1,0,0,0,15,15,30,1,Turquiose,Turquiose.jpg,Turquiose,Turquiose.jpg,,
,,,,,,,,,,,,,,,,,,-3,,,,,,,,,,,,,,,,,,,,,,,,,,,61678cac42a2c1fecd5e0800,001,2021-12-06_02h19.52.584,jm_natural_scene_simialrity_2-12-2021,2021.2.3,Win32,59.91611744,61678cac42a2c1fecd5e0800,61ad71e11ddd29ccf7a27d5b,61ad7335350c4d3516d9fc89,,,,,,-54,45,1,0,0,response7disk,0.752,9,1,1,0,0,rectangle,9,1,1,0,0,2,-3,"[83,13,26,4,100,149,19,0,85,13]",9,1,1,0,0,0,16,16,71,1,LightBlue,LightBlue.jpg,Turquiose,Turquiose.jpg,,
,,,,,,,,,,,,,,,,,,-3,,,,,,,,,,,,,,,,,,,,,,,,,,,61678cac42a2c1fecd5e0800,001,2021-12-06_02h19.52.584,jm_natural_scene_simialrity_2-12-2021,2021.2.3,Win32,59.91611744,61678cac42a2c1fecd5e0800,61ad71e11ddd29ccf7a27d5b,61ad7335350c4d3516d9fc89,,,,,,-60,33,1,0,0,response7disk,0.6006,15,-12,1,0,0,rectangle,15,-12,1,0,0,2,-3,"[83,13,26,4,100,149,19,0,85,13]",15,-12,1,0,0,0,17,17,6,1,Red,Red.jpg,DarkBlue,DarkBlue.jpg,,
,,,,,,,,,,,,,,,,,,-3,,,,,,,,,,,,,,,,,,,,,,,,,,,61678cac42a2c1fecd5e0800,001,2021-12-06_02h19.52.584,jm_natural_scene_simialrity_2-12-2021,2021.2.3,Win32,59.91611744,61678cac42a2c1fecd5e0800,61ad71e11ddd29ccf7a27d5b,61ad7335350c4d3516d9fc89,,,,,,-76,44,1,0,0,response7disk,0.6352,3,-6,1,0,0,rectangle,88,53,1,0,0,3,3,"[83,13,26,4,100,149,19,0,85,13]",-7,-6,1,0,0,0,18,18,40,1,DarkBlue,DarkBlue.jpg,Pink,Pink.jpg,response1disk_3,rectangle
,,,,,,,,,,,,,,,,,,2,,,,,,,,,,,,,,,,,,,,,,,,,,,61678cac42a2c1fecd5e0800,001,2021-12-06_02h19.52.584,jm_natural_scene_simialrity_2-12-2021,2021.2.3,Win32,59.91611744,61678cac42a2c1fecd5e0800,61ad71e11ddd29ccf7a27d5b,61ad7335350c4d3516d9fc89,,,,,,101,-59,1,0,0,response3disk,1.6184,2,-2,1,0,0,rectangle,2,-2,1,0,0,3,-4,"[83,13,26,4,100,149,19,0,85,13]",2,-2,1,0,0,0,19,19,51,1,Pink,Pink.jpg,Red,Red.jpg,,
,,,,,,,,,,,,,,,,,,-3,,,,,,,,,,,,,,,,,,,,,,,,,,,61678cac42a2c1fecd5e0800,001,2021-12-06_02h19.52.584,jm_natural_scene_simialrity_2-12-2021,2021.2.3,Win32,59.91611744,61678cac42a2c1fecd5e0800,61ad71e11ddd29ccf7a27d5b,61ad7335350c4d3516d9fc89,,,,,,-67,43,1,0,0,response7disk,0.6852,7,-7,1,0,0,rectangle,7,-7,1,0,0,3,-4,"[83,13,26,4,100,149,19,0,85,13]",7,-7,1,0,0,0,20,20,79,1,Purple,Purple.jpg,DarkBlue,DarkBlue.jpg,,
,,,,,,,,,,,,,,,,,,-3,,,,,,,,,,,,,,,,,,,,,,,,,,,61678cac42a2c1fecd5e0800,001,2021-12-06_02h19.52.584,jm_natural_scene_simialrity_2-12-2021,2021.2.3,Win32,59.91611744,61678cac42a2c1fecd5e0800,61ad71e11ddd29ccf7a27d5b,61ad7335350c4d3516d9fc89,,,,,,-64,33,1,0,0,response7disk,0.5349,4,-17,1,0,0,rectangle,4,-17,1,0,0,3,-4,"[83,13,26,4,100,149,19,0,85,13]",4,-17,1,0,0,0,21,21,73,1,Pink,Pink.jpg,Turquiose,Turquiose.jpg,,
,,,,,,,,,,,,,,,,,,-3,,,,,,,,,,,,,,,,,,,,,,,,,,,61678cac42a2c1fecd5e0800,001,2021-12-06_02h19.52.584,jm_natural_scene_simialrity_2-12-2021,2021.2.3,Win32,59.91611744,61678cac42a2c1fecd5e0800,61ad71e11ddd29ccf7a27d5b,61ad7335350c4d3516d9fc89,,,,,,-68,35,1,0,0,response7disk,0.5683,-7,-8,1,0,0,rectangle,-7,-8,1,0,0,3,2,"[83,13,26,4,100,149,19,0,85,13]",-7,-8,1,0,0,0,22,22,52,1,Purple,Purple.jpg,Red,Red.jpg,,
,,,,,,,,,,,,,,,,,,-3,,,,,,,,,,,,,,,,,,,,,,,,,,,61678cac42a2c1fecd5e0800,001,2021-12-06_02h19.52.584,jm_natural_scene_simialrity_2-12-2021,2021.2.3,Win32,59.91611744,61678cac42a2c1fecd5e0800,61ad71e11ddd29ccf7a27d5b,61ad7335350c4d3516d9fc89,,,,,,-57,29,1,0,0,response7disk,0.6519,-1,-6,1,0,0,rectangle,-1,-6,1,0,0,3,1,"[83,13,26,4,100,149,19,0,85,13]",-1,-6,1,0,0,0,23,23,54,1,DarkGreen,DarkGreen.jpg,Yellow,Yellow.jpg,,
,,,,,,,,,,,,,,,,,,-3,,,,,,,,,,,,,,,,,,,,,,,,,,,61678cac42a2c1fecd5e0800,001,2021-12-06_02h19.52.584,jm_natural_scene_simialrity_2-12-2021,2021.2.3,Win32,59.91611744,61678cac42a2c1fecd5e0800,61ad71e11ddd29ccf7a27d5b,61ad7335350c4d3516d9fc89,,,,,,-49,36,1,0,0,response7disk,0.5839,15,-5,1,0,0,rectangle,15,-5,1,0,0,3,-1,"[83,13,26,4,100,149,19,0,85,13]",15,-5,1,0,0,0,24,24,26,1,DarkGreen,DarkGreen.jpg,LightBlue,LightBlue.jpg,,
,,,,,,,,,,,,,,,,,,-3,,,,,,,,,,,,,,,,,,,,,,,,,,,61678cac42a2c1fecd5e0800,001,2021-12-06_02h19.52.584,jm_natural_scene_simialrity_2-12-2021,2021.2.3,Win32,59.91611744,61678cac42a2c1fecd5e0800,61ad71e11ddd29ccf7a27d5b,61ad7335350c4d3516d9fc89,,,,,,-53,32,1,0,0,response7disk,0.5675,4,-4,1,0,0,rectangle,-80,59,1,0,0,-3,-3,"[83,13,26,4,100,149,19,0,85,13]",-6,-13,1,0,0,0,25,25,14,1,Yellow,Yellow.jpg,DarkBlue,DarkBlue.jpg,response7disk_3,rectangle
,,,,,,,,,,,,,,,,,,-1,,,,,,,,,,,,,,,,,,,,,,,,,,,61678cac42a2c1fecd5e0800,001,2021-12-06_02h19.52.584,jm_natural_scene_simialrity_2-12-2021,2021.2.3,Win32,59.91611744,61678cac42a2c1fecd5e0800,61ad71e11ddd29ccf7a27d5b,61ad7335350c4d3516d9fc89,,,,,,-37,-54,1,0,0,response5disk,2.4524,-15,-1,1,0,0,rectangle,-15,-1,1,0,0,-3,3,"[83,13,26,4,100,149,19,0,85,13]",-15,-1,1,0,0,0,26,26,68,1,DarkBlue,DarkBlue.jpg,DarkGreen,DarkGreen.jpg,,
,,,,,,,,,,,,,,,,,,-3,,,,,,,,,,,,,,,,,,,,,,,,,,,61678cac42a2c1fecd5e0800,001,2021-12-06_02h19.52.584,jm_natural_scene_simialrity_2-12-2021,2021.2.3,Win32,59.91611744,61678cac42a2c1fecd5e0800,61ad71e11ddd29ccf7a27d5b,61ad7335350c4d3516d9fc89,,,,,,-73,33,1,0,0,response7disk,0.7842,-9,-7,1,0,0,rectangle,-9,-7,1,0,0,-3,-2,"[83,13,26,4,100,149,19,0,85,13]",-9,-7,1,0,0,0,27,27,33,1,Turquiose,Turquiose.jpg,Pink,Pink.jpg,,
,,,,,,,,,,,,,,,,,,3,,,,,,,,,,,,,,,,,,,,,,,,,,,61678cac42a2c1fecd5e0800,001,2021-12-06_02h19.52.584,jm_natural_scene_simialrity_2-12-2021,2021.2.3,Win32,59.91611744,61678cac42a2c1fecd5e0800,61ad71e11ddd29ccf7a27d5b,61ad7335350c4d3516d9fc89,,,,,,72,71,1,0,0,response1disk,1.0846,2,-2,1,0,0,rectangle,2,-2,1,0,0,-3,3,"[83,13,26,4,100,149,19,0,85,13]",2,-2,1,0,0,0,28,28,9,1,Yellow,Yellow.jpg,Yellow,Yellow.jpg,,
,,,,,,,,,,,,,,,,,,-3,,,,,,,,,,,,,,,,,,,,,,,,,,,61678cac42a2c1fecd5e0800,001,2021-12-06_02h19.52.584,jm_natural_scene_simialrity_2-12-2021,2021.2.3,Win32,59.91611744,61678cac42a2c1fecd5e0800,61ad71e11ddd29ccf7a27d5b,61ad7335350c4d3516d9fc89,,,,,,-48,42,1,0,0,response7disk,0.902,6,7,1,0,0,rectangle,6,7,1,0,0,-3,1,"[83,13,26,4,100,149,19,0,85,13]",6,7,1,0,0,0,29,29,56,1,LightBlue,LightBlue.jpg,Yellow,Yellow.jpg,,
,,,,,,,,,,,,,,,,,,-3,,,,,,,,,,,,,,,,,,,,,,,,,,,61678cac42a2c1fecd5e0800,001,2021-12-06_02h19.52.584,jm_natural_scene_simialrity_2-12-2021,2021.2.3,Win32,59.91611744,61678cac42a2c1fecd5e0800,61ad71e11ddd29ccf7a27d5b,61ad7335350c4d3516d9fc89,,,,,,-48,34,1,0,0,response7disk,0.634,4,-9,1,0,0,rectangle,4,-9,1,0,0,-3,2,"[83,13,26,4,100,149,19,0,85,13]",4,-9,1,0,0,0,30,30,23,1,LightGreen,LightGreen.jpg,Purple,Purple.jpg,,
,,,,,,,,,,,,,,,,,,-3,,,,,,,,,,,,,,,,,,,,,,,,,,,61678cac42a2c1fecd5e0800,001,2021-12-06_02h19.52.584,jm_natural_scene_simialrity_2-12-2021,2021.2.3,Win32,59.91611744,61678cac42a2c1fecd5e0800,61ad71e11ddd29ccf7a27d5b,61ad7335350c4d3516d9fc89,,,,,,-43,32,1,0,0,response7disk,0.6018,1,-1,1,0,0,rectangle,1,-1,1,0,0,-3,-2,"[83,13,26,4,100,149,19,0,85,13]",1,-1,1,0,0,0,31,31,76,1,Pink,Pink.jpg,LightBlue,LightBlue.jpg,,
,,,,,,,,,,,,,,,,,,-3,,,,,,,,,,,,,,,,,,,,,,,,,,,61678cac42a2c1fecd5e0800,001,2021-12-06_02h19.52.584,jm_natural_scene_simialrity_2-12-2021,2021.2.3,Win32,59.91611744,61678cac42a2c1fecd5e0800,61ad71e11ddd29ccf7a27d5b,61ad7335350c4d3516d9fc89,,,,,,-48,29,1,0,0,response7disk,0.5851,-2,-3,1,0,0,rectangle,-2,-3,1,0,0,-3,-2,"[83,13,26,4,100,149,19,0,85,13]",-2,-3,1,0,0,0,32,32,11,1,Yellow,Yellow.jpg,DarkGreen,DarkGreen.jpg,,
,,,,,,,,,,,,,,,,,,-3,,,,,,,,,,,,,,,,,,,,,,,,,,,61678cac42a2c1fecd5e0800,001,2021-12-06_02h19.52.584,jm_natural_scene_simialrity_2-12-2021,2021.2.3,Win32,59.91611744,61678cac42a2c1fecd5e0800,61ad71e11ddd29ccf7a27d5b,61ad7335350c4d3516d9fc89,,,,,,-42,34,1,0,0,response7disk,0.5339,1,5,1,0,0,rectangle,1,5,1,0,0,-3,-2,"[83,13,26,4,100,149,19,0,85,13]",1,5,1,0,0,0,33,33,13,1,Yellow,Yellow.jpg,LightBlue,LightBlue.jpg,,
,,,,,,,,,,,,,,,,,,2,,,,,,,,,,,,,,,,,,,,,,,,,,,61678cac42a2c1fecd5e0800,001,2021-12-06_02h19.52.584,jm_natural_scene_simialrity_2-12-2021,2021.2.3,Win32,59.91611744,61678cac42a2c1fecd5e0800,61ad71e11ddd29ccf7a27d5b,61ad7335350c4d3516d9fc89,,,,,,96,-56,1,0,0,response3disk,1.3183,0,-8,1,0,0,rectangle,0,-8,1,0,0,-3,-2,"[83,13,26,4,100,149,19,0,85,13]",0,-8,1,0,0,0,34,34,15,1,Yellow,Yellow.jpg,Pink,Pink.jpg,,
,,,,,,,,,,,,,,,,,,2,,,,,,,,,,,,,,,,,,,,,,,,,,,61678cac42a2c1fecd5e0800,001,2021-12-06_02h19.52.584,jm_natural_scene_simialrity_2-12-2021,2021.2.3,Win32,59.91611744,61678cac42a2c1fecd5e0800,61ad71e11ddd29ccf7a27d5b,61ad7335350c4d3516d9fc89,,,,,,71,-47,1,0,0,response3disk,1.0355,6,-14,1,0,0,rectangle,6,-14,1,0,0,-3,-3,"[83,13,26,4,100,149,19,0,85,13]",6,-14,1,0,0,0,35,35,18,1,LightGreen,LightGreen.jpg,DarkGreen,DarkGreen.jpg,,
,,,,,,,,,,,,,,,,,,-4,,,,,,,,,,,,,,,,,,,,,,,,,,,61678cac42a2c1fecd5e0800,001,2021-12-06_02h19.52.584,jm_natural_scene_simialrity_2-12-2021,2021.2.3,Win32,59.91611744,61678cac42a2c1fecd5e0800,61ad71e11ddd29ccf7a27d5b,61ad7335350c4d3516d9fc89,,,,,,-42,46,1,0,0,response7disk,0.8687,8,9,1,0,0,rectangle,8,9,1,0,0,-3,-4,"[83,13,26,4,100,149,19,0,85,13]",8,9,1,0,0,0,36,36,74,1,Purple,Purple.jpg,Turquiose,Turquiose.jpg,,
,,,,,,,,,,,,,,,,,,-1,,,,,,,,,,,,,,,,,,,,,,,,,,,61678cac42a2c1fecd5e0800,001,2021-12-06_02h19.52.584,jm_natural_scene_simialrity_2-12-2021,2021.2.3,Win32,59.91611744,61678cac42a2c1fecd5e0800,61ad71e11ddd29ccf7a27d5b,61ad7335350c4d3516d9fc89,,,,,,-43,-43,1,0,0,response5disk,0.9856,6,-4,1,0,0,rectangle,6,-4,1,0,0,-3,1,"[83,13,26,4,100,149,19,0,85,13]",6,-4,1,0,0,0,37,37,77,1,Purple,Purple.jpg,LightBlue,LightBlue.jpg,,
,,,,,,,,,,,,,,,,,,3,,,,,,,,,,,,,,,,,,,,,,,,,,,61678cac42a2c1fecd5e0800,001,2021-12-06_02h19.52.584,jm_natural_scene_simialrity_2-12-2021,2021.2.3,Win32,59.91611744,61678cac42a2c1fecd5e0800,61ad71e11ddd29ccf7a27d5b,61ad7335350c4d3516d9fc89,,,,,,57,40,1,0,0,response1disk,0.9174,17,-3,1,0,0,rectangle,17,-3,1,0,0,-3,1,"[83,13,26,4,100,149,19,0,85,13]",17,-3,1,0,0,0,38,38,35,1,LightBlue,LightBlue.jpg,LightBlue,LightBlue.jpg,,
,,,,,,,,,,,,,,,,,,-3,,,,,,,,,,,,,,,,,,,,,,,,,,,61678cac42a2c1fecd5e0800,001,2021-12-06_02h19.52.584,jm_natural_scene_simialrity_2-12-2021,2021.2.3,Win32,59.91611744,61678cac42a2c1fecd5e0800,61ad71e11ddd29ccf7a27d5b,61ad7335350c4d3516d9fc89,,,,,,-54,40,1,0,0,response7disk,0.8521,-2,3,1,0,0,rectangle,-2,3,1,0,0,-3,-1,"[83,13,26,4,100,149,19,0,85,13]",-2,3,1,0,0,0,39,39,78,1,Pink,Pink.jpg,DarkBlue,DarkBlue.jpg,,
,,,,,,,,,,,,,,,,,,-4,,,,,,,,,,,,,,,,,,,,,,,,,,,61678cac42a2c1fecd5e0800,001,2021-12-06_02h19.52.584,jm_natural_scene_simialrity_2-12-2021,2021.2.3,Win32,59.91611744,61678cac42a2c1fecd5e0800,61ad71e11ddd29ccf7a27d5b,61ad7335350c4d3516d9fc89,,,,,,-37,64,1,0,0,response7disk,0.5343,7,3,1,0,0,rectangle,7,3,1,0,0,-3,-3,"[83,13,26,4,100,149,19,0,85,13]",7,3,1,0,0,0,40,40,3,1,Red,Red.jpg,DarkGreen,DarkGreen.jpg,,
,,,,,,,,,,,,,,,,,,-3,,,,,,,,,,,,,,,,,,,,,,,,,,,61678cac42a2c1fecd5e0800,001,2021-12-06_02h19.52.584,jm_natural_scene_simialrity_2-12-2021,2021.2.3,Win32,59.91611744,61678cac42a2c1fecd5e0800,61ad71e11ddd29ccf7a27d5b,61ad7335350c4d3516d9fc89,,,,,,-46,35,1,0,0,response7disk,0.6006,17,-8,1,0,0,rectangle,17,-8,1,0,0,-3,3,"[83,13,26,4,100,149,19,0,85,13]",17,-8,1,0,0,0,41,41,57,1,DarkBlue,DarkBlue.jpg,Yellow,Yellow.jpg,,
,,,,,,,,,,,,,,,,,,3,,,,,,,,,,,,,,,,,,,,,,,,,,,61678cac42a2c1fecd5e0800,001,2021-12-06_02h19.52.584,jm_natural_scene_simialrity_2-12-2021,2021.2.3,Win32,59.91611744,61678cac42a2c1fecd5e0800,61ad71e11ddd29ccf7a27d5b,61ad7335350c4d3516d9fc89,,,,,,66,63,1,0,0,response1disk,0.7352,15,10,1,0,0,rectangle,15,10,1,0,0,-3,-4,"[83,13,26,4,100,149,19,0,85,13]",15,10,1,0,0,0,42,42,39,1,DarkBlue,DarkBlue.jpg,DarkBlue,DarkBlue.jpg,,
,,,,,,,,,,,,,,,,,,2,,,,,,,,,,,,,,,,,,,,,,,,,,,61678cac42a2c1fecd5e0800,001,2021-12-06_02h19.52.584,jm_natural_scene_simialrity_2-12-2021,2021.2.3,Win32,59.91611744,61678cac42a2c1fecd5e0800,61ad71e11ddd29ccf7a27d5b,61ad7335350c4d3516d9fc89,,,,,,47,-43,1,0,0,response3disk,1.0856,-14,-15,1,0,0,rectangle,-14,-15,1,0,0,-3,-1,"[83,13,26,4,100,149,19,0,85,13]",-14,-15,1,0,0,0,43,43,32,1,Turquiose,Turquiose.jpg,DarkBlue,DarkBlue.jpg,,
,,,,,,,,,,,,,,,,,,2,,,,,,,,,,,,,,,,,,,,,,,,,,,61678cac42a2c1fecd5e0800,001,2021-12-06_02h19.52.584,jm_natural_scene_simialrity_2-12-2021,2021.2.3,Win32,59.91611744,61678cac42a2c1fecd5e0800,61ad71e11ddd29ccf7a27d5b,61ad7335350c4d3516d9fc89,,,,,,68,-54,1,0,0,response3disk,0.8842,-13,-11,1,0,0,rectangle,-13,-11,1,0,0,-3,-1,"[83,13,26,4,100,149,19,0,85,13]",-13,-11,1,0,0,0,44,44,45,1,Yellow,Yellow.jpg,Red,Red.jpg,,
,,,,,,,,,,,,,,,,,,-1,,,,,,,,,,,,,,,,,,,,,,,,,,,61678cac42a2c1fecd5e0800,001,2021-12-06_02h19.52.584,jm_natural_scene_simialrity_2-12-2021,2021.2.3,Win32,59.91611744,61678cac42a2c1fecd5e0800,61ad71e11ddd29ccf7a27d5b,61ad7335350c4d3516d9fc89,,,,,,-38,-41,1,0,0,response5disk,1.7528,-22,0,1,0,0,rectangle,-22,0,1,0,0,-3,2,"[83,13,26,4,100,149,19,0,85,13]",-22,0,1,0,0,0,45,45,61,1,Turquiose,Turquiose.jpg,LightGreen,LightGreen.jpg,,
,,,,,,,,,,,,,,,,,,4,,,,,,,,,,,,,,,,,,,,,,,,,,,61678cac42a2c1fecd5e0800,001,2021-12-06_02h19.52.584,jm_natural_scene_simialrity_2-12-2021,2021.2.3,Win32,59.91611744,61678cac42a2c1fecd5e0800,61ad71e11ddd29ccf7a27d5b,61ad7335350c4d3516d9fc89,,,,,,40,42,1,0,0,response1disk,0.8008,-4,6,1,0,0,rectangle,-4,6,1,0,0,-3,-1,"[83,13,26,4,100,149,19,0,85,13]",-4,6,1,0,0,0,46,46,42,1,Pink,Pink.jpg,Pink,Pink.jpg,,
,,,,,,,,,,,,,,,,,,-3,,,,,,,,,,,,,,,,,,,,,,,,,,,61678cac42a2c1fecd5e0800,001,2021-12-06_02h19.52.584,jm_natural_scene_simialrity_2-12-2021,2021.2.3,Win32,59.91611744,61678cac42a2c1fecd5e0800,61ad71e11ddd29ccf7a27d5b,61ad7335350c4d3516d9fc89,,,,,,-45,39,1,0,0,response7disk,0.5685,13,3,1,0,0,rectangle,13,3,1,0,0,-3,-2,"[83,13,26,4,100,149,19,0,85,13]",13,3,1,0,0,0,47,47,25,1,DarkGreen,DarkGreen.jpg,Turquiose,Turquiose.jpg,,
,,,,,,,,,,,,,,,,,,3,,,,,,,,,,,,,,,,,,,,,,,,,,,61678cac42a2c1fecd5e0800,001,2021-12-06_02h19.52.584,jm_natural_scene_simialrity_2-12-2021,2021.2.3,Win32,59.91611744,61678cac42a2c1fecd5e0800,61ad71e11ddd29ccf7a27d5b,61ad7335350c4d3516d9fc89,,,,,,53,42,1,0,0,response1disk,0.8686,-2,4,1,0,0,rectangle,-2,4,1,0,0,-3,2,"[83,13,26,4,100,149,19,0,85,13]",-2,4,1,0,0,0,48,48,17,1,LightGreen,LightGreen.jpg,LightGreen,LightGreen.jpg,,
,,,,,,,,,,,,,,,,,,-3,,,,,,,,,,,,,,,,,,,,,,,,,,,61678cac42a2c1fecd5e0800,001,2021-12-06_02h19.52.584,jm_natural_scene_simialrity_2-12-2021,2021.2.3,Win32,59.91611744,61678cac42a2c1fecd5e0800,61ad71e11ddd29ccf7a27d5b,61ad7335350c4d3516d9fc89,,,,,,-56,34,1,0,0,response7disk,1.5015,3,-2,1,0,0,rectangle,3,-2,1,0,0,-3,-2,"[83,13,26,4,100,149,19,0,85,13]",3,-2,1,0,0,0,49,49,80,1,Purple,Purple.jpg,Pink,Pink.jpg,,
,,,,,,,,,,,,,,,,,,-3,,,,,,,,,,,,,,,,,,,,,,,,,,,61678cac42a2c1fecd5e0800,001,2021-12-06_02h19.52.584,jm_natural_scene_simialrity_2-12-2021,2021.2.3,Win32,59.91611744,61678cac42a2c1fecd5e0800,61ad71e11ddd29ccf7a27d5b,61ad7335350c4d3516d9fc89,,,,,,-48,32,1,0,0,response7disk,0.6184,-6,5,1,0,0,rectangle,-6,5,1,0,0,-3,-2,"[83,13,26,4,100,149,19,0,85,13]",-6,5,1,0,0,0,50,50,55,1,Turquiose,Turquiose.jpg,Yellow,Yellow.jpg,,
,,,,,,,,,,,,,,,,,,-3,,,,,,,,,,,,,,,,,,,,,,,,,,,61678cac42a2c1fecd5e0800,001,2021-12-06_02h19.52.584,jm_natural_scene_simialrity_2-12-2021,2021.2.3,Win32,59.91611744,61678cac42a2c1fecd5e0800,61ad71e11ddd29ccf7a27d5b,61ad7335350c4d3516d9fc89,,,,,,-46,27,1,0,0,response7disk,0.4849,-3,1,1,0,0,rectangle,-3,1,1,0,0,-3,-4,"[83,13,26,4,100,149,19,0,85,13]",-3,1,1,0,0,0,51,51,2,1,Red,Red.jpg,LightGreen,LightGreen.jpg,,
,,,,,,,,,,,,,,,,,,-3,,,,,,,,,,,,,,,,,,,,,,,,,,,61678cac42a2c1fecd5e0800,001,2021-12-06_02h19.52.584,jm_natural_scene_simialrity_2-12-2021,2021.2.3,Win32,59.91611744,61678cac42a2c1fecd5e0800,61ad71e11ddd29ccf7a27d5b,61ad7335350c4d3516d9fc89,,,,,,-42,36,1,0,0,response7disk,0.5672,1,6,1,0,0,rectangle,1,6,1,0,0,-3,-4,"[83,13,26,4,100,149,19,0,85,13]",1,6,1,0,0,0,52,52,64,1,Pink,Pink.jpg,LightGreen,LightGreen.jpg,,
,,,,,,,,,,,,,,,,,,-3,,,,,,,,,,,,,,,,,,,,,,,,,,,61678cac42a2c1fecd5e0800,001,2021-12-06_02h19.52.584,jm_natural_scene_simialrity_2-12-2021,2021.2.3,Win32,59.91611744,61678cac42a2c1fecd5e0800,61ad71e11ddd29ccf7a27d5b,61ad7335350c4d3516d9fc89,,,,,,-58,43,1,0,0,response7disk,1.9687,-13,9,1,0,0,rectangle,-13,9,1,0,0,-3,-1,"[83,13,26,4,100,149,19,0,85,13]",-13,9,1,0,0,0,53,53,8,1,Red,Red.jpg,Purple,Purple.jpg,,
,,,,,,,,,,,,,,,,,,2,,,,,,,,,,,,,,,,,,,,,,,,,,,61678cac42a2c1fecd5e0800,001,2021-12-06_02h19.52.584,jm_natural_scene_simialrity_2-12-2021,2021.2.3,Win32,59.91611744,61678cac42a2c1fecd5e0800,61ad71e11ddd29ccf7a27d5b,61ad7335350c4d3516d9fc89,,,,,,81,-56,1,0,0,response3disk,1.0521,7,-1,1,0,0,rectangle,7,-1,1,0,0,-3,-4,"[83,13,26,4,100,149,19,0,85,13]",7,-1,1,0,0,0,54,54,60,1,DarkGreen,DarkGreen.jpg,LightGreen,LightGreen.jpg,,
,,,,,,,,,,,,,,,,,,4,,,,,,,,,,,,,,,,,,,,,,,,,,,61678cac42a2c1fecd5e0800,001,2021-12-06_02h19.52.584,jm_natural_scene_simialrity_2-12-2021,2021.2.3,Win32,59.91611744,61678cac42a2c1fecd5e0800,61ad71e11ddd29ccf7a27d5b,61ad7335350c4d3516d9fc89,,,,,,38,49,1,0,0,response1disk,0.6184,-8,11,1,0,0,rectangle,-8,11,1,0,0,-3,-4,"[83,13,26,4,100,149,19,0,85,13]",-8,11,1,0,0,0,55,55,44,1,Purple,Purple.jpg,Purple,Purple.jpg,,
,,,,,,,,,,,,,,,,,,-3,,,,,,,,,,,,,,,,,,,,,,,,,,,61678cac42a2c1fecd5e0800,001,2021-12-06_02h19.52.584,jm_natural_scene_simialrity_2-12-2021,2021.2.3,Win32,59.91611744,61678cac42a2c1fecd5e0800,61ad71e11ddd29ccf7a27d5b,61ad7335350c4d3516d9fc89,,,,,,-44,38,1,0,0,response7disk,0.7175,6,1,1,0,0,rectangle,6,1,1,0,0,-3,-4,"[83,13,26,4,100,149,19,0,85,13]",6,1,1,0,0,0,56,56,27,1,DarkGreen,DarkGreen.jpg,DarkBlue,DarkBlue.jpg,,
,,,,,,,,,,,,,,,,,,-3,,,,,,,,,,,,,,,,,,,,,,,,,,,61678cac42a2c1fecd5e0800,001,2021-12-06_02h19.52.584,jm_natural_scene_simialrity_2-12-2021,2021.2.3,Win32,59.91611744,61678cac42a2c1fecd5e0800,61ad71e11ddd29ccf7a27d5b,61ad7335350c4d3516d9fc89,,,,,,-44,36,1,0,0,response7disk,0.5516,-6,6,1,0,0,rectangle,-6,6,1,0,0,-3,-3,"[83,13,26,4,100,149,19,0,85,13]",-6,6,1,0,0,0,57,57,4,1,Red,Red.jpg,Turquiose,Turquiose.jpg,,
,,,,,,,,,,,,,,,,,,-3,,,,,,,,,,,,,,,,,,,,,,,,,,,61678cac42a2c1fecd5e0800,001,2021-12-06_02h19.52.584,jm_natural_scene_simialrity_2-12-2021,2021.2.3,Win32,59.91611744,61678cac42a2c1fecd5e0800,61ad71e11ddd29ccf7a27d5b,61ad7335350c4d3516d9fc89,,,,,,-45,35,1,0,0,response7disk,0.5182,1,-7,1,0,0,rectangle,1,-7,1,0,0,-3,3,"[83,13,26,4,100,149,19,0,85,13]",1,-7,1,0,0,0,58,58,59,1,Purple,Purple.jpg,Yellow,Yellow.jpg,,
,,,,,,,,,,,,,,,,,,1,,,,,,,,,,,,,,,,,,,,,,,,,,,61678cac42a2c1fecd5e0800,001,2021-12-06_02h19.52.584,jm_natural_scene_simialrity_2-12-2021,2021.2.3,Win32,59.91611744,61678cac42a2c1fecd5e0800,61ad71e11ddd29ccf7a27d5b,61ad7335350c4d3516d9fc89,,,,,,32,-58,1,0,0,response3disk,1.218,0,-13,1,0,0,rectangle,0,-13,1,0,0,-3,3,"[83,13,26,4,100,149,19,0,85,13]",0,-13,1,0,0,0,59,59,58,1,Pink,Pink.jpg,Yellow,Yellow.jpg,,
,,,,,,,,,,,,,,,,,,3,,,,,,,,,,,,,,,,,,,,,,,,,,,61678cac42a2c1fecd5e0800,001,2021-12-06_02h19.52.584,jm_natural_scene_simialrity_2-12-2021,2021.2.3,Win32,59.91611744,61678cac42a2c1fecd5e0800,61ad71e11ddd29ccf7a27d5b,61ad7335350c4d3516d9fc89,,,,,,56,51,1,0,0,response1disk,0.8175,3,-7,1,0,0,rectangle,3,-7,1,0,0,-3,2,"[83,13,26,4,100,149,19,0,85,13]",3,-7,1,0,0,0,60,60,24,1,DarkGreen,DarkGreen.jpg,DarkGreen,DarkGreen.jpg,,
,,,,,,,,,,,,,,,,,,-3,,,,,,,,,,,,,,,,,,,,,,,,,,,61678cac42a2c1fecd5e0800,001,2021-12-06_02h19.52.584,jm_natural_scene_simialrity_2-12-2021,2021.2.3,Win32,59.91611744,61678cac42a2c1fecd5e0800,61ad71e11ddd29ccf7a27d5b,61ad7335350c4d3516d9fc89,,,,,,-39,31,1,0,0,response7disk,0.7342,-3,1,1,0,0,rectangle,-3,1,1,0,0,-3,1,"[83,13,26,4,100,149,19,0,85,13]",-3,1,1,0,0,0,61,61,53,1,LightGreen,LightGreen.jpg,Yellow,Yellow.jpg,,
,,,,,,,,,,,,,,,,,,-4,,,,,,,,,,,,,,,,,,,,,,,,,,,61678cac42a2c1fecd5e0800,001,2021-12-06_02h19.52.584,jm_natural_scene_simialrity_2-12-2021,2021.2.3,Win32,59.91611744,61678cac42a2c1fecd5e0800,61ad71e11ddd29ccf7a27d5b,61ad7335350c4d3516d9fc89,,,,,,-37,43,1,0,0,response7disk,0.5331,3,2,1,0,0,rectangle,3,2,1,0,0,-3,-3,"[83,13,26,4,100,149,19,0,85,13]",3,2,1,0,0,0,62,62,19,1,LightGreen,LightGreen.jpg,Turquiose,Turquiose.jpg,,
,,,,,,,,,,,,,,,,,,-3,,,,,,,,,,,,,,,,,,,,,,,,,,,61678cac42a2c1fecd5e0800,001,2021-12-06_02h19.52.584,jm_natural_scene_simialrity_2-12-2021,2021.2.3,Win32,59.91611744,61678cac42a2c1fecd5e0800,61ad71e11ddd29ccf7a27d5b,61ad7335350c4d3516d9fc89,,,,,,-48,29,1,0,0,response7disk,0.585,2,-3,1,0,0,rectangle,2,-3,1,0,0,-3,-4,"[83,13,26,4,100,149,19,0,85,13]",2,-3,1,0,0,0,63,63,31,1,Turquiose,Turquiose.jpg,LightBlue,LightBlue.jpg,,
,,,,,,,,,,,,,,,,,,-3,,,,,,,,,,,,,,,,,,,,,,,,,,,61678cac42a2c1fecd5e0800,001,2021-12-06_02h19.52.584,jm_natural_scene_simialrity_2-12-2021,2021.2.3,Win32,59.91611744,61678cac42a2c1fecd5e0800,61ad71e11ddd29ccf7a27d5b,61ad7335350c4d3516d9fc89,,,,,,-51,34,1,0,0,response7disk,0.535,-8,1,1,0,0,rectangle,-8,1,1,0,0,-3,2,"[83,13,26,4,100,149,19,0,85,13]",-8,1,1,0,0,0,64,64,12,1,Yellow,Yellow.jpg,Turquiose,Turquiose.jpg,,
,,,,,,,,,,,,,,,,,,-3,,,,,,,,,,,,,,,,,,,,,,,,,,,61678cac42a2c1fecd5e0800,001,2021-12-06_02h19.52.584,jm_natural_scene_simialrity_2-12-2021,2021.2.3,Win32,59.91611744,61678cac42a2c1fecd5e0800,61ad71e11ddd29ccf7a27d5b,61ad7335350c4d3516d9fc89,,,,,,-51,31,1,0,0,response7disk,0.635,-2,-3,1,0,0,rectangle,-2,-3,1,0,0,-3,-1,"[83,13,26,4,100,149,19,0,85,13]",-2,-3,1,0,0,0,65,65,50,1,DarkBlue,DarkBlue.jpg,Red,Red.jpg,,
,,,,,,,,,,,,,,,,,,-1,,,,,,,,,,,,,,,,,,,,,,,,,,,61678cac42a2c1fecd5e0800,001,2021-12-06_02h19.52.584,jm_natural_scene_simialrity_2-12-2021,2021.2.3,Win32,59.91611744,61678cac42a2c1fecd5e0800,61ad71e11ddd29ccf7a27d5b,61ad7335350c4d3516d9fc89,,,,,,-41,-44,1,0,0,response5disk,1.3014,-6,-7,1,0,0,rectangle,-6,-7,1,0,0,-3,2,"[83,13,26,4,100,149,19,0,85,13]",-6,-7,1,0,0,0,66,66,66,1,Turquiose,Turquiose.jpg,DarkGreen,DarkGreen.jpg,,
,,,,,,,,,,,,,,,,,,-3,,,,,,,,,,,,,,,,,,,,,,,,,,,61678cac42a2c1fecd5e0800,001,2021-12-06_02h19.52.584,jm_natural_scene_simialrity_2-12-2021,2021.2.3,Win32,59.91611744,61678cac42a2c1fecd5e0800,61ad71e11ddd29ccf7a27d5b,61ad7335350c4d3516d9fc89,,,,,,-52,44,1,0,0,response7disk,0.6685,-3,8,1,0,0,rectangle,-3,8,1,0,0,-3,-2,"[83,13,26,4,100,149,19,0,85,13]",-3,8,1,0,0,0,67,67,22,1,LightGreen,LightGreen.jpg,Pink,Pink.jpg,,
,,,,,,,,,,,,,,,,,,-3,,,,,,,,,,,,,,,,,,,,,,,,,,,61678cac42a2c1fecd5e0800,001,2021-12-06_02h19.52.584,jm_natural_scene_simialrity_2-12-2021,2021.2.3,Win32,59.91611744,61678cac42a2c1fecd5e0800,61ad71e11ddd29ccf7a27d5b,61ad7335350c4d3516d9fc89,,,,,,-47,29,1,0,0,response7disk,0.5507,-1,-3,1,0,0,rectangle,-1,-3,1,0,0,-3,-4,"[83,13,26,4,100,149,19,0,85,13]",-1,-3,1,0,0,0,68,68,62,1,LightBlue,LightBlue.jpg,LightGreen,LightGreen.jpg,,
,,,,,,,,,,,,,,,,,,-3,,,,,,,,,,,,,,,,,,,,,,,,,,,61678cac42a2c1fecd5e0800,001,2021-12-06_02h19.52.584,jm_natural_scene_simialrity_2-12-2021,2021.2.3,Win32,59.91611744,61678cac42a2c1fecd5e0800,61ad71e11ddd29ccf7a27d5b,61ad7335350c4d3516d9fc89,,,,,,-51,37,1,0,0,response7disk,0.5852,-6,-4,1,0,0,rectangle,-6,-4,1,0,0,-3,-2,"[83,13,26,4,100,149,19,0,85,13]",-6,-4,1,0,0,0,69,69,72,1,DarkBlue,DarkBlue.jpg,Turquiose,Turquiose.jpg,,
,,,,,,,,,,,,,,,,,,-3,,,,,,,,,,,,,,,,,,,,,,,,,,,61678cac42a2c1fecd5e0800,001,2021-12-06_02h19.52.584,jm_natural_scene_simialrity_2-12-2021,2021.2.3,Win32,59.91611744,61678cac42a2c1fecd5e0800,61ad71e11ddd29ccf7a27d5b,61ad7335350c4d3516d9fc89,,,,,,-38,34,1,0,0,response7disk,1.2346,8,1,1,0,0,rectangle,8,1,1,0,0,-3,1,"[83,13,26,4,100,149,19,0,85,13]",8,1,1,0,0,0,70,70,49,1,LightBlue,LightBlue.jpg,Red,Red.jpg,,
,,,,,,,,,,,,,,,,,,-3,,,,,,,,,,,,,,,,,,,,,,,,,,,61678cac42a2c1fecd5e0800,001,2021-12-06_02h19.52.584,jm_natural_scene_simialrity_2-12-2021,2021.2.3,Win32,59.91611744,61678cac42a2c1fecd5e0800,61ad71e11ddd29ccf7a27d5b,61ad7335350c4d3516d9fc89,,,,,,-52,36,1,0,0,response7disk,0.8841,-7,8,1,0,0,rectangle,-7,8,1,0,0,-3,-3,"[83,13,26,4,100,149,19,0,85,13]",-7,8,1,0,0,0,71,71,48,1,Turquiose,Turquiose.jpg,Red,Red.jpg,,
,,,,,,,,,,,,,,,,,,-3,,,,,,,,,,,,,,,,,,,,,,,,,,,61678cac42a2c1fecd5e0800,001,2021-12-06_02h19.52.584,jm_natural_scene_simialrity_2-12-2021,2021.2.3,Win32,59.91611744,61678cac42a2c1fecd5e0800,61ad71e11ddd29ccf7a27d5b,61ad7335350c4d3516d9fc89,,,,,,-54,22,1,0,0,response7disk,0.8845,4,-8,1,0,0,rectangle,4,-8,1,0,0,-3,-2,"[83,13,26,4,100,149,19,0,85,13]",4,-8,1,0,0,0,72,72,65,1,Purple,Purple.jpg,LightGreen,LightGreen.jpg,,
,,,,,,,,,,,,,,,,,,-3,,,,,,,,,,,,,,,,,,,,,,,,,,,61678cac42a2c1fecd5e0800,001,2021-12-06_02h19.52.584,jm_natural_scene_simialrity_2-12-2021,2021.2.3,Win32,59.91611744,61678cac42a2c1fecd5e0800,61ad71e11ddd29ccf7a27d5b,61ad7335350c4d3516d9fc89,,,,,,-41,29,1,0,0,response7disk,0.4849,-7,3,1,0,0,rectangle,-7,3,1,0,0,-3,-4,"[83,13,26,4,100,149,19,0,85,13]",-7,3,1,0,0,0,73,73,5,1,Red,Red.jpg,LightBlue,LightBlue.jpg,,
,,,,,,,,,,,,,,,,,,2,,,,,,,,,,,,,,,,,,,,,,,,,,,61678cac42a2c1fecd5e0800,001,2021-12-06_02h19.52.584,jm_natural_scene_simialrity_2-12-2021,2021.2.3,Win32,59.91611744,61678cac42a2c1fecd5e0800,61ad71e11ddd29ccf7a27d5b,61ad7335350c4d3516d9fc89,,,,,,69,-37,1,0,0,response3disk,0.9521,0,0,1,0,0,rectangle,0,0,1,0,0,-3,-2,"[83,13,26,4,100,149,19,0,85,13]",0,0,1,0,0,0,74,74,1,1,Red,Red.jpg,Yellow,Yellow.jpg,,
,,,,,,,,,,,,,,,,,,-3,,,,,,,,,,,,,,,,,,,,,,,,,,,61678cac42a2c1fecd5e0800,001,2021-12-06_02h19.52.584,jm_natural_scene_simialrity_2-12-2021,2021.2.3,Win32,59.91611744,61678cac42a2c1fecd5e0800,61ad71e11ddd29ccf7a27d5b,61ad7335350c4d3516d9fc89,,,,,,-50,28,1,0,0,response7disk,0.9354,-16,-2,1,0,0,rectangle,-16,-2,1,0,0,-3,3,"[83,13,26,4,100,149,19,0,85,13]",-16,-2,1,0,0,0,75,75,47,1,DarkGreen,DarkGreen.jpg,Red,Red.jpg,,
,,,,,,,,,,,,,,,,,,-3,,,,,,,,,,,,,,,,,,,,,,,,,,,61678cac42a2c1fecd5e0800,001,2021-12-06_02h19.52.584,jm_natural_scene_simialrity_2-12-2021,2021.2.3,Win32,59.91611744,61678cac42a2c1fecd5e0800,61ad71e11ddd29ccf7a27d5b,61ad7335350c4d3516d9fc89,,,,,,-58,31,1,0,0,response7disk,0.8843,0,5,1,0,0,rectangle,0,5,1,0,0,-3,3,"[83,13,26,4,100,149,19,0,85,13]",0,5,1,0,0,0,76,76,63,1,DarkBlue,DarkBlue.jpg,LightGreen,LightGreen.jpg,,
,,,,,,,,,,,,,,,,,,-3,,,,,,,,,,,,,,,,,,,,,,,,,,,61678cac42a2c1fecd5e0800,001,2021-12-06_02h19.52.584,jm_natural_scene_simialrity_2-12-2021,2021.2.3,Win32,59.91611744,61678cac42a2c1fecd5e0800,61ad71e11ddd29ccf7a27d5b,61ad7335350c4d3516d9fc89,,,,,,-45,30,1,0,0,response7disk,0.5183,6,-1,1,0,0,rectangle,6,-1,1,0,0,-3,-4,"[83,13,26,4,100,149,19,0,85,13]",6,-1,1,0,0,0,77,77,41,1,DarkBlue,DarkBlue.jpg,Purple,Purple.jpg,,
,,,,,,,,,,,,,,,,,,-3,,,,,,,,,,,,,,,,,,,,,,,,,,,61678cac42a2c1fecd5e0800,001,2021-12-06_02h19.52.584,jm_natural_scene_simialrity_2-12-2021,2021.2.3,Win32,59.91611744,61678cac42a2c1fecd5e0800,61ad71e11ddd29ccf7a27d5b,61ad7335350c4d3516d9fc89,,,,,,-46,29,1,0,0,response7disk,0.5017,7,-5,1,0,0,rectangle,7,-5,1,0,0,-3,-4,"[83,13,26,4,100,149,19,0,85,13]",7,-5,1,0,0,0,78,78,20,1,LightGreen,LightGreen.jpg,LightBlue,LightBlue.jpg,,
,,,,,,,,,,,,,,,,,,-3,,,,,,,,,,,,,,,,,,,,,,,,,,,61678cac42a2c1fecd5e0800,001,2021-12-06_02h19.52.584,jm_natural_scene_simialrity_2-12-2021,2021.2.3,Win32,59.91611744,61678cac42a2c1fecd5e0800,61ad71e11ddd29ccf7a27d5b,61ad7335350c4d3516d9fc89,,,,,,-51,37,1,0,0,response7disk,0.6505,10,-9,1,0,0,rectangle,10,-9,1,0,0,-3,-4,"[83,13,26,4,100,149,19,0,85,13]",10,-9,1,0,0,0,79,79,46,1,LightGreen,LightGreen.jpg,Red,Red.jpg,,
,,,,,,,,,,,,,,,,,,3,,,,,,,,,,,,,,,,,,,,,,,,,,,61678cac42a2c1fecd5e0800,001,2021-12-06_02h19.52.584,jm_natural_scene_simialrity_2-12-2021,2021.2.3,Win32,59.91611744,61678cac42a2c1fecd5e0800,61ad71e11ddd29ccf7a27d5b,61ad7335350c4d3516d9fc89,,,,,,55,47,1,0,0,response1disk,0.7187,19,9,1,0,0,rectangle,19,9,1,0,0,-3,-1,"[83,13,26,4,100,149,19,0,85,13]",19,9,1,0,0,0,80,80,0,1,Red,Red.jpg,Red,Red.jpg,,
,,,,,,,,,,,,,,,,,,-3,,,,,,,,,,,,,,,,,,,,,,,,,,,61678cac42a2c1fecd5e0800,001,2021-12-06_02h19.52.584,jm_natural_scene_simialrity_2-12-2021,2021.2.3,Win32,59.91611744,61678cac42a2c1fecd5e0800,61ad71e11ddd29ccf7a27d5b,61ad7335350c4d3516d9fc89,,,,,,-42,41,1,0,0,response7disk,0.7685,13,4,1,0,0,rectangle,13,4,1,0,0,-3,2,"[83,13,26,4,100,149,19,0,85,13]",13,4,1,0,0,1,0,81,54,1,DarkGreen,DarkGreen.jpg,Yellow,Yellow.jpg,,
,,,,,,,,,,,,,,,,,,-3,,,,,,,,,,,,,,,,,,,,,,,,,,,61678cac42a2c1fecd5e0800,001,2021-12-06_02h19.52.584,jm_natural_scene_simialrity_2-12-2021,2021.2.3,Win32,59.91611744,61678cac42a2c1fecd5e0800,61ad71e11ddd29ccf7a27d5b,61ad7335350c4d3516d9fc89,,,,,,-47,33,1,0,0,response7disk,2.8037,1,7,1,0,0,rectangle,-74,40,1,0,0,-3,-3,"[83,13,26,4,100,149,19,0,85,13]",-10,-4,1,0,0,1,1,82,26,1,DarkGreen,DarkGreen.jpg,LightBlue,LightBlue.jpg,response7disk_3,rectangle
,,,,,,,,,,,,,,,,,,4,,,,,,,,,,,,,,,,,,,,,,,,,,,61678cac42a2c1fecd5e0800,001,2021-12-06_02h19.52.584,jm_natural_scene_simialrity_2-12-2021,2021.2.3,Win32,59.91611744,61678cac42a2c1fecd5e0800,61ad71e11ddd29ccf7a27d5b,61ad7335350c4d3516d9fc89,,,,,,44,54,1,0,0,response1disk,0.5672,8,7,1,0,0,rectangle,8,7,1,0,0,-3,3,"[83,13,26,4,100,149,19,0,85,13]",8,7,1,0,0,1,2,83,24,1,DarkGreen,DarkGreen.jpg,DarkGreen,DarkGreen.jpg,,
,,,,,,,,,,,,,,,,,,-2,,,,,,,,,,,,,,,,,,,,,,,,,,,61678cac42a2c1fecd5e0800,001,2021-12-06_02h19.52.584,jm_natural_scene_simialrity_2-12-2021,2021.2.3,Win32,59.91611744,61678cac42a2c1fecd5e0800,61ad71e11ddd29ccf7a27d5b,61ad7335350c4d3516d9fc89,,,,,,-41,-25,1,0,0,response5disk,1.5528,-2,2,1,0,0,rectangle,87,50,1,0,0,3,3,"[83,13,26,4,100,149,19,0,85,13]",3,-3,1,0,0,1,3,84,59,1,Purple,Purple.jpg,Yellow,Yellow.jpg,response1disk_3,rectangle
,,,,,,,,,,,,,,,,,,-3,,,,,,,,,,,,,,,,,,,,,,,,,,,61678cac42a2c1fecd5e0800,001,2021-12-06_02h19.52.584,jm_natural_scene_simialrity_2-12-2021,2021.2.3,Win32,59.91611744,61678cac42a2c1fecd5e0800,61ad71e11ddd29ccf7a27d5b,61ad7335350c4d3516d9fc89,,,,,,-64,49,1,0,0,response7disk,0.851,-4,10,1,0,0,rectangle,-4,10,1,0,0,3,-2,"[83,13,26,4,100,149,19,0,85,13]",-4,10,1,0,0,1,4,85,29,1,DarkGreen,DarkGreen.jpg,Purple,Purple.jpg,,
,,,,,,,,,,,,,,,,,,-3,,,,,,,,,,,,,,,,,,,,,,,,,,,61678cac42a2c1fecd5e0800,001,2021-12-06_02h19.52.584,jm_natural_scene_simialrity_2-12-2021,2021.2.3,Win32,59.91611744,61678cac42a2c1fecd5e0800,61ad71e11ddd29ccf7a27d5b,61ad7335350c4d3516d9fc89,,,,,,-64,37,1,0,0,response7disk,0.8342,-10,5,1,0,0,rectangle,-10,5,1,0,0,3,-3,"[83,13,26,4,100,149,19,0,85,13]",-10,5,1,0,0,1,5,86,36,1,LightBlue,LightBlue.jpg,DarkBlue,DarkBlue.jpg,,
,,,,,,,,,,,,,,,,,,-4,,,,,,,,,,,,,,,,,,,,,,,,,,,61678cac42a2c1fecd5e0800,001,2021-12-06_02h19.52.584,jm_natural_scene_simialrity_2-12-2021,2021.2.3,Win32,59.91611744,61678cac42a2c1fecd5e0800,61ad71e11ddd29ccf7a27d5b,61ad7335350c4d3516d9fc89,,,,,,-48,49,1,0,0,response7disk,0.5183,3,3,1,0,0,rectangle,3,3,1,0,0,3,1,"[83,13,26,4,100,149,19,0,85,13]",3,3,1,0,0,1,6,87,75,1,DarkBlue,DarkBlue.jpg,LightBlue,LightBlue.jpg,,
,,,,,,,,,,,,,,,,,,3,,,,,,,,,,,,,,,,,,,,,,,,,,,61678cac42a2c1fecd5e0800,001,2021-12-06_02h19.52.584,jm_natural_scene_simialrity_2-12-2021,2021.2.3,Win32,59.91611744,61678cac42a2c1fecd5e0800,61ad71e11ddd29ccf7a27d5b,61ad7335350c4d3516d9fc89,,,,,,58,51,1,0,0,response1disk,0.6518,-2,-5,1,0,0,rectangle,-2,-5,1,0,0,3,3,"[83,13,26,4,100,149,19,0,85,13]",-2,-5,1,0,0,1,7,88,0,1,Red,Red.jpg,Red,Red.jpg,,
,,,,,,,,,,,,,,,,,,-2,,,,,,,,,,,,,,,,,,,,,,,,,,,61678cac42a2c1fecd5e0800,001,2021-12-06_02h19.52.584,jm_natural_scene_simialrity_2-12-2021,2021.2.3,Win32,59.91611744,61678cac42a2c1fecd5e0800,61ad71e11ddd29ccf7a27d5b,61ad7335350c4d3516d9fc89,,,,,,-40,-35,1,0,0,response5disk,1.1523,-10,-16,1,0,0,rectangle,-10,-16,1,0,0,3,-1,"[83,13,26,4,100,149,19,0,85,13]",-10,-16,1,0,0,1,8,89,68,1,DarkBlue,DarkBlue.jpg,DarkGreen,DarkGreen.jpg,,
,,,,,,,,,,,,,,,,,,-3,,,,,,,,,,,,,,,,,,,,,,,,,,,61678cac42a2c1fecd5e0800,001,2021-12-06_02h19.52.584,jm_natural_scene_simialrity_2-12-2021,2021.2.3,Win32,59.91611744,61678cac42a2c1fecd5e0800,61ad71e11ddd29ccf7a27d5b,61ad7335350c4d3516d9fc89,,,,,,-56,43,1,0,0,response7disk,0.6683,-10,1,1,0,0,rectangle,-10,1,1,0,0,3,-2,"[83,13,26,4,100,149,19,0,85,13]",-10,1,1,0,0,1,9,90,56,1,LightBlue,LightBlue.jpg,Yellow,Yellow.jpg,,
,,,,,,,,,,,,,,,,,,-3,,,,,,,,,,,,,,,,,,,,,,,,,,,61678cac42a2c1fecd5e0800,001,2021-12-06_02h19.52.584,jm_natural_scene_simialrity_2-12-2021,2021.2.3,Win32,59.91611744,61678cac42a2c1fecd5e0800,61ad71e11ddd29ccf7a27d5b,61ad7335350c4d3516d9fc89,,,,,,-50,33,1,0,0,response7disk,0.7187,-2,4,1,0,0,rectangle,-2,4,1,0,0,3,-1,"[83,13,26,4,100,149,19,0,85,13]",-2,4,1,0,0,1,10,91,53,1,LightGreen,LightGreen.jpg,Yellow,Yellow.jpg,,
,,,,,,,,,,,,,,,,,,-3,,,,,,,,,,,,,,,,,,,,,,,,,,,61678cac42a2c1fecd5e0800,001,2021-12-06_02h19.52.584,jm_natural_scene_simialrity_2-12-2021,2021.2.3,Win32,59.91611744,61678cac42a2c1fecd5e0800,61ad71e11ddd29ccf7a27d5b,61ad7335350c4d3516d9fc89,,,,,,-53,43,1,0,0,response7disk,0.6007,-4,-9,1,0,0,rectangle,-4,-9,1,0,0,3,-3,"[83,13,26,4,100,149,19,0,85,13]",-4,-9,1,0,0,1,11,92,6,1,Red,Red.jpg,DarkBlue,DarkBlue.jpg,,
,,,,,,,,,,,,,,,,,,-3,,,,,,,,,,,,,,,,,,,,,,,,,,,61678cac42a2c1fecd5e0800,001,2021-12-06_02h19.52.584,jm_natural_scene_simialrity_2-12-2021,2021.2.3,Win32,59.91611744,61678cac42a2c1fecd5e0800,61ad71e11ddd29ccf7a27d5b,61ad7335350c4d3516d9fc89,,,,,,-55,31,1,0,0,response7disk,0.6017,-2,-8,1,0,0,rectangle,-2,-8,1,0,0,3,-4,"[83,13,26,4,100,149,19,0,85,13]",-2,-8,1,0,0,1,12,93,10,1,Yellow,Yellow.jpg,LightGreen,LightGreen.jpg,,
,,,,,,,,,,,,,,,,,,-3,,,,,,,,,,,,,,,,,,,,,,,,,,,61678cac42a2c1fecd5e0800,001,2021-12-06_02h19.52.584,jm_natural_scene_simialrity_2-12-2021,2021.2.3,Win32,59.91611744,61678cac42a2c1fecd5e0800,61ad71e11ddd29ccf7a27d5b,61ad7335350c4d3516d9fc89,,,,,,-46,31,1,0,0,response7disk,0.4338,-10,3,1,0,0,rectangle,-10,3,1,0,0,3,-1,"[83,13,26,4,100,149,19,0,85,13]",-10,3,1,0,0,1,13,94,23,1,LightGreen,LightGreen.jpg,Purple,Purple.jpg,,
,,,,,,,,,,,,,,,,,,-2,,,,,,,,,,,,,,,,,,,,,,,,,,,61678cac42a2c1fecd5e0800,001,2021-12-06_02h19.52.584,jm_natural_scene_simialrity_2-12-2021,2021.2.3,Win32,59.91611744,61678cac42a2c1fecd5e0800,61ad71e11ddd29ccf7a27d5b,61ad7335350c4d3516d9fc89,,,,,,-46,-35,1,0,0,response5disk,1.0355,2,1,1,0,0,rectangle,2,1,1,0,0,3,3,"[83,13,26,4,100,149,19,0,85,13]",2,1,1,0,0,1,14,95,73,1,Pink,Pink.jpg,Turquiose,Turquiose.jpg,,
,,,,,,,,,,,,,,,,,,-4,,,,,,,,,,,,,,,,,,,,,,,,,,,61678cac42a2c1fecd5e0800,001,2021-12-06_02h19.52.584,jm_natural_scene_simialrity_2-12-2021,2021.2.3,Win32,59.91611744,61678cac42a2c1fecd5e0800,61ad71e11ddd29ccf7a27d5b,61ad7335350c4d3516d9fc89,,,,,,-41,43,1,0,0,response7disk,0.6686,3,-2,1,0,0,rectangle,3,-2,1,0,0,3,-2,"[83,13,26,4,100,149,19,0,85,13]",3,-2,1,0,0,1,15,96,3,1,Red,Red.jpg,DarkGreen,DarkGreen.jpg,,
,,,,,,,,,,,,,,,,,,-3,,,,,,,,,,,,,,,,,,,,,,,,,,,61678cac42a2c1fecd5e0800,001,2021-12-06_02h19.52.584,jm_natural_scene_simialrity_2-12-2021,2021.2.3,Win32,59.91611744,61678cac42a2c1fecd5e0800,61ad71e11ddd29ccf7a27d5b,61ad7335350c4d3516d9fc89,,,,,,-43,24,1,0,0,response7disk,0.5839,-9,0,1,0,0,rectangle,-9,0,1,0,0,3,3,"[83,13,26,4,100,149,19,0,85,13]",-9,0,1,0,0,1,16,97,46,1,LightGreen,LightGreen.jpg,Red,Red.jpg,,
,,,,,,,,,,,,,,,,,,3,,,,,,,,,,,,,,,,,,,,,,,,,,,61678cac42a2c1fecd5e0800,001,2021-12-06_02h19.52.584,jm_natural_scene_simialrity_2-12-2021,2021.2.3,Win32,59.91611744,61678cac42a2c1fecd5e0800,61ad71e11ddd29ccf7a27d5b,61ad7335350c4d3516d9fc89,,,,,,59,58,1,0,0,response1disk,0.6517,4,2,1,0,0,rectangle,4,2,1,0,0,3,1,"[83,13,26,4,100,149,19,0,85,13]",4,2,1,0,0,1,17,98,44,1,Purple,Purple.jpg,Purple,Purple.jpg,,
,,,,,,,,,,,,,,,,,,-3,,,,,,,,,,,,,,,,,,,,,,,,,,,61678cac42a2c1fecd5e0800,001,2021-12-06_02h19.52.584,jm_natural_scene_simialrity_2-12-2021,2021.2.3,Win32,59.91611744,61678cac42a2c1fecd5e0800,61ad71e11ddd29ccf7a27d5b,61ad7335350c4d3516d9fc89,,,,,,-34,30,1,0,0,response7disk,0.6174,12,-12,1,0,0,rectangle,88,46,1,0,0,3,-3,"[83,13,26,4,100,149,19,0,85,13]",-11,-1,1,0,0,1,18,99,25,1,DarkGreen,DarkGreen.jpg,Turquiose,Turquiose.jpg,response1disk_3,rectangle
,,,,,,,,,,,,,,,,,,2,,,,,,,,,,,,,,,,,,,,,,,,,,,61678cac42a2c1fecd5e0800,001,2021-12-06_02h19.52.584,jm_natural_scene_simialrity_2-12-2021,2021.2.3,Win32,59.91611744,61678cac42a2c1fecd5e0800,61ad71e11ddd29ccf7a27d5b,61ad7335350c4d3516d9fc89,,,,,,83,-45,1,0,0,response3disk,2.3536,-8,-12,1,0,0,rectangle,-8,-12,1,0,0,3,3,"[83,13,26,4,100,149,19,0,85,13]",-8,-12,1,0,0,1,19,100,1,1,Red,Red.jpg,Yellow,Yellow.jpg,,
,,,,,,,,,,,,,,,,,,-3,,,,,,,,,,,,,,,,,,,,,,,,,,,61678cac42a2c1fecd5e0800,001,2021-12-06_02h19.52.584,jm_natural_scene_simialrity_2-12-2021,2021.2.3,Win32,59.91611744,61678cac42a2c1fecd5e0800,61ad71e11ddd29ccf7a27d5b,61ad7335350c4d3516d9fc89,,,,,,-54,22,1,0,0,response7disk,1.101,-2,-12,1,0,0,rectangle,-2,-12,1,0,0,3,-4,"[83,13,26,4,100,149,19,0,85,13]",-2,-12,1,0,0,1,20,101,69,1,Pink,Pink.jpg,DarkGreen,DarkGreen.jpg,,
,,,,,,,,,,,,,,,,,,-3,,,,,,,,,,,,,,,,,,,,,,,,,,,61678cac42a2c1fecd5e0800,001,2021-12-06_02h19.52.584,jm_natural_scene_simialrity_2-12-2021,2021.2.3,Win32,59.91611744,61678cac42a2c1fecd5e0800,61ad71e11ddd29ccf7a27d5b,61ad7335350c4d3516d9fc89,,,,,,-48,45,1,0,0,response7disk,0.9176,4,2,1,0,0,rectangle,4,2,1,0,0,3,-2,"[83,13,26,4,100,149,19,0,85,13]",4,2,1,0,0,1,21,102,2,1,Red,Red.jpg,LightGreen,LightGreen.jpg,,
,,,,,,,,,,,,,,,,,,-3,,,,,,,,,,,,,,,,,,,,,,,,,,,61678cac42a2c1fecd5e0800,001,2021-12-06_02h19.52.584,jm_natural_scene_simialrity_2-12-2021,2021.2.3,Win32,59.91611744,61678cac42a2c1fecd5e0800,61ad71e11ddd29ccf7a27d5b,61ad7335350c4d3516d9fc89,,,,,,-53,36,1,0,0,response7disk,0.635,-5,-1,1,0,0,rectangle,-5,-1,1,0,0,3,-4,"[83,13,26,4,100,149,19,0,85,13]",-5,-1,1,0,0,1,22,103,55,1,Turquiose,Turquiose.jpg,Yellow,Yellow.jpg,,
,,,,,,,,,,,,,,,,,,-3,,,,,,,,,,,,,,,,,,,,,,,,,,,61678cac42a2c1fecd5e0800,001,2021-12-06_02h19.52.584,jm_natural_scene_simialrity_2-12-2021,2021.2.3,Win32,59.91611744,61678cac42a2c1fecd5e0800,61ad71e11ddd29ccf7a27d5b,61ad7335350c4d3516d9fc89,,,,,,-43,30,1,0,0,response7disk,0.7018,-4,2,1,0,0,rectangle,-4,2,1,0,0,3,-3,"[83,13,26,4,100,149,19,0,85,13]",-4,2,1,0,0,1,23,104,80,1,Purple,Purple.jpg,Pink,Pink.jpg,,
,,,,,,,,,,,,,,,,,,3,,,,,,,,,,,,,,,,,,,,,,,,,,,61678cac42a2c1fecd5e0800,001,2021-12-06_02h19.52.584,jm_natural_scene_simialrity_2-12-2021,2021.2.3,Win32,59.91611744,61678cac42a2c1fecd5e0800,61ad71e11ddd29ccf7a27d5b,61ad7335350c4d3516d9fc89,,,,,,71,52,1,0,0,response1disk,0.7017,7,0,1,0,0,rectangle,7,0,1,0,0,3,2,"[83,13,26,4,100,149,19,0,85,13]",7,0,1,0,0,1,24,105,42,1,Pink,Pink.jpg,Pink,Pink.jpg,,
,,,,,,,,,,,,,,,,,,3,,,,,,,,,,,,,,,,,,,,,,,,,,,61678cac42a2c1fecd5e0800,001,2021-12-06_02h19.52.584,jm_natural_scene_simialrity_2-12-2021,2021.2.3,Win32,59.91611744,61678cac42a2c1fecd5e0800,61ad71e11ddd29ccf7a27d5b,61ad7335350c4d3516d9fc89,,,,,,59,42,1,0,0,response1disk,0.8175,0,-2,1,0,0,rectangle,0,-2,1,0,0,3,-3,"[83,13,26,4,100,149,19,0,85,13]",0,-2,1,0,0,1,25,106,39,1,DarkBlue,DarkBlue.jpg,DarkBlue,DarkBlue.jpg,,
,,,,,,,,,,,,,,,,,,-3,,,,,,,,,,,,,,,,,,,,,,,,,,,61678cac42a2c1fecd5e0800,001,2021-12-06_02h19.52.584,jm_natural_scene_simialrity_2-12-2021,2021.2.3,Win32,59.91611744,61678cac42a2c1fecd5e0800,61ad71e11ddd29ccf7a27d5b,61ad7335350c4d3516d9fc89,,,,,,-34,31,1,0,0,response7disk,0.6507,4,-1,1,0,0,rectangle,4,-1,1,0,0,3,3,"[83,13,26,4,100,149,19,0,85,13]",4,-1,1,0,0,1,26,107,12,1,Yellow,Yellow.jpg,Turquiose,Turquiose.jpg,,
,,,,,,,,,,,,,,,,,,-3,,,,,,,,,,,,,,,,,,,,,,,,,,,61678cac42a2c1fecd5e0800,001,2021-12-06_02h19.52.584,jm_natural_scene_simialrity_2-12-2021,2021.2.3,Win32,59.91611744,61678cac42a2c1fecd5e0800,61ad71e11ddd29ccf7a27d5b,61ad7335350c4d3516d9fc89,,,,,,-51,33,1,0,0,response7disk,0.5017,-1,0,1,0,0,rectangle,-1,0,1,0,0,3,-1,"[83,13,26,4,100,149,19,0,85,13]",-1,0,1,0,0,1,27,108,57,1,DarkBlue,DarkBlue.jpg,Yellow,Yellow.jpg,,
,,,,,,,,,,,,,,,,,,3,,,,,,,,,,,,,,,,,,,,,,,,,,,61678cac42a2c1fecd5e0800,001,2021-12-06_02h19.52.584,jm_natural_scene_simialrity_2-12-2021,2021.2.3,Win32,59.91611744,61678cac42a2c1fecd5e0800,61ad71e11ddd29ccf7a27d5b,61ad7335350c4d3516d9fc89,,,,,,59,49,1,0,0,response1disk,0.6352,6,-4,1,0,0,rectangle,6,-4,1,0,0,3,-3,"[83,13,26,4,100,149,19,0,85,13]",6,-4,1,0,0,1,28,109,35,1,LightBlue,LightBlue.jpg,LightBlue,LightBlue.jpg,,
,,,,,,,,,,,,,,,,,,2,,,,,,,,,,,,,,,,,,,,,,,,,,,61678cac42a2c1fecd5e0800,001,2021-12-06_02h19.52.584,jm_natural_scene_simialrity_2-12-2021,2021.2.3,Win32,59.91611744,61678cac42a2c1fecd5e0800,61ad71e11ddd29ccf7a27d5b,61ad7335350c4d3516d9fc89,,,,,,54,-37,1,0,0,response3disk,0.8187,-7,4,1,0,0,rectangle,-7,4,1,0,0,3,3,"[83,13,26,4,100,149,19,0,85,13]",-7,4,1,0,0,1,29,110,38,1,LightBlue,LightBlue.jpg,Purple,Purple.jpg,,
,,,,,,,,,,,,,,,,,,2,,,,,,,,,,,,,,,,,,,,,,,,,,,61678cac42a2c1fecd5e0800,001,2021-12-06_02h19.52.584,jm_natural_scene_simialrity_2-12-2021,2021.2.3,Win32,59.91611744,61678cac42a2c1fecd5e0800,61ad71e11ddd29ccf7a27d5b,61ad7335350c4d3516d9fc89,,,,,,63,-45,1,0,0,response3disk,1.4026,-4,-10,1,0,0,rectangle,-4,-10,1,0,0,3,-2,"[83,13,26,4,100,149,19,0,85,13]",-4,-10,1,0,0,1,30,111,18,1,LightGreen,LightGreen.jpg,DarkGreen,DarkGreen.jpg,,
,,,,,,,,,,,,,,,,,,-4,,,,,,,,,,,,,,,,,,,,,,,,,,,61678cac42a2c1fecd5e0800,001,2021-12-06_02h19.52.584,jm_natural_scene_simialrity_2-12-2021,2021.2.3,Win32,59.91611744,61678cac42a2c1fecd5e0800,61ad71e11ddd29ccf7a27d5b,61ad7335350c4d3516d9fc89,,,,,,-31,52,1,0,0,response7disk,0.8687,8,20,1,0,0,rectangle,8,20,1,0,0,3,-2,"[83,13,26,4,100,149,19,0,85,13]",8,20,1,0,0,1,31,112,34,1,Turquiose,Turquiose.jpg,Purple,Purple.jpg,,
,,,,,,,,,,,,,,,,,,-3,,,,,,,,,,,,,,,,,,,,,,,,,,,61678cac42a2c1fecd5e0800,001,2021-12-06_02h19.52.584,jm_natural_scene_simialrity_2-12-2021,2021.2.3,Win32,59.91611744,61678cac42a2c1fecd5e0800,61ad71e11ddd29ccf7a27d5b,61ad7335350c4d3516d9fc89,,,,,,-47,37,1,0,0,response7disk,0.5185,-8,12,1,0,0,rectangle,-8,12,1,0,0,3,-1,"[83,13,26,4,100,149,19,0,85,13]",-8,12,1,0,0,1,32,113,13,1,Yellow,Yellow.jpg,LightBlue,LightBlue.jpg,,
,,,,,,,,,,,,,,,,,,-3,,,,,,,,,,,,,,,,,,,,,,,,,,,61678cac42a2c1fecd5e0800,001,2021-12-06_02h19.52.584,jm_natural_scene_simialrity_2-12-2021,2021.2.3,Win32,59.91611744,61678cac42a2c1fecd5e0800,61ad71e11ddd29ccf7a27d5b,61ad7335350c4d3516d9fc89,,,,,,-41,27,1,0,0,response7disk,0.4852,-5,2,1,0,0,rectangle,-5,2,1,0,0,3,-2,"[83,13,26,4,100,149,19,0,85,13]",-5,2,1,0,0,1,33,114,79,1,Purple,Purple.jpg,DarkBlue,DarkBlue.jpg,,
,,,,,,,,,,,,,,,,,,3,,,,,,,,,,,,,,,,,,,,,,,,,,,61678cac42a2c1fecd5e0800,001,2021-12-06_02h19.52.584,jm_natural_scene_simialrity_2-12-2021,2021.2.3,Win32,59.91611744,61678cac42a2c1fecd5e0800,61ad71e11ddd29ccf7a27d5b,61ad7335350c4d3516d9fc89,,,,,,52,51,1,0,0,response1disk,0.5839,6,9,1,0,0,rectangle,6,9,1,0,0,3,-4,"[83,13,26,4,100,149,19,0,85,13]",6,9,1,0,0,1,34,115,17,1,LightGreen,LightGreen.jpg,LightGreen,LightGreen.jpg,,
,,,,,,,,,,,,,,,,,,-1,,,,,,,,,,,,,,,,,,,,,,,,,,,61678cac42a2c1fecd5e0800,001,2021-12-06_02h19.52.584,jm_natural_scene_simialrity_2-12-2021,2021.2.3,Win32,59.91611744,61678cac42a2c1fecd5e0800,61ad71e11ddd29ccf7a27d5b,61ad7335350c4d3516d9fc89,,,,,,-53,-53,1,0,0,response5disk,1.8365,-12,5,1,0,0,rectangle,-12,5,1,0,0,3,-4,"[83,13,26,4,100,149,19,0,85,13]",-12,5,1,0,0,1,35,116,41,1,DarkBlue,DarkBlue.jpg,Purple,Purple.jpg,,
,,,,,,,,,,,,,,,,,,-3,,,,,,,,,,,,,,,,,,,,,,,,,,,61678cac42a2c1fecd5e0800,001,2021-12-06_02h19.52.584,jm_natural_scene_simialrity_2-12-2021,2021.2.3,Win32,59.91611744,61678cac42a2c1fecd5e0800,61ad71e11ddd29ccf7a27d5b,61ad7335350c4d3516d9fc89,,,,,,-53,48,1,0,0,response7disk,2.0532,-3,5,1,0,0,rectangle,-3,5,1,0,0,3,-4,"[83,13,26,4,100,149,19,0,85,13]",-3,5,1,0,0,1,36,117,8,1,Red,Red.jpg,Purple,Purple.jpg,,
,,,,,,,,,,,,,,,,,,-3,,,,,,,,,,,,,,,,,,,,,,,,,,,61678cac42a2c1fecd5e0800,001,2021-12-06_02h19.52.584,jm_natural_scene_simialrity_2-12-2021,2021.2.3,Win32,59.91611744,61678cac42a2c1fecd5e0800,61ad71e11ddd29ccf7a27d5b,61ad7335350c4d3516d9fc89,,,,,,-42,33,1,0,0,response7disk,0.4838,0,-3,1,0,0,rectangle,0,-3,1,0,0,3,3,"[83,13,26,4,100,149,19,0,85,13]",0,-3,1,0,0,1,37,118,20,1,LightGreen,LightGreen.jpg,LightBlue,LightBlue.jpg,,
,,,,,,,,,,,,,,,,,,-3,,,,,,,,,,,,,,,,,,,,,,,,,,,61678cac42a2c1fecd5e0800,001,2021-12-06_02h19.52.584,jm_natural_scene_simialrity_2-12-2021,2021.2.3,Win32,59.91611744,61678cac42a2c1fecd5e0800,61ad71e11ddd29ccf7a27d5b,61ad7335350c4d3516d9fc89,,,,,,-33,33,1,0,0,response7disk,0.435,2,3,1,0,0,rectangle,2,3,1,0,0,3,-2,"[83,13,26,4,100,149,19,0,85,13]",2,3,1,0,0,1,38,119,62,1,LightBlue,LightBlue.jpg,LightGreen,LightGreen.jpg,,
,,,,,,,,,,,,,,,,,,-3,,,,,,,,,,,,,,,,,,,,,,,,,,,61678cac42a2c1fecd5e0800,001,2021-12-06_02h19.52.584,jm_natural_scene_simialrity_2-12-2021,2021.2.3,Win32,59.91611744,61678cac42a2c1fecd5e0800,61ad71e11ddd29ccf7a27d5b,61ad7335350c4d3516d9fc89,,,,,,-45,32,1,0,0,response7disk,0.5016,-12,2,1,0,0,rectangle,-12,2,1,0,0,3,-4,"[83,13,26,4,100,149,19,0,85,13]",-12,2,1,0,0,1,39,120,11,1,Yellow,Yellow.jpg,DarkGreen,DarkGreen.jpg,,
,,,,,,,,,,,,,,,,,,-3,,,,,,,,,,,,,,,,,,,,,,,,,,,61678cac42a2c1fecd5e0800,001,2021-12-06_02h19.52.584,jm_natural_scene_simialrity_2-12-2021,2021.2.3,Win32,59.91611744,61678cac42a2c1fecd5e0800,61ad71e11ddd29ccf7a27d5b,61ad7335350c4d3516d9fc89,,,,,,-43,28,1,0,0,response7disk,0.4683,-5,-7,1,0,0,rectangle,-5,-7,1,0,0,3,-2,"[83,13,26,4,100,149,19,0,85,13]",-5,-7,1,0,0,1,40,121,66,1,Turquiose,Turquiose.jpg,DarkGreen,DarkGreen.jpg,,
,,,,,,,,,,,,,,,,,,-3,,,,,,,,,,,,,,,,,,,,,,,,,,,61678cac42a2c1fecd5e0800,001,2021-12-06_02h19.52.584,jm_natural_scene_simialrity_2-12-2021,2021.2.3,Win32,59.91611744,61678cac42a2c1fecd5e0800,61ad71e11ddd29ccf7a27d5b,61ad7335350c4d3516d9fc89,,,,,,-41,31,1,0,0,response7disk,0.4516,2,-6,1,0,0,rectangle,2,-6,1,0,0,3,-1,"[83,13,26,4,100,149,19,0,85,13]",2,-6,1,0,0,1,41,122,43,1,Pink,Pink.jpg,Purple,Purple.jpg,,
,,,,,,,,,,,,,,,,,,-3,,,,,,,,,,,,,,,,,,,,,,,,,,,61678cac42a2c1fecd5e0800,001,2021-12-06_02h19.52.584,jm_natural_scene_simialrity_2-12-2021,2021.2.3,Win32,59.91611744,61678cac42a2c1fecd5e0800,61ad71e11ddd29ccf7a27d5b,61ad7335350c4d3516d9fc89,,,,,,-42,32,1,0,0,response7disk,0.484,2,1,1,0,0,rectangle,2,1,1,0,0,3,-4,"[83,13,26,4,100,149,19,0,85,13]",2,1,1,0,0,1,42,123,63,1,DarkBlue,DarkBlue.jpg,LightGreen,LightGreen.jpg,,
,,,,,,,,,,,,,,,,,,-3,,,,,,,,,,,,,,,,,,,,,,,,,,,61678cac42a2c1fecd5e0800,001,2021-12-06_02h19.52.584,jm_natural_scene_simialrity_2-12-2021,2021.2.3,Win32,59.91611744,61678cac42a2c1fecd5e0800,61ad71e11ddd29ccf7a27d5b,61ad7335350c4d3516d9fc89,,,,,,-45,38,1,0,0,response7disk,0.4349,5,-1,1,0,0,rectangle,5,-1,1,0,0,3,-2,"[83,13,26,4,100,149,19,0,85,13]",5,-1,1,0,0,1,43,124,32,1,Turquiose,Turquiose.jpg,DarkBlue,DarkBlue.jpg,,
,,,,,,,,,,,,,,,,,,-3,,,,,,,,,,,,,,,,,,,,,,,,,,,61678cac42a2c1fecd5e0800,001,2021-12-06_02h19.52.584,jm_natural_scene_simialrity_2-12-2021,2021.2.3,Win32,59.91611744,61678cac42a2c1fecd5e0800,61ad71e11ddd29ccf7a27d5b,61ad7335350c4d3516d9fc89,,,,,,-42,34,1,0,0,response7disk,0.4848,-6,5,1,0,0,rectangle,-6,5,1,0,0,3,-4,"[83,13,26,4,100,149,19,0,85,13]",-6,5,1,0,0,1,44,125,19,1,LightGreen,LightGreen.jpg,Turquiose,Turquiose.jpg,,
,,,,,,,,,,,,,,,,,,-4,,,,,,,,,,,,,,,,,,,,,,,,,,,61678cac42a2c1fecd5e0800,001,2021-12-06_02h19.52.584,jm_natural_scene_simialrity_2-12-2021,2021.2.3,Win32,59.91611744,61678cac42a2c1fecd5e0800,61ad71e11ddd29ccf7a27d5b,61ad7335350c4d3516d9fc89,,,,,,-38,39,1,0,0,response7disk,0.5018,2,3,1,0,0,rectangle,2,3,1,0,0,3,-3,"[83,13,26,4,100,149,19,0,85,13]",2,3,1,0,0,1,45,126,74,1,Purple,Purple.jpg,Turquiose,Turquiose.jpg,,
,,,,,,,,,,,,,,,,,,-3,,,,,,,,,,,,,,,,,,,,,,,,,,,61678cac42a2c1fecd5e0800,001,2021-12-06_02h19.52.584,jm_natural_scene_simialrity_2-12-2021,2021.2.3,Win32,59.91611744,61678cac42a2c1fecd5e0800,61ad71e11ddd29ccf7a27d5b,61ad7335350c4d3516d9fc89,,,,,,-41,32,1,0,0,response7disk,0.4683,-1,-3,1,0,0,rectangle,-1,-3,1,0,0,3,-3,"[83,13,26,4,100,149,19,0,85,13]",-1,-3,1,0,0,1,46,127,28,1,DarkGreen,DarkGreen.jpg,Pink,Pink.jpg,,
,,,,,,,,,,,,,,,,,,-3,,,,,,,,,,,,,,,,,,,,,,,,,,,61678cac42a2c1fecd5e0800,001,2021-12-06_02h19.52.584,jm_natural_scene_simialrity_2-12-2021,2021.2.3,Win32,59.91611744,61678cac42a2c1fecd5e0800,61ad71e11ddd29ccf7a27d5b,61ad7335350c4d3516d9fc89,,,,,,-53,35,1,0,0,response7disk,0.4349,-6,2,1,0,0,rectangle,-6,2,1,0,0,3,-4,"[83,13,26,4,100,149,19,0,85,13]",-6,2,1,0,0,1,47,128,50,1,DarkBlue,DarkBlue.jpg,Red,Red.jpg,,
,,,,,,,,,,,,,,,,,,-3,,,,,,,,,,,,,,,,,,,,,,,,,,,61678cac42a2c1fecd5e0800,001,2021-12-06_02h19.52.584,jm_natural_scene_simialrity_2-12-2021,2021.2.3,Win32,59.91611744,61678cac42a2c1fecd5e0800,61ad71e11ddd29ccf7a27d5b,61ad7335350c4d3516d9fc89,,,,,,-50,34,1,0,0,response7disk,0.4004,-6,1,1,0,0,rectangle,-6,1,1,0,0,3,-1,"[83,13,26,4,100,149,19,0,85,13]",-6,1,1,0,0,1,48,129,27,1,DarkGreen,DarkGreen.jpg,DarkBlue,DarkBlue.jpg,,
,,,,,,,,,,,,,,,,,,-3,,,,,,,,,,,,,,,,,,,,,,,,,,,61678cac42a2c1fecd5e0800,001,2021-12-06_02h19.52.584,jm_natural_scene_simialrity_2-12-2021,2021.2.3,Win32,59.91611744,61678cac42a2c1fecd5e0800,61ad71e11ddd29ccf7a27d5b,61ad7335350c4d3516d9fc89,,,,,,-39,34,1,0,0,response7disk,0.4682,3,-6,1,0,0,rectangle,3,-6,1,0,0,3,3,"[83,13,26,4,100,149,19,0,85,13]",3,-6,1,0,0,1,49,130,64,1,Pink,Pink.jpg,LightGreen,LightGreen.jpg,,
,,,,,,,,,,,,,,,,,,-3,,,,,,,,,,,,,,,,,,,,,,,,,,,61678cac42a2c1fecd5e0800,001,2021-12-06_02h19.52.584,jm_natural_scene_simialrity_2-12-2021,2021.2.3,Win32,59.91611744,61678cac42a2c1fecd5e0800,61ad71e11ddd29ccf7a27d5b,61ad7335350c4d3516d9fc89,,,,,,-35,35,1,0,0,response7disk,0.4672,13,-6,1,0,0,rectangle,13,-6,1,0,0,3,-4,"[83,13,26,4,100,149,19,0,85,13]",13,-6,1,0,0,1,50,131,4,1,Red,Red.jpg,Turquiose,Turquiose.jpg,,
,,,,,,,,,,,,,,,,,,-3,,,,,,,,,,,,,,,,,,,,,,,,,,,61678cac42a2c1fecd5e0800,001,2021-12-06_02h19.52.584,jm_natural_scene_simialrity_2-12-2021,2021.2.3,Win32,59.91611744,61678cac42a2c1fecd5e0800,61ad71e11ddd29ccf7a27d5b,61ad7335350c4d3516d9fc89,,,,,,-62,43,1,0,0,response7disk,0.4671,-5,-9,1,0,0,rectangle,-5,-9,1,0,0,3,3,"[83,13,26,4,100,149,19,0,85,13]",-5,-9,1,0,0,1,51,132,16,1,Yellow,Yellow.jpg,Purple,Purple.jpg,,
,,,,,,,,,,,,,,,,,,-4,,,,,,,,,,,,,,,,,,,,,,,,,,,61678cac42a2c1fecd5e0800,001,2021-12-06_02h19.52.584,jm_natural_scene_simialrity_2-12-2021,2021.2.3,Win32,59.91611744,61678cac42a2c1fecd5e0800,61ad71e11ddd29ccf7a27d5b,61ad7335350c4d3516d9fc89,,,,,,-37,49,1,0,0,response7disk,0.7842,6,1,1,0,0,rectangle,6,1,1,0,0,3,-2,"[83,13,26,4,100,149,19,0,85,13]",6,1,1,0,0,1,52,133,70,1,Purple,Purple.jpg,DarkGreen,DarkGreen.jpg,,
,,,,,,,,,,,,,,,,,,-3,,,,,,,,,,,,,,,,,,,,,,,,,,,61678cac42a2c1fecd5e0800,001,2021-12-06_02h19.52.584,jm_natural_scene_simialrity_2-12-2021,2021.2.3,Win32,59.91611744,61678cac42a2c1fecd5e0800,61ad71e11ddd29ccf7a27d5b,61ad7335350c4d3516d9fc89,,,,,,-41,35,1,0,0,response7disk,0.534,7,-6,1,0,0,rectangle,7,-6,1,0,0,3,1,"[83,13,26,4,100,149,19,0,85,13]",7,-6,1,0,0,1,53,134,37,1,LightBlue,LightBlue.jpg,Pink,Pink.jpg,,
,,,,,,,,,,,,,,,,,,-3,,,,,,,,,,,,,,,,,,,,,,,,,,,61678cac42a2c1fecd5e0800,001,2021-12-06_02h19.52.584,jm_natural_scene_simialrity_2-12-2021,2021.2.3,Win32,59.91611744,61678cac42a2c1fecd5e0800,61ad71e11ddd29ccf7a27d5b,61ad7335350c4d3516d9fc89,,,,,,-46,29,1,0,0,response7disk,0.5017,-7,-5,1,0,0,rectangle,-7,-5,1,0,0,3,-1,"[83,13,26,4,100,149,19,0,85,13]",-7,-5,1,0,0,1,54,135,49,1,LightBlue,LightBlue.jpg,Red,Red.jpg,,
,,,,,,,,,,,,,,,,,,-3,,,,,,,,,,,,,,,,,,,,,,,,,,,61678cac42a2c1fecd5e0800,001,2021-12-06_02h19.52.584,jm_natural_scene_simialrity_2-12-2021,2021.2.3,Win32,59.91611744,61678cac42a2c1fecd5e0800,61ad71e11ddd29ccf7a27d5b,61ad7335350c4d3516d9fc89,,,,,,-51,28,1,0,0,response7disk,0.485,6,-9,1,0,0,rectangle,6,-9,1,0,0,3,-3,"[83,13,26,4,100,149,19,0,85,13]",6,-9,1,0,0,1,55,136,33,1,Turquiose,Turquiose.jpg,Pink,Pink.jpg,,
,,,,,,,,,,,,,,,,,,-3,,,,,,,,,,,,,,,,,,,,,,,,,,,61678cac42a2c1fecd5e0800,001,2021-12-06_02h19.52.584,jm_natural_scene_simialrity_2-12-2021,2021.2.3,Win32,59.91611744,61678cac42a2c1fecd5e0800,61ad71e11ddd29ccf7a27d5b,61ad7335350c4d3516d9fc89,,,,,,-41,37,1,0,0,response7disk,0.5349,-3,-2,1,0,0,rectangle,-3,-2,1,0,0,3,-3,"[83,13,26,4,100,149,19,0,85,13]",-3,-2,1,0,0,1,56,137,67,1,LightBlue,LightBlue.jpg,DarkGreen,DarkGreen.jpg,,
,,,,,,,,,,,,,,,,,,-3,,,,,,,,,,,,,,,,,,,,,,,,,,,61678cac42a2c1fecd5e0800,001,2021-12-06_02h19.52.584,jm_natural_scene_simialrity_2-12-2021,2021.2.3,Win32,59.91611744,61678cac42a2c1fecd5e0800,61ad71e11ddd29ccf7a27d5b,61ad7335350c4d3516d9fc89,,,,,,-38,34,1,0,0,response7disk,0.5182,-2,-4,1,0,0,rectangle,-2,-4,1,0,0,3,-3,"[83,13,26,4,100,149,19,0,85,13]",-2,-4,1,0,0,1,57,138,48,1,Turquiose,Turquiose.jpg,Red,Red.jpg,,
,,,,,,,,,,,,,,,,,,-3,,,,,,,,,,,,,,,,,,,,,,,,,,,61678cac42a2c1fecd5e0800,001,2021-12-06_02h19.52.584,jm_natural_scene_simialrity_2-12-2021,2021.2.3,Win32,59.91611744,61678cac42a2c1fecd5e0800,61ad71e11ddd29ccf7a27d5b,61ad7335350c4d3516d9fc89,,,,,,-47,38,1,0,0,response7disk,0.5673,-6,-3,1,0,0,rectangle,-6,-3,1,0,0,3,-4,"[83,13,26,4,100,149,19,0,85,13]",-6,-3,1,0,0,1,58,139,72,1,DarkBlue,DarkBlue.jpg,Turquiose,Turquiose.jpg,,
,,,,,,,,,,,,,,,,,,-3,,,,,,,,,,,,,,,,,,,,,,,,,,,61678cac42a2c1fecd5e0800,001,2021-12-06_02h19.52.584,jm_natural_scene_simialrity_2-12-2021,2021.2.3,Win32,59.91611744,61678cac42a2c1fecd5e0800,61ad71e11ddd29ccf7a27d5b,61ad7335350c4d3516d9fc89,,,,,,-43,33,1,0,0,response7disk,0.5351,-9,7,1,0,0,rectangle,-9,7,1,0,0,3,-4,"[83,13,26,4,100,149,19,0,85,13]",-9,7,1,0,0,1,59,140,52,1,Purple,Purple.jpg,Red,Red.jpg,,
,,,,,,,,,,,,,,,,,,-4,,,,,,,,,,,,,,,,,,,,,,,,,,,61678cac42a2c1fecd5e0800,001,2021-12-06_02h19.52.584,jm_natural_scene_simialrity_2-12-2021,2021.2.3,Win32,59.91611744,61678cac42a2c1fecd5e0800,61ad71e11ddd29ccf7a27d5b,61ad7335350c4d3516d9fc89,,,,,,-37,46,1,0,0,response7disk,0.4515,4,-4,1,0,0,rectangle,4,-4,1,0,0,3,3,"[83,13,26,4,100,149,19,0,85,13]",4,-4,1,0,0,1,60,141,77,1,Purple,Purple.jpg,LightBlue,LightBlue.jpg,,
,,,,,,,,,,,,,,,,,,4,,,,,,,,,,,,,,,,,,,,,,,,,,,61678cac42a2c1fecd5e0800,001,2021-12-06_02h19.52.584,jm_natural_scene_simialrity_2-12-2021,2021.2.3,Win32,59.91611744,61678cac42a2c1fecd5e0800,61ad71e11ddd29ccf7a27d5b,61ad7335350c4d3516d9fc89,,,,,,49,51,1,0,0,response1disk,0.785,6,-6,1,0,0,rectangle,6,-6,1,0,0,3,-4,"[83,13,26,4,100,149,19,0,85,13]",6,-6,1,0,0,1,61,142,30,1,Turquiose,Turquiose.jpg,Turquiose,Turquiose.jpg,,
,,,,,,,,,,,,,,,,,,-4,,,,,,,,,,,,,,,,,,,,,,,,,,,61678cac42a2c1fecd5e0800,001,2021-12-06_02h19.52.584,jm_natural_scene_simialrity_2-12-2021,2021.2.3,Win32,59.91611744,61678cac42a2c1fecd5e0800,61ad71e11ddd29ccf7a27d5b,61ad7335350c4d3516d9fc89,,,,,,-33,47,1,0,0,response7disk,0.634,13,2,1,0,0,rectangle,13,2,1,0,0,3,3,"[83,13,26,4,100,149,19,0,85,13]",13,2,1,0,0,1,62,143,78,1,Pink,Pink.jpg,DarkBlue,DarkBlue.jpg,,
,,,,,,,,,,,,,,,,,,-4,,,,,,,,,,,,,,,,,,,,,,,,,,,61678cac42a2c1fecd5e0800,001,2021-12-06_02h19.52.584,jm_natural_scene_simialrity_2-12-2021,2021.2.3,Win32,59.91611744,61678cac42a2c1fecd5e0800,61ad71e11ddd29ccf7a27d5b,61ad7335350c4d3516d9fc89,,,,,,-30,42,1,0,0,response7disk,0.4337,14,-7,1,0,0,rectangle,14,-7,1,0,0,3,-4,"[83,13,26,4,100,149,19,0,85,13]",14,-7,1,0,0,1,63,144,76,1,Pink,Pink.jpg,LightBlue,LightBlue.jpg,,
,,,,,,,,,,,,,,,,,,2,,,,,,,,,,,,,,,,,,,,,,,,,,,61678cac42a2c1fecd5e0800,001,2021-12-06_02h19.52.584,jm_natural_scene_simialrity_2-12-2021,2021.2.3,Win32,59.91611744,61678cac42a2c1fecd5e0800,61ad71e11ddd29ccf7a27d5b,61ad7335350c4d3516d9fc89,,,,,,42,-41,1,0,0,response3disk,1.3181,-2,-24,1,0,0,rectangle,-2,-24,1,0,0,3,-4,"[83,13,26,4,100,149,19,0,85,13]",-2,-24,1,0,0,1,64,145,45,1,Yellow,Yellow.jpg,Red,Red.jpg,,
,,,,,,,,,,,,,,,,,,-4,,,,,,,,,,,,,,,,,,,,,,,,,,,61678cac42a2c1fecd5e0800,001,2021-12-06_02h19.52.584,jm_natural_scene_simialrity_2-12-2021,2021.2.3,Win32,59.91611744,61678cac42a2c1fecd5e0800,61ad71e11ddd29ccf7a27d5b,61ad7335350c4d3516d9fc89,,,,,,-38,45,1,0,0,response7disk,0.5342,20,1,1,0,0,rectangle,20,1,1,0,0,3,1,"[83,13,26,4,100,149,19,0,85,13]",20,1,1,0,0,1,65,146,40,1,DarkBlue,DarkBlue.jpg,Pink,Pink.jpg,,
,,,,,,,,,,,,,,,,,,-3,,,,,,,,,,,,,,,,,,,,,,,,,,,61678cac42a2c1fecd5e0800,001,2021-12-06_02h19.52.584,jm_natural_scene_simialrity_2-12-2021,2021.2.3,Win32,59.91611744,61678cac42a2c1fecd5e0800,61ad71e11ddd29ccf7a27d5b,61ad7335350c4d3516d9fc89,,,,,,-48,36,1,0,0,response7disk,0.5851,2,1,1,0,0,rectangle,2,1,1,0,0,3,1,"[83,13,26,4,100,149,19,0,85,13]",2,1,1,0,0,1,66,147,51,1,Pink,Pink.jpg,Red,Red.jpg,,
,,,,,,,,,,,,,,,,,,2,,,,,,,,,,,,,,,,,,,,,,,,,,,61678cac42a2c1fecd5e0800,001,2021-12-06_02h19.52.584,jm_natural_scene_simialrity_2-12-2021,2021.2.3,Win32,59.91611744,61678cac42a2c1fecd5e0800,61ad71e11ddd29ccf7a27d5b,61ad7335350c4d3516d9fc89,,,,,,75,-41,1,0,0,response3disk,1.1023,17,8,1,0,0,rectangle,-101,-44,1,0,0,3,-2,"[83,13,26,4,100,149,19,0,85,13]",5,-6,1,0,0,1,67,148,7,1,Red,Red.jpg,Pink,Pink.jpg,response5disk_3,rectangle
,,,,,,,,,,,,,,,,,,3,,,,,,,,,,,,,,,,,,,,,,,,,,,61678cac42a2c1fecd5e0800,001,2021-12-06_02h19.52.584,jm_natural_scene_simialrity_2-12-2021,2021.2.3,Win32,59.91611744,61678cac42a2c1fecd5e0800,61ad71e11ddd29ccf7a27d5b,61ad7335350c4d3516d9fc89,,,,,,58,43,1,0,0,response1disk,0.7341,-6,-14,1,0,0,rectangle,-6,-14,1,0,0,3,2,"[83,13,26,4,100,149,19,0,85,13]",-6,-14,1,0,0,1,68,149,9,1,Yellow,Yellow.jpg,Yellow,Yellow.jpg,,
,,,,,,,,,,,,,,,,,,2,,,,,,,,,,,,,,,,,,,,,,,,,,,61678cac42a2c1fecd5e0800,001,2021-12-06_02h19.52.584,jm_natural_scene_simialrity_2-12-2021,2021.2.3,Win32,59.91611744,61678cac42a2c1fecd5e0800,61ad71e11ddd29ccf7a27d5b,61ad7335350c4d3516d9fc89,,,,,,67,-54,1,0,0,response3disk,0.6853,-15,-6,1,0,0,rectangle,-15,-6,1,0,0,3,-1,"[83,13,26,4,100,149,19,0,85,13]",-15,-6,1,0,0,1,69,150,58,1,Pink,Pink.jpg,Yellow,Yellow.jpg,,
,,,,,,,,,,,,,,,,,,-3,,,,,,,,,,,,,,,,,,,,,,,,,,,61678cac42a2c1fecd5e0800,001,2021-12-06_02h19.52.584,jm_natural_scene_simialrity_2-12-2021,2021.2.3,Win32,59.91611744,61678cac42a2c1fecd5e0800,61ad71e11ddd29ccf7a27d5b,61ad7335350c4d3516d9fc89,,,,,,-52,29,1,0,0,response7disk,0.8175,-5,0,1,0,0,rectangle,-5,0,1,0,0,3,2,"[83,13,26,4,100,149,19,0,85,13]",-5,0,1,0,0,1,70,151,21,1,LightGreen,LightGreen.jpg,DarkBlue,DarkBlue.jpg,,
,,,,,,,,,,,,,,,,,,-3,,,,,,,,,,,,,,,,,,,,,,,,,,,61678cac42a2c1fecd5e0800,001,2021-12-06_02h19.52.584,jm_natural_scene_simialrity_2-12-2021,2021.2.3,Win32,59.91611744,61678cac42a2c1fecd5e0800,61ad71e11ddd29ccf7a27d5b,61ad7335350c4d3516d9fc89,,,,,,-41,29,1,0,0,response7disk,0.6185,1,-7,1,0,0,rectangle,1,-7,1,0,0,3,1,"[83,13,26,4,100,149,19,0,85,13]",1,-7,1,0,0,1,71,152,47,1,DarkGreen,DarkGreen.jpg,Red,Red.jpg,,
,,,,,,,,,,,,,,,,,,-1,,,,,,,,,,,,,,,,,,,,,,,,,,,61678cac42a2c1fecd5e0800,001,2021-12-06_02h19.52.584,jm_natural_scene_simialrity_2-12-2021,2021.2.3,Win32,59.91611744,61678cac42a2c1fecd5e0800,61ad71e11ddd29ccf7a27d5b,61ad7335350c4d3516d9fc89,,,,,,-25,-38,1,0,0,response5disk,1.0022,3,-5,1,0,0,rectangle,3,-5,1,0,0,3,-2,"[83,13,26,4,100,149,19,0,85,13]",3,-5,1,0,0,1,72,153,31,1,Turquiose,Turquiose.jpg,LightBlue,LightBlue.jpg,,
,,,,,,,,,,,,,,,,,,2,,,,,,,,,,,,,,,,,,,,,,,,,,,61678cac42a2c1fecd5e0800,001,2021-12-06_02h19.52.584,jm_natural_scene_simialrity_2-12-2021,2021.2.3,Win32,59.91611744,61678cac42a2c1fecd5e0800,61ad71e11ddd29ccf7a27d5b,61ad7335350c4d3516d9fc89,,,,,,49,-43,1,0,0,response3disk,1.0688,-1,-7,1,0,0,rectangle,-1,-7,1,0,0,3,1,"[83,13,26,4,100,149,19,0,85,13]",-1,-7,1,0,0,1,73,154,60,1,DarkGreen,DarkGreen.jpg,LightGreen,LightGreen.jpg,,
,,,,,,,,,,,,,,,,,,2,,,,,,,,,,,,,,,,,,,,,,,,,,,61678cac42a2c1fecd5e0800,001,2021-12-06_02h19.52.584,jm_natural_scene_simialrity_2-12-2021,2021.2.3,Win32,59.91611744,61678cac42a2c1fecd5e0800,61ad71e11ddd29ccf7a27d5b,61ad7335350c4d3516d9fc89,,,,,,59,-58,1,0,0,response3disk,0.9187,8,-2,1,0,0,rectangle,8,-2,1,0,0,3,-3,"[83,13,26,4,100,149,19,0,85,13]",8,-2,1,0,0,1,74,155,15,1,Yellow,Yellow.jpg,Pink,Pink.jpg,,
,,,,,,,,,,,,,,,,,,-3,,,,,,,,,,,,,,,,,,,,,,,,,,,61678cac42a2c1fecd5e0800,001,2021-12-06_02h19.52.584,jm_natural_scene_simialrity_2-12-2021,2021.2.3,Win32,59.91611744,61678cac42a2c1fecd5e0800,61ad71e11ddd29ccf7a27d5b,61ad7335350c4d3516d9fc89,,,,,,-43,25,1,0,0,response7disk,0.6174,8,0,1,0,0,rectangle,8,0,1,0,0,3,-2,"[83,13,26,4,100,149,19,0,85,13]",8,0,1,0,0,1,75,156,14,1,Yellow,Yellow.jpg,DarkBlue,DarkBlue.jpg,,
,,,,,,,,,,,,,,,,,,-3,,,,,,,,,,,,,,,,,,,,,,,,,,,61678cac42a2c1fecd5e0800,001,2021-12-06_02h19.52.584,jm_natural_scene_simialrity_2-12-2021,2021.2.3,Win32,59.91611744,61678cac42a2c1fecd5e0800,61ad71e11ddd29ccf7a27d5b,61ad7335350c4d3516d9fc89,,,,,,-49,40,1,0,0,response7disk,1.0857,-1,0,1,0,0,rectangle,-1,0,1,0,0,3,-4,"[83,13,26,4,100,149,19,0,85,13]",-1,0,1,0,0,1,76,157,65,1,Purple,Purple.jpg,LightGreen,LightGreen.jpg,,
,,,,,,,,,,,,,,,,,,-3,,,,,,,,,,,,,,,,,,,,,,,,,,,61678cac42a2c1fecd5e0800,001,2021-12-06_02h19.52.584,jm_natural_scene_simialrity_2-12-2021,2021.2.3,Win32,59.91611744,61678cac42a2c1fecd5e0800,61ad71e11ddd29ccf7a27d5b,61ad7335350c4d3516d9fc89,,,,,,-47,22,1,0,0,response7disk,0.634,-1,-8,1,0,0,rectangle,-1,-8,1,0,0,3,-3,"[83,13,26,4,100,149,19,0,85,13]",-1,-8,1,0,0,1,77,158,71,1,LightBlue,LightBlue.jpg,Turquiose,Turquiose.jpg,,
,,,,,,,,,,,,,,,,,,-3,,,,,,,,,,,,,,,,,,,,,,,,,,,61678cac42a2c1fecd5e0800,001,2021-12-06_02h19.52.584,jm_natural_scene_simialrity_2-12-2021,2021.2.3,Win32,59.91611744,61678cac42a2c1fecd5e0800,61ad71e11ddd29ccf7a27d5b,61ad7335350c4d3516d9fc89,,,,,,-41,35,1,0,0,response7disk,0.5005,-1,-6,1,0,0,rectangle,-1,-6,1,0,0,3,1,"[83,13,26,4,100,149,19,0,85,13]",-1,-6,1,0,0,1,78,159,5,1,Red,Red.jpg,LightBlue,LightBlue.jpg,,
,,,,,,,,,,,,,,,,,,-3,,,,,,,,,,,,,,,,,,,,,,,,,,,61678cac42a2c1fecd5e0800,001,2021-12-06_02h19.52.584,jm_natural_scene_simialrity_2-12-2021,2021.2.3,Win32,59.91611744,61678cac42a2c1fecd5e0800,61ad71e11ddd29ccf7a27d5b,61ad7335350c4d3516d9fc89,,,,,,-33,26,1,0,0,response7disk,0.5016,10,-11,1,0,0,rectangle,10,-11,1,0,0,3,-3,"[83,13,26,4,100,149,19,0,85,13]",10,-11,1,0,0,1,79,160,61,1,Turquiose,Turquiose.jpg,LightGreen,LightGreen.jpg,,
,,,,,,,,,,,,,,,,,,-4,,,,,,,,,,,,,,,,,,,,,,,,,,,61678cac42a2c1fecd5e0800,001,2021-12-06_02h19.52.584,jm_natural_scene_simialrity_2-12-2021,2021.2.3,Win32,59.91611744,61678cac42a2c1fecd5e0800,61ad71e11ddd29ccf7a27d5b,61ad7335350c4d3516d9fc89,,,,,,-38,40,1,0,0,response7disk,0.5016,-6,1,1,0,0,rectangle,-6,1,1,0,0,3,-1,"[83,13,26,4,100,149,19,0,85,13]",-6,1,1,0,0,1,80,161,22,1,LightGreen,LightGreen.jpg,Pink,Pink.jpg,,
