key_resp.keys,key_resp.rt,key_resp_16.keys,key_resp_16.rt,key_resp_2.keys,key_resp_2.rt,key_resp_3.keys,key_resp_3.rt,key_resp_19.keys,key_resp_19.rt,key_resp_10.keys,key_resp_10.rt,mouse_prac.x,mouse_prac.y,mouse_prac.leftButton,mouse_prac.midButton,mouse_prac.rightButton,mouse_prac.clicked_name,similarity,mouse_10.x,mouse_10.y,mouse_10.leftButton,mouse_10.midButton,mouse_10.rightButton,mouse_10.clicked_name,mouse_catch_prac.x,mouse_catch_prac.y,mouse_catch_prac.leftButton,mouse_catch_prac.midButton,mouse_catch_prac.rightButton,mouse_catch_prac.clicked_name,catchprac,catchnumberprac,mouse_6.x,mouse_6.y,mouse_6.leftButton,mouse_6.midButton,mouse_6.rightButton,mouse_6.clicked_name,during_prac.thisRepN,during_prac.thisTrialN,during_prac.thisN,during_prac.thisIndex,during_prac.ran,trailimage1,trial1adress,trailimage2,trial2adress,participant,session,date,expName,psychopyVersion,OS,frameRate,PROLIFIC_PID,STUDY_ID,SESSION_ID,key_resp_22.keys,key_resp_22.rt,mouse.x,mouse.y,mouse.leftButton,mouse.midButton,mouse.rightButton,mouse.clicked_name,response_time,mouse_2.x,mouse_2.y,mouse_2.leftButton,mouse_2.midButton,mouse_2.rightButton,mouse_2.clicked_name,mouse_3.x,mouse_3.y,mouse_3.leftButton,mouse_3.midButton,mouse_3.rightButton,catchresponse,catchnumber,catchtrialorder,mouse_11.x,mouse_11.y,mouse_11.leftButton,mouse_11.midButton,mouse_11.rightButton,trials_2.thisRepN,trials_2.thisTrialN,trials_2.thisN,trials_2.thisIndex,trials_2.ran,image1,image1adress,image2,image2adress,mouse_3.clicked_name,mouse_11.clicked_name
space,4.1743,space,30.7718,space,7.1493,space,16.7486,space,57.0863,space,7.5483,-106,-38,1,0,0,response5disk_5,-2,2,-2,1,0,0,rectangle_8,-28,105,1,0,0,response7disk_7,-4,-4,4,4,1,0,0,rectangle_4,0,0,0,0,1,trail1,trail1.jpg,trail1,trail1.jpg,Edgar ,001,2021-12-05_20h18.38.481,jm_natural_scene_simialrity_2-12-2021,2021.2.3,Win32,59.9268892,6144d595272a4e5174447ab5,61ad71e11ddd29ccf7a27d5b,61ad72c66aefb921f4a7e452,,,,,,,,,,,,,,,,,,,,,,,,,,,,,,,,,,,,,,,
,,,,,,,,,,,,124,64,1,0,0,response1disk_5,3,-1,-5,1,0,0,rectangle_8,-1,-5,1,0,0,,,-4,-1,-5,1,0,0,,0,1,1,5,1,trail3,trail3.jpg,trail3,trail3.jpg,Edgar ,001,2021-12-05_20h18.38.481,jm_natural_scene_simialrity_2-12-2021,2021.2.3,Win32,59.9268892,6144d595272a4e5174447ab5,61ad71e11ddd29ccf7a27d5b,61ad72c66aefb921f4a7e452,,,,,,,,,,,,,,,,,,,,,,,,,,,,,,,,,,,,,,,
,,,,,,,,,,,,-96,73,1,0,0,response7disk_5,-3,5,-3,1,0,0,rectangle_8,5,-3,1,0,0,,,-4,5,-3,1,0,0,,0,2,2,1,1,trail1,trail1.jpg,trail2,trail2.jpg,Edgar ,001,2021-12-05_20h18.38.481,jm_natural_scene_simialrity_2-12-2021,2021.2.3,Win32,59.9268892,6144d595272a4e5174447ab5,61ad71e11ddd29ccf7a27d5b,61ad72c66aefb921f4a7e452,,,,,,,,,,,,,,,,,,,,,,,,,,,,,,,,,,,,,,,
,,,,,,,,,,,,-59,113,1,0,0,response7disk_5,-4,-1,0,1,0,0,rectangle_8,-1,0,1,0,0,,,-4,-1,0,1,0,0,,0,3,3,2,1,trail1,trail1.jpg,trail3,trail3.jpg,Edgar ,001,2021-12-05_20h18.38.481,jm_natural_scene_simialrity_2-12-2021,2021.2.3,Win32,59.9268892,6144d595272a4e5174447ab5,61ad71e11ddd29ccf7a27d5b,61ad72c66aefb921f4a7e452,,,,,,,,,,,,,,,,,,,,,,,,,,,,,,,,,,,,,,,
,,,,,,,,,,,,44,101,1,0,0,response1disk_5,4,3,-1,1,0,0,rectangle_8,3,-1,1,0,0,,,-4,3,-1,1,0,0,,0,4,4,3,1,trail2,trail2.jpg,trail2,trail2.jpg,Edgar ,001,2021-12-05_20h18.38.481,jm_natural_scene_simialrity_2-12-2021,2021.2.3,Win32,59.9268892,6144d595272a4e5174447ab5,61ad71e11ddd29ccf7a27d5b,61ad72c66aefb921f4a7e452,,,,,,,,,,,,,,,,,,,,,,,,,,,,,,,,,,,,,,,
,,,,,,,,,,,,-40,104,1,0,0,response7disk_5,-4,-1,-1,1,0,0,rectangle_8,-1,-1,1,0,0,,,-4,-1,-1,1,0,0,,0,5,5,4,1,trail2,trail2.jpg,trail3,trail3.jpg,Edgar ,001,2021-12-05_20h18.38.481,jm_natural_scene_simialrity_2-12-2021,2021.2.3,Win32,59.9268892,6144d595272a4e5174447ab5,61ad71e11ddd29ccf7a27d5b,61ad72c66aefb921f4a7e452,,,,,,,,,,,,,,,,,,,,,,,,,,,,,,,,,,,,,,,
,,,,,,,,,,,,,,,,,,2,,,,,,,,,,,,,,,,,,,,,,,,,,,,,,Edgar ,001,2021-12-05_20h18.38.481,jm_natural_scene_simialrity_2-12-2021,2021.2.3,Win32,59.9268892,6144d595272a4e5174447ab5,61ad71e11ddd29ccf7a27d5b,61ad72c66aefb921f4a7e452,space,3.3057,97,-46,1,0,0,response3disk,6.0749,-4,5,1,0,0,rectangle,-4,5,1,0,0,,2,"[119,42,30,4,45,153,4,11,136,56]",-4,5,1,0,0,0,0,0,72,1,DarkBlue,DarkBlue.jpg,Turquiose,Turquiose.jpg,,
,,,,,,,,,,,,,,,,,,-4,,,,,,,,,,,,,,,,,,,,,,,,,,,,,,Edgar ,001,2021-12-05_20h18.38.481,jm_natural_scene_simialrity_2-12-2021,2021.2.3,Win32,59.9268892,6144d595272a4e5174447ab5,61ad71e11ddd29ccf7a27d5b,61ad72c66aefb921f4a7e452,,,-58,99,1,0,0,response7disk,2.3332,1,-1,1,0,0,rectangle,1,-1,1,0,0,,-3,"[119,42,30,4,45,153,4,11,136,56]",1,-1,1,0,0,0,1,1,68,1,DarkBlue,DarkBlue.jpg,DarkGreen,DarkGreen.jpg,,
,,,,,,,,,,,,,,,,,,-4,,,,,,,,,,,,,,,,,,,,,,,,,,,,,,Edgar ,001,2021-12-05_20h18.38.481,jm_natural_scene_simialrity_2-12-2021,2021.2.3,Win32,59.9268892,6144d595272a4e5174447ab5,61ad71e11ddd29ccf7a27d5b,61ad72c66aefb921f4a7e452,,,-39,88,1,0,0,response7disk,0.9825,1,3,1,0,0,rectangle,1,3,1,0,0,,-3,"[119,42,30,4,45,153,4,11,136,56]",1,3,1,0,0,0,2,2,33,1,Turquiose,Turquiose.jpg,Pink,Pink.jpg,,
,,,,,,,,,,,,,,,,,,-4,,,,,,,,,,,,,,,,,,,,,,,,,,,,,,Edgar ,001,2021-12-05_20h18.38.481,jm_natural_scene_simialrity_2-12-2021,2021.2.3,Win32,59.9268892,6144d595272a4e5174447ab5,61ad71e11ddd29ccf7a27d5b,61ad72c66aefb921f4a7e452,,,-45,74,1,0,0,response7disk,2.2006,0,8,1,0,0,rectangle,52,-123,1,0,0,1,1,"[119,42,30,4,45,153,4,11,136,56]",-3,4,1,0,0,0,3,3,11,1,Yellow,Yellow.jpg,DarkGreen,DarkGreen.jpg,response3disk_3,rectangle
,,,,,,,,,,,,,,,,,,1,,,,,,,,,,,,,,,,,,,,,,,,,,,,,,Edgar ,001,2021-12-05_20h18.38.481,jm_natural_scene_simialrity_2-12-2021,2021.2.3,Win32,59.9268892,6144d595272a4e5174447ab5,61ad71e11ddd29ccf7a27d5b,61ad72c66aefb921f4a7e452,,,72,-101,1,0,0,response3disk,5.5488,-2,2,1,0,0,rectangle,-2,2,1,0,0,1,2,"[119,42,30,4,45,153,4,11,136,56]",-2,2,1,0,0,0,4,4,41,1,DarkBlue,DarkBlue.jpg,Purple,Purple.jpg,,
,,,,,,,,,,,,,,,,,,-2,,,,,,,,,,,,,,,,,,,,,,,,,,,,,,Edgar ,001,2021-12-05_20h18.38.481,jm_natural_scene_simialrity_2-12-2021,2021.2.3,Win32,59.9268892,6144d595272a4e5174447ab5,61ad71e11ddd29ccf7a27d5b,61ad72c66aefb921f4a7e452,,,-90,-44,1,0,0,response5disk,8.8215,1,7,1,0,0,rectangle,1,7,1,0,0,1,3,"[119,42,30,4,45,153,4,11,136,56]",1,7,1,0,0,0,5,5,48,1,Turquiose,Turquiose.jpg,Red,Red.jpg,,
,,,,,,,,,,,,,,,,,,1,,,,,,,,,,,,,,,,,,,,,,,,,,,,,,Edgar ,001,2021-12-05_20h18.38.481,jm_natural_scene_simialrity_2-12-2021,2021.2.3,Win32,59.9268892,6144d595272a4e5174447ab5,61ad71e11ddd29ccf7a27d5b,61ad72c66aefb921f4a7e452,,,55,-105,1,0,0,response3disk,4.0692,6,-2,1,0,0,rectangle,6,-2,1,0,0,1,-1,"[119,42,30,4,45,153,4,11,136,56]",6,-2,1,0,0,0,6,6,74,1,Purple,Purple.jpg,Turquiose,Turquiose.jpg,,
,,,,,,,,,,,,,,,,,,4,,,,,,,,,,,,,,,,,,,,,,,,,,,,,,Edgar ,001,2021-12-05_20h18.38.481,jm_natural_scene_simialrity_2-12-2021,2021.2.3,Win32,59.9268892,6144d595272a4e5174447ab5,61ad71e11ddd29ccf7a27d5b,61ad72c66aefb921f4a7e452,,,62,87,1,0,0,response1disk,1.5665,3,-1,1,0,0,rectangle,3,-1,1,0,0,1,-2,"[119,42,30,4,45,153,4,11,136,56]",3,-1,1,0,0,0,7,7,38,1,LightBlue,LightBlue.jpg,Purple,Purple.jpg,,
,,,,,,,,,,,,,,,,,,2,,,,,,,,,,,,,,,,,,,,,,,,,,,,,,Edgar ,001,2021-12-05_20h18.38.481,jm_natural_scene_simialrity_2-12-2021,2021.2.3,Win32,59.9268892,6144d595272a4e5174447ab5,61ad71e11ddd29ccf7a27d5b,61ad72c66aefb921f4a7e452,,,93,-54,1,0,0,response3disk,1.572,1,-4,1,0,0,rectangle,1,-4,1,0,0,1,-2,"[119,42,30,4,45,153,4,11,136,56]",1,-4,1,0,0,0,8,8,32,1,Turquiose,Turquiose.jpg,DarkBlue,DarkBlue.jpg,,
,,,,,,,,,,,,,,,,,,-1,,,,,,,,,,,,,,,,,,,,,,,,,,,,,,Edgar ,001,2021-12-05_20h18.38.481,jm_natural_scene_simialrity_2-12-2021,2021.2.3,Win32,59.9268892,6144d595272a4e5174447ab5,61ad71e11ddd29ccf7a27d5b,61ad72c66aefb921f4a7e452,,,-38,-90,1,0,0,response5disk,3.2011,0,4,1,0,0,rectangle,0,4,1,0,0,1,3,"[119,42,30,4,45,153,4,11,136,56]",0,4,1,0,0,0,9,9,27,1,DarkGreen,DarkGreen.jpg,DarkBlue,DarkBlue.jpg,,
,,,,,,,,,,,,,,,,,,-3,,,,,,,,,,,,,,,,,,,,,,,,,,,,,,Edgar ,001,2021-12-05_20h18.38.481,jm_natural_scene_simialrity_2-12-2021,2021.2.3,Win32,59.9268892,6144d595272a4e5174447ab5,61ad71e11ddd29ccf7a27d5b,61ad72c66aefb921f4a7e452,,,-70,55,1,0,0,response7disk,3.7022,3,1,1,0,0,rectangle,-59,-113,1,0,0,-1,-1,"[119,42,30,4,45,153,4,11,136,56]",-4,-6,1,0,0,0,10,10,4,1,Red,Red.jpg,Turquiose,Turquiose.jpg,response5disk_3,rectangle
,,,,,,,,,,,,,,,,,,-4,,,,,,,,,,,,,,,,,,,,,,,,,,,,,,Edgar ,001,2021-12-05_20h18.38.481,jm_natural_scene_simialrity_2-12-2021,2021.2.3,Win32,59.9268892,6144d595272a4e5174447ab5,61ad71e11ddd29ccf7a27d5b,61ad72c66aefb921f4a7e452,,,-49,99,1,0,0,response7disk,1.7165,-7,-5,1,0,0,rectangle,-7,-5,1,0,0,-1,-2,"[119,42,30,4,45,153,4,11,136,56]",-7,-5,1,0,0,0,11,11,14,1,Yellow,Yellow.jpg,DarkBlue,DarkBlue.jpg,,
,,,,,,,,,,,,,,,,,,-4,,,,,,,,,,,,,,,,,,,,,,,,,,,,,,Edgar ,001,2021-12-05_20h18.38.481,jm_natural_scene_simialrity_2-12-2021,2021.2.3,Win32,59.9268892,6144d595272a4e5174447ab5,61ad71e11ddd29ccf7a27d5b,61ad72c66aefb921f4a7e452,,,-57,83,1,0,0,response7disk,4.0067,-8,-1,1,0,0,rectangle,-8,-1,1,0,0,-1,-3,"[119,42,30,4,45,153,4,11,136,56]",-8,-1,1,0,0,0,12,12,8,1,Red,Red.jpg,Purple,Purple.jpg,,
,,,,,,,,,,,,,,,,,,3,,,,,,,,,,,,,,,,,,,,,,,,,,,,,,Edgar ,001,2021-12-05_20h18.38.481,jm_natural_scene_simialrity_2-12-2021,2021.2.3,Win32,59.9268892,6144d595272a4e5174447ab5,61ad71e11ddd29ccf7a27d5b,61ad72c66aefb921f4a7e452,,,120,57,1,0,0,response1disk,2.9702,1,-6,1,0,0,rectangle,1,-6,1,0,0,-1,-1,"[119,42,30,4,45,153,4,11,136,56]",1,-6,1,0,0,0,13,13,15,1,Yellow,Yellow.jpg,Pink,Pink.jpg,,
,,,,,,,,,,,,,,,,,,-4,,,,,,,,,,,,,,,,,,,,,,,,,,,,,,Edgar ,001,2021-12-05_20h18.38.481,jm_natural_scene_simialrity_2-12-2021,2021.2.3,Win32,59.9268892,6144d595272a4e5174447ab5,61ad71e11ddd29ccf7a27d5b,61ad72c66aefb921f4a7e452,,,-45,126,1,0,0,response7disk,1.1993,-1,1,1,0,0,rectangle,-1,1,1,0,0,-1,-3,"[119,42,30,4,45,153,4,11,136,56]",-1,1,1,0,0,0,14,14,28,1,DarkGreen,DarkGreen.jpg,Pink,Pink.jpg,,
,,,,,,,,,,,,,,,,,,3,,,,,,,,,,,,,,,,,,,,,,,,,,,,,,Edgar ,001,2021-12-05_20h18.38.481,jm_natural_scene_simialrity_2-12-2021,2021.2.3,Win32,59.9268892,6144d595272a4e5174447ab5,61ad71e11ddd29ccf7a27d5b,61ad72c66aefb921f4a7e452,,,83,45,1,0,0,response1disk,1.6886,-4,-1,1,0,0,rectangle,-4,-1,1,0,0,-1,-1,"[119,42,30,4,45,153,4,11,136,56]",-4,-1,1,0,0,0,15,15,34,1,Turquiose,Turquiose.jpg,Purple,Purple.jpg,,
,,,,,,,,,,,,,,,,,,1,,,,,,,,,,,,,,,,,,,,,,,,,,,,,,Edgar ,001,2021-12-05_20h18.38.481,jm_natural_scene_simialrity_2-12-2021,2021.2.3,Win32,59.9268892,6144d595272a4e5174447ab5,61ad71e11ddd29ccf7a27d5b,61ad72c66aefb921f4a7e452,,,74,-102,1,0,0,response3disk,2.6506,7,-12,1,0,0,rectangle,7,-12,1,0,0,-1,2,"[119,42,30,4,45,153,4,11,136,56]",7,-12,1,0,0,0,16,16,45,1,Yellow,Yellow.jpg,Red,Red.jpg,,
,,,,,,,,,,,,,,,,,,4,,,,,,,,,,,,,,,,,,,,,,,,,,,,,,Edgar ,001,2021-12-05_20h18.38.481,jm_natural_scene_simialrity_2-12-2021,2021.2.3,Win32,59.9268892,6144d595272a4e5174447ab5,61ad71e11ddd29ccf7a27d5b,61ad72c66aefb921f4a7e452,,,59,108,1,0,0,response1disk,1.0006,-1,-4,1,0,0,rectangle,-1,-4,1,0,0,-1,-4,"[119,42,30,4,45,153,4,11,136,56]",-1,-4,1,0,0,0,17,17,30,1,Turquiose,Turquiose.jpg,Turquiose,Turquiose.jpg,,
,,,,,,,,,,,,,,,,,,4,,,,,,,,,,,,,,,,,,,,,,,,,,,,,,Edgar ,001,2021-12-05_20h18.38.481,jm_natural_scene_simialrity_2-12-2021,2021.2.3,Win32,59.9268892,6144d595272a4e5174447ab5,61ad71e11ddd29ccf7a27d5b,61ad72c66aefb921f4a7e452,,,52,100,1,0,0,response1disk,1.4001,0,-4,1,0,0,rectangle,0,-4,1,0,0,-1,2,"[119,42,30,4,45,153,4,11,136,56]",0,-4,1,0,0,0,18,18,17,1,LightGreen,LightGreen.jpg,LightGreen,LightGreen.jpg,,
,,,,,,,,,,,,,,,,,,2,,,,,,,,,,,,,,,,,,,,,,,,,,,,,,Edgar ,001,2021-12-05_20h18.38.481,jm_natural_scene_simialrity_2-12-2021,2021.2.3,Win32,59.9268892,6144d595272a4e5174447ab5,61ad71e11ddd29ccf7a27d5b,61ad72c66aefb921f4a7e452,,,94,-47,1,0,0,response3disk,5.1704,8,3,1,0,0,rectangle,8,3,1,0,0,-1,2,"[119,42,30,4,45,153,4,11,136,56]",8,3,1,0,0,0,19,19,29,1,DarkGreen,DarkGreen.jpg,Purple,Purple.jpg,,
,,,,,,,,,,,,,,,,,,-3,,,,,,,,,,,,,,,,,,,,,,,,,,,,,,Edgar ,001,2021-12-05_20h18.38.481,jm_natural_scene_simialrity_2-12-2021,2021.2.3,Win32,59.9268892,6144d595272a4e5174447ab5,61ad71e11ddd29ccf7a27d5b,61ad72c66aefb921f4a7e452,,,-96,31,1,0,0,response7disk,4.7348,-3,3,1,0,0,rectangle,-3,3,1,0,0,-1,-3,"[119,42,30,4,45,153,4,11,136,56]",-3,3,1,0,0,0,20,20,56,1,LightBlue,LightBlue.jpg,Yellow,Yellow.jpg,,
,,,,,,,,,,,,,,,,,,2,,,,,,,,,,,,,,,,,,,,,,,,,,,,,,Edgar ,001,2021-12-05_20h18.38.481,jm_natural_scene_simialrity_2-12-2021,2021.2.3,Win32,59.9268892,6144d595272a4e5174447ab5,61ad71e11ddd29ccf7a27d5b,61ad72c66aefb921f4a7e452,,,106,-29,1,0,0,response3disk,4.7187,-1,-3,1,0,0,rectangle,-1,-3,1,0,0,-1,-1,"[119,42,30,4,45,153,4,11,136,56]",-1,-3,1,0,0,0,21,21,71,1,LightBlue,LightBlue.jpg,Turquiose,Turquiose.jpg,,
,,,,,,,,,,,,,,,,,,-3,,,,,,,,,,,,,,,,,,,,,,,,,,,,,,Edgar ,001,2021-12-05_20h18.38.481,jm_natural_scene_simialrity_2-12-2021,2021.2.3,Win32,59.9268892,6144d595272a4e5174447ab5,61ad71e11ddd29ccf7a27d5b,61ad72c66aefb921f4a7e452,,,-95,42,1,0,0,response7disk,1.7674,10,-4,1,0,0,rectangle,10,-4,1,0,0,-1,2,"[119,42,30,4,45,153,4,11,136,56]",10,-4,1,0,0,0,22,22,54,1,DarkGreen,DarkGreen.jpg,Yellow,Yellow.jpg,,
,,,,,,,,,,,,,,,,,,-4,,,,,,,,,,,,,,,,,,,,,,,,,,,,,,Edgar ,001,2021-12-05_20h18.38.481,jm_natural_scene_simialrity_2-12-2021,2021.2.3,Win32,59.9268892,6144d595272a4e5174447ab5,61ad71e11ddd29ccf7a27d5b,61ad72c66aefb921f4a7e452,,,-46,102,1,0,0,response7disk,1.8022,1,-8,1,0,0,rectangle,1,-8,1,0,0,-1,-4,"[119,42,30,4,45,153,4,11,136,56]",1,-8,1,0,0,0,23,23,61,1,Turquiose,Turquiose.jpg,LightGreen,LightGreen.jpg,,
,,,,,,,,,,,,,,,,,,-4,,,,,,,,,,,,,,,,,,,,,,,,,,,,,,Edgar ,001,2021-12-05_20h18.38.481,jm_natural_scene_simialrity_2-12-2021,2021.2.3,Win32,59.9268892,6144d595272a4e5174447ab5,61ad71e11ddd29ccf7a27d5b,61ad72c66aefb921f4a7e452,,,-55,84,1,0,0,response7disk,2.5838,8,15,1,0,0,rectangle,8,15,1,0,0,-1,2,"[119,42,30,4,45,153,4,11,136,56]",8,15,1,0,0,0,24,24,53,1,LightGreen,LightGreen.jpg,Yellow,Yellow.jpg,,
,,,,,,,,,,,,,,,,,,-2,,,,,,,,,,,,,,,,,,,,,,,,,,,,,,Edgar ,001,2021-12-05_20h18.38.481,jm_natural_scene_simialrity_2-12-2021,2021.2.3,Win32,59.9268892,6144d595272a4e5174447ab5,61ad71e11ddd29ccf7a27d5b,61ad72c66aefb921f4a7e452,,,-84,-36,1,0,0,response5disk,3.2508,9,-3,1,0,0,rectangle,9,-3,1,0,0,-1,1,"[119,42,30,4,45,153,4,11,136,56]",9,-3,1,0,0,0,25,25,1,1,Red,Red.jpg,Yellow,Yellow.jpg,,
,,,,,,,,,,,,,,,,,,-4,,,,,,,,,,,,,,,,,,,,,,,,,,,,,,Edgar ,001,2021-12-05_20h18.38.481,jm_natural_scene_simialrity_2-12-2021,2021.2.3,Win32,59.9268892,6144d595272a4e5174447ab5,61ad71e11ddd29ccf7a27d5b,61ad72c66aefb921f4a7e452,,,-29,100,1,0,0,response7disk,1.0016,12,2,1,0,0,rectangle,12,2,1,0,0,-1,-1,"[119,42,30,4,45,153,4,11,136,56]",12,2,1,0,0,0,26,26,57,1,DarkBlue,DarkBlue.jpg,Yellow,Yellow.jpg,,
,,,,,,,,,,,,,,,,,,-4,,,,,,,,,,,,,,,,,,,,,,,,,,,,,,Edgar ,001,2021-12-05_20h18.38.481,jm_natural_scene_simialrity_2-12-2021,2021.2.3,Win32,59.9268892,6144d595272a4e5174447ab5,61ad71e11ddd29ccf7a27d5b,61ad72c66aefb921f4a7e452,,,-48,107,1,0,0,response7disk,1.5837,3,1,1,0,0,rectangle,3,1,1,0,0,-1,2,"[119,42,30,4,45,153,4,11,136,56]",3,1,1,0,0,0,27,27,63,1,DarkBlue,DarkBlue.jpg,LightGreen,LightGreen.jpg,,
,,,,,,,,,,,,,,,,,,-4,,,,,,,,,,,,,,,,,,,,,,,,,,,,,,Edgar ,001,2021-12-05_20h18.38.481,jm_natural_scene_simialrity_2-12-2021,2021.2.3,Win32,59.9268892,6144d595272a4e5174447ab5,61ad71e11ddd29ccf7a27d5b,61ad72c66aefb921f4a7e452,,,-48,98,1,0,0,response7disk,3.2029,-4,2,1,0,0,rectangle,-4,2,1,0,0,-1,-1,"[119,42,30,4,45,153,4,11,136,56]",-4,2,1,0,0,0,28,28,47,1,DarkGreen,DarkGreen.jpg,Red,Red.jpg,,
,,,,,,,,,,,,,,,,,,4,,,,,,,,,,,,,,,,,,,,,,,,,,,,,,Edgar ,001,2021-12-05_20h18.38.481,jm_natural_scene_simialrity_2-12-2021,2021.2.3,Win32,59.9268892,6144d595272a4e5174447ab5,61ad71e11ddd29ccf7a27d5b,61ad72c66aefb921f4a7e452,,,69,115,1,0,0,response1disk,1.0668,3,1,1,0,0,rectangle,-114,54,1,0,0,-3,-3,"[119,42,30,4,45,153,4,11,136,56]",-5,3,1,0,0,0,29,29,39,1,DarkBlue,DarkBlue.jpg,DarkBlue,DarkBlue.jpg,response7disk_3,rectangle
,,,,,,,,,,,,,,,,,,-3,,,,,,,,,,,,,,,,,,,,,,,,,,,,,,Edgar ,001,2021-12-05_20h18.38.481,jm_natural_scene_simialrity_2-12-2021,2021.2.3,Win32,59.9268892,6144d595272a4e5174447ab5,61ad71e11ddd29ccf7a27d5b,61ad72c66aefb921f4a7e452,,,-90,49,1,0,0,response7disk,6.4406,7,-1,1,0,0,rectangle,7,-1,1,0,0,-3,-1,"[119,42,30,4,45,153,4,11,136,56]",7,-1,1,0,0,0,30,30,49,1,LightBlue,LightBlue.jpg,Red,Red.jpg,,
,,,,,,,,,,,,,,,,,,-4,,,,,,,,,,,,,,,,,,,,,,,,,,,,,,Edgar ,001,2021-12-05_20h18.38.481,jm_natural_scene_simialrity_2-12-2021,2021.2.3,Win32,59.9268892,6144d595272a4e5174447ab5,61ad71e11ddd29ccf7a27d5b,61ad72c66aefb921f4a7e452,,,-40,90,1,0,0,response7disk,4.0058,-4,-2,1,0,0,rectangle,-4,-2,1,0,0,-3,-2,"[119,42,30,4,45,153,4,11,136,56]",-4,-2,1,0,0,0,31,31,73,1,Pink,Pink.jpg,Turquiose,Turquiose.jpg,,
,,,,,,,,,,,,,,,,,,4,,,,,,,,,,,,,,,,,,,,,,,,,,,,,,Edgar ,001,2021-12-05_20h18.38.481,jm_natural_scene_simialrity_2-12-2021,2021.2.3,Win32,59.9268892,6144d595272a4e5174447ab5,61ad71e11ddd29ccf7a27d5b,61ad72c66aefb921f4a7e452,,,42,103,1,0,0,response1disk,0.9174,2,0,1,0,0,rectangle,2,0,1,0,0,-3,-2,"[119,42,30,4,45,153,4,11,136,56]",2,0,1,0,0,0,32,32,44,1,Purple,Purple.jpg,Purple,Purple.jpg,,
,,,,,,,,,,,,,,,,,,-4,,,,,,,,,,,,,,,,,,,,,,,,,,,,,,Edgar ,001,2021-12-05_20h18.38.481,jm_natural_scene_simialrity_2-12-2021,2021.2.3,Win32,59.9268892,6144d595272a4e5174447ab5,61ad71e11ddd29ccf7a27d5b,61ad72c66aefb921f4a7e452,,,-43,97,1,0,0,response7disk,1.5677,-5,1,1,0,0,rectangle,-5,1,1,0,0,-3,2,"[119,42,30,4,45,153,4,11,136,56]",-5,1,1,0,0,0,33,33,78,1,Pink,Pink.jpg,DarkBlue,DarkBlue.jpg,,
,,,,,,,,,,,,,,,,,,-4,,,,,,,,,,,,,,,,,,,,,,,,,,,,,,Edgar ,001,2021-12-05_20h18.38.481,jm_natural_scene_simialrity_2-12-2021,2021.2.3,Win32,59.9268892,6144d595272a4e5174447ab5,61ad71e11ddd29ccf7a27d5b,61ad72c66aefb921f4a7e452,,,-44,103,1,0,0,response7disk,0.7662,-4,-11,1,0,0,rectangle,-4,-11,1,0,0,-3,2,"[119,42,30,4,45,153,4,11,136,56]",-4,-11,1,0,0,0,34,34,6,1,Red,Red.jpg,DarkBlue,DarkBlue.jpg,,
,,,,,,,,,,,,,,,,,,-4,,,,,,,,,,,,,,,,,,,,,,,,,,,,,,Edgar ,001,2021-12-05_20h18.38.481,jm_natural_scene_simialrity_2-12-2021,2021.2.3,Win32,59.9268892,6144d595272a4e5174447ab5,61ad71e11ddd29ccf7a27d5b,61ad72c66aefb921f4a7e452,,,-31,73,1,0,0,response7disk,1.1333,-1,-1,1,0,0,rectangle,-1,-1,1,0,0,-3,1,"[119,42,30,4,45,153,4,11,136,56]",-1,-1,1,0,0,0,35,35,2,1,Red,Red.jpg,LightGreen,LightGreen.jpg,,
,,,,,,,,,,,,,,,,,,-4,,,,,,,,,,,,,,,,,,,,,,,,,,,,,,Edgar ,001,2021-12-05_20h18.38.481,jm_natural_scene_simialrity_2-12-2021,2021.2.3,Win32,59.9268892,6144d595272a4e5174447ab5,61ad71e11ddd29ccf7a27d5b,61ad72c66aefb921f4a7e452,,,-42,91,1,0,0,response7disk,2.5177,3,0,1,0,0,rectangle,3,0,1,0,0,-3,-2,"[119,42,30,4,45,153,4,11,136,56]",3,0,1,0,0,0,36,36,59,1,Purple,Purple.jpg,Yellow,Yellow.jpg,,
,,,,,,,,,,,,,,,,,,-4,,,,,,,,,,,,,,,,,,,,,,,,,,,,,,Edgar ,001,2021-12-05_20h18.38.481,jm_natural_scene_simialrity_2-12-2021,2021.2.3,Win32,59.9268892,6144d595272a4e5174447ab5,61ad71e11ddd29ccf7a27d5b,61ad72c66aefb921f4a7e452,,,-27,79,1,0,0,response7disk,2.8682,-4,0,1,0,0,rectangle,-4,0,1,0,0,-3,-1,"[119,42,30,4,45,153,4,11,136,56]",-4,0,1,0,0,0,37,37,64,1,Pink,Pink.jpg,LightGreen,LightGreen.jpg,,
,,,,,,,,,,,,,,,,,,-4,,,,,,,,,,,,,,,,,,,,,,,,,,,,,,Edgar ,001,2021-12-05_20h18.38.481,jm_natural_scene_simialrity_2-12-2021,2021.2.3,Win32,59.9268892,6144d595272a4e5174447ab5,61ad71e11ddd29ccf7a27d5b,61ad72c66aefb921f4a7e452,,,-35,93,1,0,0,response7disk,2.6851,-1,9,1,0,0,rectangle,-1,9,1,0,0,-3,-4,"[119,42,30,4,45,153,4,11,136,56]",-1,9,1,0,0,0,38,38,26,1,DarkGreen,DarkGreen.jpg,LightBlue,LightBlue.jpg,,
,,,,,,,,,,,,,,,,,,3,,,,,,,,,,,,,,,,,,,,,,,,,,,,,,Edgar ,001,2021-12-05_20h18.38.481,jm_natural_scene_simialrity_2-12-2021,2021.2.3,Win32,59.9268892,6144d595272a4e5174447ab5,61ad71e11ddd29ccf7a27d5b,61ad72c66aefb921f4a7e452,,,104,45,1,0,0,response1disk,3.2008,5,5,1,0,0,rectangle,5,5,1,0,0,-3,-2,"[119,42,30,4,45,153,4,11,136,56]",5,5,1,0,0,0,39,39,37,1,LightBlue,LightBlue.jpg,Pink,Pink.jpg,,
,,,,,,,,,,,,,,,,,,-2,,,,,,,,,,,,,,,,,,,,,,,,,,,,,,Edgar ,001,2021-12-05_20h18.38.481,jm_natural_scene_simialrity_2-12-2021,2021.2.3,Win32,59.9268892,6144d595272a4e5174447ab5,61ad71e11ddd29ccf7a27d5b,61ad72c66aefb921f4a7e452,,,-104,-31,1,0,0,response5disk,4.0183,1,6,1,0,0,rectangle,1,6,1,0,0,-3,-3,"[119,42,30,4,45,153,4,11,136,56]",1,6,1,0,0,0,40,40,13,1,Yellow,Yellow.jpg,LightBlue,LightBlue.jpg,,
,,,,,,,,,,,,,,,,,,-4,,,,,,,,,,,,,,,,,,,,,,,,,,,,,,Edgar ,001,2021-12-05_20h18.38.481,jm_natural_scene_simialrity_2-12-2021,2021.2.3,Win32,59.9268892,6144d595272a4e5174447ab5,61ad71e11ddd29ccf7a27d5b,61ad72c66aefb921f4a7e452,,,-44,93,1,0,0,response7disk,1.1,7,-2,1,0,0,rectangle,-67,-29,1,0,0,-3,-2,"[119,42,30,4,45,153,4,11,136,56]",-3,-6,1,0,0,0,41,41,58,1,Pink,Pink.jpg,Yellow,Yellow.jpg,response5disk_3,rectangle
,,,,,,,,,,,,,,,,,,4,,,,,,,,,,,,,,,,,,,,,,,,,,,,,,Edgar ,001,2021-12-05_20h18.38.481,jm_natural_scene_simialrity_2-12-2021,2021.2.3,Win32,59.9268892,6144d595272a4e5174447ab5,61ad71e11ddd29ccf7a27d5b,61ad72c66aefb921f4a7e452,,,92,116,1,0,0,response1disk,3.6354,-8,-2,1,0,0,rectangle,-8,-2,1,0,0,-3,3,"[119,42,30,4,45,153,4,11,136,56]",-8,-2,1,0,0,0,42,42,77,1,Purple,Purple.jpg,LightBlue,LightBlue.jpg,,
,,,,,,,,,,,,,,,,,,-4,,,,,,,,,,,,,,,,,,,,,,,,,,,,,,Edgar ,001,2021-12-05_20h18.38.481,jm_natural_scene_simialrity_2-12-2021,2021.2.3,Win32,59.9268892,6144d595272a4e5174447ab5,61ad71e11ddd29ccf7a27d5b,61ad72c66aefb921f4a7e452,,,-61,91,1,0,0,response7disk,2.0836,-4,-9,1,0,0,rectangle,-4,-9,1,0,0,-3,2,"[119,42,30,4,45,153,4,11,136,56]",-4,-9,1,0,0,0,43,43,36,1,LightBlue,LightBlue.jpg,DarkBlue,DarkBlue.jpg,,
,,,,,,,,,,,,,,,,,,4,,,,,,,,,,,,,,,,,,,,,,,,,,,,,,Edgar ,001,2021-12-05_20h18.38.481,jm_natural_scene_simialrity_2-12-2021,2021.2.3,Win32,59.9268892,6144d595272a4e5174447ab5,61ad71e11ddd29ccf7a27d5b,61ad72c66aefb921f4a7e452,,,46,108,1,0,0,response1disk,1.101,4,3,1,0,0,rectangle,-105,43,1,0,0,-3,-3,"[119,42,30,4,45,153,4,11,136,56]",2,-1,1,0,0,0,44,44,60,1,DarkGreen,DarkGreen.jpg,LightGreen,LightGreen.jpg,response7disk_3,rectangle
,,,,,,,,,,,,,,,,,,4,,,,,,,,,,,,,,,,,,,,,,,,,,,,,,Edgar ,001,2021-12-05_20h18.38.481,jm_natural_scene_simialrity_2-12-2021,2021.2.3,Win32,59.9268892,6144d595272a4e5174447ab5,61ad71e11ddd29ccf7a27d5b,61ad72c66aefb921f4a7e452,,,56,109,1,0,0,response1disk,0.7012,6,-2,1,0,0,rectangle,6,-2,1,0,0,-3,1,"[119,42,30,4,45,153,4,11,136,56]",6,-2,1,0,0,0,45,45,0,1,Red,Red.jpg,Red,Red.jpg,,
,,,,,,,,,,,,,,,,,,4,,,,,,,,,,,,,,,,,,,,,,,,,,,,,,Edgar ,001,2021-12-05_20h18.38.481,jm_natural_scene_simialrity_2-12-2021,2021.2.3,Win32,59.9268892,6144d595272a4e5174447ab5,61ad71e11ddd29ccf7a27d5b,61ad72c66aefb921f4a7e452,,,41,89,1,0,0,response1disk,0.5504,7,-1,1,0,0,rectangle,7,-1,1,0,0,-3,-4,"[119,42,30,4,45,153,4,11,136,56]",7,-1,1,0,0,0,46,46,24,1,DarkGreen,DarkGreen.jpg,DarkGreen,DarkGreen.jpg,,
,,,,,,,,,,,,,,,,,,-4,,,,,,,,,,,,,,,,,,,,,,,,,,,,,,Edgar ,001,2021-12-05_20h18.38.481,jm_natural_scene_simialrity_2-12-2021,2021.2.3,Win32,59.9268892,6144d595272a4e5174447ab5,61ad71e11ddd29ccf7a27d5b,61ad72c66aefb921f4a7e452,,,-65,121,1,0,0,response7disk,3.8683,2,12,1,0,0,rectangle,2,12,1,0,0,-3,-1,"[119,42,30,4,45,153,4,11,136,56]",2,12,1,0,0,0,47,47,25,1,DarkGreen,DarkGreen.jpg,Turquiose,Turquiose.jpg,,
,,,,,,,,,,,,,,,,,,-4,,,,,,,,,,,,,,,,,,,,,,,,,,,,,,Edgar ,001,2021-12-05_20h18.38.481,jm_natural_scene_simialrity_2-12-2021,2021.2.3,Win32,59.9268892,6144d595272a4e5174447ab5,61ad71e11ddd29ccf7a27d5b,61ad72c66aefb921f4a7e452,,,-58,92,1,0,0,response7disk,3.1193,1,-5,1,0,0,rectangle,1,-5,1,0,0,-3,-3,"[119,42,30,4,45,153,4,11,136,56]",1,-5,1,0,0,0,48,48,10,1,Yellow,Yellow.jpg,LightGreen,LightGreen.jpg,,
,,,,,,,,,,,,,,,,,,-4,,,,,,,,,,,,,,,,,,,,,,,,,,,,,,Edgar ,001,2021-12-05_20h18.38.481,jm_natural_scene_simialrity_2-12-2021,2021.2.3,Win32,59.9268892,6144d595272a4e5174447ab5,61ad71e11ddd29ccf7a27d5b,61ad72c66aefb921f4a7e452,,,-51,84,1,0,0,response7disk,0.7888,-2,-4,1,0,0,rectangle,-2,-4,1,0,0,-3,-3,"[119,42,30,4,45,153,4,11,136,56]",-2,-4,1,0,0,0,49,49,62,1,LightBlue,LightBlue.jpg,LightGreen,LightGreen.jpg,,
,,,,,,,,,,,,,,,,,,-4,,,,,,,,,,,,,,,,,,,,,,,,,,,,,,Edgar ,001,2021-12-05_20h18.38.481,jm_natural_scene_simialrity_2-12-2021,2021.2.3,Win32,59.9268892,6144d595272a4e5174447ab5,61ad71e11ddd29ccf7a27d5b,61ad72c66aefb921f4a7e452,,,-54,95,1,0,0,response7disk,0.6494,-3,-1,1,0,0,rectangle,-3,-1,1,0,0,-3,-3,"[119,42,30,4,45,153,4,11,136,56]",-3,-1,1,0,0,0,50,50,50,1,DarkBlue,DarkBlue.jpg,Red,Red.jpg,,
,,,,,,,,,,,,,,,,,,-4,,,,,,,,,,,,,,,,,,,,,,,,,,,,,,Edgar ,001,2021-12-05_20h18.38.481,jm_natural_scene_simialrity_2-12-2021,2021.2.3,Win32,59.9268892,6144d595272a4e5174447ab5,61ad71e11ddd29ccf7a27d5b,61ad72c66aefb921f4a7e452,,,-53,101,1,0,0,response7disk,1.6069,-1,3,1,0,0,rectangle,-1,3,1,0,0,-3,1,"[119,42,30,4,45,153,4,11,136,56]",-1,3,1,0,0,0,51,51,5,1,Red,Red.jpg,LightBlue,LightBlue.jpg,,
,,,,,,,,,,,,,,,,,,-4,,,,,,,,,,,,,,,,,,,,,,,,,,,,,,Edgar ,001,2021-12-05_20h18.38.481,jm_natural_scene_simialrity_2-12-2021,2021.2.3,Win32,59.9268892,6144d595272a4e5174447ab5,61ad71e11ddd29ccf7a27d5b,61ad72c66aefb921f4a7e452,,,-56,116,1,0,0,response7disk,3.4818,-5,21,1,0,0,rectangle,-5,21,1,0,0,-3,-1,"[119,42,30,4,45,153,4,11,136,56]",-5,21,1,0,0,0,52,52,52,1,Purple,Purple.jpg,Red,Red.jpg,,
,,,,,,,,,,,,,,,,,,-4,,,,,,,,,,,,,,,,,,,,,,,,,,,,,,Edgar ,001,2021-12-05_20h18.38.481,jm_natural_scene_simialrity_2-12-2021,2021.2.3,Win32,59.9268892,6144d595272a4e5174447ab5,61ad71e11ddd29ccf7a27d5b,61ad72c66aefb921f4a7e452,,,-47,102,1,0,0,response7disk,0.7658,-9,16,1,0,0,rectangle,-9,16,1,0,0,-3,-3,"[119,42,30,4,45,153,4,11,136,56]",-9,16,1,0,0,0,53,53,19,1,LightGreen,LightGreen.jpg,Turquiose,Turquiose.jpg,,
,,,,,,,,,,,,,,,,,,4,,,,,,,,,,,,,,,,,,,,,,,,,,,,,,Edgar ,001,2021-12-05_20h18.38.481,jm_natural_scene_simialrity_2-12-2021,2021.2.3,Win32,59.9268892,6144d595272a4e5174447ab5,61ad71e11ddd29ccf7a27d5b,61ad72c66aefb921f4a7e452,,,36,101,1,0,0,response1disk,0.7673,11,4,1,0,0,rectangle,11,4,1,0,0,-3,-1,"[119,42,30,4,45,153,4,11,136,56]",11,4,1,0,0,0,54,54,42,1,Pink,Pink.jpg,Pink,Pink.jpg,,
,,,,,,,,,,,,,,,,,,-4,,,,,,,,,,,,,,,,,,,,,,,,,,,,,,Edgar ,001,2021-12-05_20h18.38.481,jm_natural_scene_simialrity_2-12-2021,2021.2.3,Win32,59.9268892,6144d595272a4e5174447ab5,61ad71e11ddd29ccf7a27d5b,61ad72c66aefb921f4a7e452,,,-59,110,1,0,0,response7disk,1.0176,15,-5,1,0,0,rectangle,-38,87,1,0,0,-4,-4,"[119,42,30,4,45,153,4,11,136,56]",-7,-9,1,0,0,0,55,55,21,1,LightGreen,LightGreen.jpg,DarkBlue,DarkBlue.jpg,response7disk_3,rectangle
,,,,,,,,,,,,,,,,,,3,,,,,,,,,,,,,,,,,,,,,,,,,,,,,,Edgar ,001,2021-12-05_20h18.38.481,jm_natural_scene_simialrity_2-12-2021,2021.2.3,Win32,59.9268892,6144d595272a4e5174447ab5,61ad71e11ddd29ccf7a27d5b,61ad72c66aefb921f4a7e452,,,94,42,1,0,0,response1disk,1.8508,13,8,1,0,0,rectangle,13,8,1,0,0,-4,3,"[119,42,30,4,45,153,4,11,136,56]",13,8,1,0,0,0,56,56,51,1,Pink,Pink.jpg,Red,Red.jpg,,
,,,,,,,,,,,,,,,,,,-4,,,,,,,,,,,,,,,,,,,,,,,,,,,,,,Edgar ,001,2021-12-05_20h18.38.481,jm_natural_scene_simialrity_2-12-2021,2021.2.3,Win32,59.9268892,6144d595272a4e5174447ab5,61ad71e11ddd29ccf7a27d5b,61ad72c66aefb921f4a7e452,,,-59,103,1,0,0,response7disk,1.9343,-15,3,1,0,0,rectangle,-15,3,1,0,0,-4,-2,"[119,42,30,4,45,153,4,11,136,56]",-15,3,1,0,0,0,57,57,16,1,Yellow,Yellow.jpg,Purple,Purple.jpg,,
,,,,,,,,,,,,,,,,,,2,,,,,,,,,,,,,,,,,,,,,,,,,,,,,,Edgar ,001,2021-12-05_20h18.38.481,jm_natural_scene_simialrity_2-12-2021,2021.2.3,Win32,59.9268892,6144d595272a4e5174447ab5,61ad71e11ddd29ccf7a27d5b,61ad72c66aefb921f4a7e452,,,99,-43,1,0,0,response3disk,2.6836,6,4,1,0,0,rectangle,6,4,1,0,0,-4,1,"[119,42,30,4,45,153,4,11,136,56]",6,4,1,0,0,0,58,58,79,1,Purple,Purple.jpg,DarkBlue,DarkBlue.jpg,,
,,,,,,,,,,,,,,,,,,-4,,,,,,,,,,,,,,,,,,,,,,,,,,,,,,Edgar ,001,2021-12-05_20h18.38.481,jm_natural_scene_simialrity_2-12-2021,2021.2.3,Win32,59.9268892,6144d595272a4e5174447ab5,61ad71e11ddd29ccf7a27d5b,61ad72c66aefb921f4a7e452,,,-53,84,1,0,0,response7disk,3.8037,-7,7,1,0,0,rectangle,-7,7,1,0,0,-4,-2,"[119,42,30,4,45,153,4,11,136,56]",-7,7,1,0,0,0,59,59,69,1,Pink,Pink.jpg,DarkGreen,DarkGreen.jpg,,
,,,,,,,,,,,,,,,,,,-4,,,,,,,,,,,,,,,,,,,,,,,,,,,,,,Edgar ,001,2021-12-05_20h18.38.481,jm_natural_scene_simialrity_2-12-2021,2021.2.3,Win32,59.9268892,6144d595272a4e5174447ab5,61ad71e11ddd29ccf7a27d5b,61ad72c66aefb921f4a7e452,,,-37,91,1,0,0,response7disk,1.2354,5,6,1,0,0,rectangle,5,6,1,0,0,-4,-3,"[119,42,30,4,45,153,4,11,136,56]",5,6,1,0,0,0,60,60,55,1,Turquiose,Turquiose.jpg,Yellow,Yellow.jpg,,
,,,,,,,,,,,,,,,,,,-4,,,,,,,,,,,,,,,,,,,,,,,,,,,,,,Edgar ,001,2021-12-05_20h18.38.481,jm_natural_scene_simialrity_2-12-2021,2021.2.3,Win32,59.9268892,6144d595272a4e5174447ab5,61ad71e11ddd29ccf7a27d5b,61ad72c66aefb921f4a7e452,,,-44,97,1,0,0,response7disk,0.7333,-1,8,1,0,0,rectangle,-1,8,1,0,0,-4,1,"[119,42,30,4,45,153,4,11,136,56]",-1,8,1,0,0,0,61,61,66,1,Turquiose,Turquiose.jpg,DarkGreen,DarkGreen.jpg,,
,,,,,,,,,,,,,,,,,,-4,,,,,,,,,,,,,,,,,,,,,,,,,,,,,,Edgar ,001,2021-12-05_20h18.38.481,jm_natural_scene_simialrity_2-12-2021,2021.2.3,Win32,59.9268892,6144d595272a4e5174447ab5,61ad71e11ddd29ccf7a27d5b,61ad72c66aefb921f4a7e452,,,-46,90,1,0,0,response7disk,0.7501,-3,13,1,0,0,rectangle,-3,13,1,0,0,-4,1,"[119,42,30,4,45,153,4,11,136,56]",-3,13,1,0,0,0,62,62,40,1,DarkBlue,DarkBlue.jpg,Pink,Pink.jpg,,
,,,,,,,,,,,,,,,,,,3,,,,,,,,,,,,,,,,,,,,,,,,,,,,,,Edgar ,001,2021-12-05_20h18.38.481,jm_natural_scene_simialrity_2-12-2021,2021.2.3,Win32,59.9268892,6144d595272a4e5174447ab5,61ad71e11ddd29ccf7a27d5b,61ad72c66aefb921f4a7e452,,,103,55,1,0,0,response1disk,2.2357,7,2,1,0,0,rectangle,7,2,1,0,0,-4,-1,"[119,42,30,4,45,153,4,11,136,56]",7,2,1,0,0,0,63,63,7,1,Red,Red.jpg,Pink,Pink.jpg,,
,,,,,,,,,,,,,,,,,,-3,,,,,,,,,,,,,,,,,,,,,,,,,,,,,,Edgar ,001,2021-12-05_20h18.38.481,jm_natural_scene_simialrity_2-12-2021,2021.2.3,Win32,59.9268892,6144d595272a4e5174447ab5,61ad71e11ddd29ccf7a27d5b,61ad72c66aefb921f4a7e452,,,-72,52,1,0,0,response7disk,1.6637,12,-1,1,0,0,rectangle,12,-1,1,0,0,-4,2,"[119,42,30,4,45,153,4,11,136,56]",12,-1,1,0,0,0,64,64,23,1,LightGreen,LightGreen.jpg,Purple,Purple.jpg,,
,,,,,,,,,,,,,,,,,,-4,,,,,,,,,,,,,,,,,,,,,,,,,,,,,,Edgar ,001,2021-12-05_20h18.38.481,jm_natural_scene_simialrity_2-12-2021,2021.2.3,Win32,59.9268892,6144d595272a4e5174447ab5,61ad71e11ddd29ccf7a27d5b,61ad72c66aefb921f4a7e452,,,-40,78,1,0,0,response7disk,0.7848,-1,6,1,0,0,rectangle,-1,6,1,0,0,-4,3,"[119,42,30,4,45,153,4,11,136,56]",-1,6,1,0,0,0,65,65,70,1,Purple,Purple.jpg,DarkGreen,DarkGreen.jpg,,
,,,,,,,,,,,,,,,,,,4,,,,,,,,,,,,,,,,,,,,,,,,,,,,,,Edgar ,001,2021-12-05_20h18.38.481,jm_natural_scene_simialrity_2-12-2021,2021.2.3,Win32,59.9268892,6144d595272a4e5174447ab5,61ad71e11ddd29ccf7a27d5b,61ad72c66aefb921f4a7e452,,,52,98,1,0,0,response1disk,0.7498,13,-3,1,0,0,rectangle,13,-3,1,0,0,-4,2,"[119,42,30,4,45,153,4,11,136,56]",13,-3,1,0,0,0,66,66,35,1,LightBlue,LightBlue.jpg,LightBlue,LightBlue.jpg,,
,,,,,,,,,,,,,,,,,,-4,,,,,,,,,,,,,,,,,,,,,,,,,,,,,,Edgar ,001,2021-12-05_20h18.38.481,jm_natural_scene_simialrity_2-12-2021,2021.2.3,Win32,59.9268892,6144d595272a4e5174447ab5,61ad71e11ddd29ccf7a27d5b,61ad72c66aefb921f4a7e452,,,-54,95,1,0,0,response7disk,0.7667,11,-5,1,0,0,rectangle,11,-5,1,0,0,-4,2,"[119,42,30,4,45,153,4,11,136,56]",11,-5,1,0,0,0,67,67,67,1,LightBlue,LightBlue.jpg,DarkGreen,DarkGreen.jpg,,
,,,,,,,,,,,,,,,,,,2,,,,,,,,,,,,,,,,,,,,,,,,,,,,,,Edgar ,001,2021-12-05_20h18.38.481,jm_natural_scene_simialrity_2-12-2021,2021.2.3,Win32,59.9268892,6144d595272a4e5174447ab5,61ad71e11ddd29ccf7a27d5b,61ad72c66aefb921f4a7e452,,,107,-61,1,0,0,response3disk,2.9673,-7,1,1,0,0,rectangle,-7,1,1,0,0,-4,2,"[119,42,30,4,45,153,4,11,136,56]",-7,1,1,0,0,0,68,68,76,1,Pink,Pink.jpg,LightBlue,LightBlue.jpg,,
,,,,,,,,,,,,,,,,,,-1,,,,,,,,,,,,,,,,,,,,,,,,,,,,,,Edgar ,001,2021-12-05_20h18.38.481,jm_natural_scene_simialrity_2-12-2021,2021.2.3,Win32,59.9268892,6144d595272a4e5174447ab5,61ad71e11ddd29ccf7a27d5b,61ad72c66aefb921f4a7e452,,,-55,-101,1,0,0,response5disk,4.9191,14,-8,1,0,0,rectangle,14,-8,1,0,0,-4,-3,"[119,42,30,4,45,153,4,11,136,56]",14,-8,1,0,0,0,69,69,43,1,Pink,Pink.jpg,Purple,Purple.jpg,,
,,,,,,,,,,,,,,,,,,-4,,,,,,,,,,,,,,,,,,,,,,,,,,,,,,Edgar ,001,2021-12-05_20h18.38.481,jm_natural_scene_simialrity_2-12-2021,2021.2.3,Win32,59.9268892,6144d595272a4e5174447ab5,61ad71e11ddd29ccf7a27d5b,61ad72c66aefb921f4a7e452,,,-44,96,1,0,0,response7disk,1.6155,-1,-15,1,0,0,rectangle,-1,-15,1,0,0,-4,-4,"[119,42,30,4,45,153,4,11,136,56]",-1,-15,1,0,0,0,70,70,65,1,Purple,Purple.jpg,LightGreen,LightGreen.jpg,,
,,,,,,,,,,,,,,,,,,-4,,,,,,,,,,,,,,,,,,,,,,,,,,,,,,Edgar ,001,2021-12-05_20h18.38.481,jm_natural_scene_simialrity_2-12-2021,2021.2.3,Win32,59.9268892,6144d595272a4e5174447ab5,61ad71e11ddd29ccf7a27d5b,61ad72c66aefb921f4a7e452,,,-42,90,1,0,0,response7disk,0.9926,-3,8,1,0,0,rectangle,-3,8,1,0,0,-4,-2,"[119,42,30,4,45,153,4,11,136,56]",-3,8,1,0,0,0,71,71,31,1,Turquiose,Turquiose.jpg,LightBlue,LightBlue.jpg,,
,,,,,,,,,,,,,,,,,,-4,,,,,,,,,,,,,,,,,,,,,,,,,,,,,,Edgar ,001,2021-12-05_20h18.38.481,jm_natural_scene_simialrity_2-12-2021,2021.2.3,Win32,59.9268892,6144d595272a4e5174447ab5,61ad71e11ddd29ccf7a27d5b,61ad72c66aefb921f4a7e452,,,-55,117,1,0,0,response7disk,2.2518,2,6,1,0,0,rectangle,2,6,1,0,0,-4,-2,"[119,42,30,4,45,153,4,11,136,56]",2,6,1,0,0,0,72,72,46,1,LightGreen,LightGreen.jpg,Red,Red.jpg,,
,,,,,,,,,,,,,,,,,,4,,,,,,,,,,,,,,,,,,,,,,,,,,,,,,Edgar ,001,2021-12-05_20h18.38.481,jm_natural_scene_simialrity_2-12-2021,2021.2.3,Win32,59.9268892,6144d595272a4e5174447ab5,61ad71e11ddd29ccf7a27d5b,61ad72c66aefb921f4a7e452,,,44,106,1,0,0,response1disk,0.65,8,10,1,0,0,rectangle,8,10,1,0,0,-4,-4,"[119,42,30,4,45,153,4,11,136,56]",8,10,1,0,0,0,73,73,9,1,Yellow,Yellow.jpg,Yellow,Yellow.jpg,,
,,,,,,,,,,,,,,,,,,-3,,,,,,,,,,,,,,,,,,,,,,,,,,,,,,Edgar ,001,2021-12-05_20h18.38.481,jm_natural_scene_simialrity_2-12-2021,2021.2.3,Win32,59.9268892,6144d595272a4e5174447ab5,61ad71e11ddd29ccf7a27d5b,61ad72c66aefb921f4a7e452,,,-80,45,1,0,0,response7disk,2.8508,10,-4,1,0,0,rectangle,10,-4,1,0,0,-4,2,"[119,42,30,4,45,153,4,11,136,56]",10,-4,1,0,0,0,74,74,3,1,Red,Red.jpg,DarkGreen,DarkGreen.jpg,,
,,,,,,,,,,,,,,,,,,-4,,,,,,,,,,,,,,,,,,,,,,,,,,,,,,Edgar ,001,2021-12-05_20h18.38.481,jm_natural_scene_simialrity_2-12-2021,2021.2.3,Win32,59.9268892,6144d595272a4e5174447ab5,61ad71e11ddd29ccf7a27d5b,61ad72c66aefb921f4a7e452,,,-44,104,1,0,0,response7disk,5.7036,10,-16,1,0,0,rectangle,10,-16,1,0,0,-4,-2,"[119,42,30,4,45,153,4,11,136,56]",10,-16,1,0,0,0,75,75,80,1,Purple,Purple.jpg,Pink,Pink.jpg,,
,,,,,,,,,,,,,,,,,,-4,,,,,,,,,,,,,,,,,,,,,,,,,,,,,,Edgar ,001,2021-12-05_20h18.38.481,jm_natural_scene_simialrity_2-12-2021,2021.2.3,Win32,59.9268892,6144d595272a4e5174447ab5,61ad71e11ddd29ccf7a27d5b,61ad72c66aefb921f4a7e452,,,-32,101,1,0,0,response7disk,1.4018,-12,9,1,0,0,rectangle,-12,9,1,0,0,-4,-3,"[119,42,30,4,45,153,4,11,136,56]",-12,9,1,0,0,0,76,76,22,1,LightGreen,LightGreen.jpg,Pink,Pink.jpg,,
,,,,,,,,,,,,,,,,,,1,,,,,,,,,,,,,,,,,,,,,,,,,,,,,,Edgar ,001,2021-12-05_20h18.38.481,jm_natural_scene_simialrity_2-12-2021,2021.2.3,Win32,59.9268892,6144d595272a4e5174447ab5,61ad71e11ddd29ccf7a27d5b,61ad72c66aefb921f4a7e452,,,64,-111,1,0,0,response3disk,3.7688,1,10,1,0,0,rectangle,1,10,1,0,0,-4,2,"[119,42,30,4,45,153,4,11,136,56]",1,10,1,0,0,0,77,77,75,1,DarkBlue,DarkBlue.jpg,LightBlue,LightBlue.jpg,,
,,,,,,,,,,,,,,,,,,3,,,,,,,,,,,,,,,,,,,,,,,,,,,,,,Edgar ,001,2021-12-05_20h18.38.481,jm_natural_scene_simialrity_2-12-2021,2021.2.3,Win32,59.9268892,6144d595272a4e5174447ab5,61ad71e11ddd29ccf7a27d5b,61ad72c66aefb921f4a7e452,,,120,33,1,0,0,response1disk,1.7335,19,6,1,0,0,rectangle,19,6,1,0,0,-4,2,"[119,42,30,4,45,153,4,11,136,56]",19,6,1,0,0,0,78,78,18,1,LightGreen,LightGreen.jpg,DarkGreen,DarkGreen.jpg,,
,,,,,,,,,,,,,,,,,,-4,,,,,,,,,,,,,,,,,,,,,,,,,,,,,,Edgar ,001,2021-12-05_20h18.38.481,jm_natural_scene_simialrity_2-12-2021,2021.2.3,Win32,59.9268892,6144d595272a4e5174447ab5,61ad71e11ddd29ccf7a27d5b,61ad72c66aefb921f4a7e452,,,-55,97,1,0,0,response7disk,2.6184,16,1,1,0,0,rectangle,16,1,1,0,0,-4,-4,"[119,42,30,4,45,153,4,11,136,56]",16,1,1,0,0,0,79,79,12,1,Yellow,Yellow.jpg,Turquiose,Turquiose.jpg,,
,,,,,,,,,,,,,,,,,,-3,,,,,,,,,,,,,,,,,,,,,,,,,,,,,,Edgar ,001,2021-12-05_20h18.38.481,jm_natural_scene_simialrity_2-12-2021,2021.2.3,Win32,59.9268892,6144d595272a4e5174447ab5,61ad71e11ddd29ccf7a27d5b,61ad72c66aefb921f4a7e452,,,-97,56,1,0,0,response7disk,2.634,8,-2,1,0,0,rectangle,8,-2,1,0,0,-4,-4,"[119,42,30,4,45,153,4,11,136,56]",8,-2,1,0,0,0,80,80,20,1,LightGreen,LightGreen.jpg,LightBlue,LightBlue.jpg,,
,,,,,,,,,,,,,,,,,,-2,,,,,,,,,,,,,,,,,,,,,,,,,,,,,,Edgar ,001,2021-12-05_20h18.38.481,jm_natural_scene_simialrity_2-12-2021,2021.2.3,Win32,59.9268892,6144d595272a4e5174447ab5,61ad71e11ddd29ccf7a27d5b,61ad72c66aefb921f4a7e452,,,-94,-36,1,0,0,response5disk,2.8366,-1,-1,1,0,0,rectangle,-1,-1,1,0,0,-4,-1,"[119,42,30,4,45,153,4,11,136,56]",-1,-1,1,0,0,1,0,81,76,1,Pink,Pink.jpg,LightBlue,LightBlue.jpg,,
,,,,,,,,,,,,,,,,,,-4,,,,,,,,,,,,,,,,,,,,,,,,,,,,,,Edgar ,001,2021-12-05_20h18.38.481,jm_natural_scene_simialrity_2-12-2021,2021.2.3,Win32,59.9268892,6144d595272a4e5174447ab5,61ad71e11ddd29ccf7a27d5b,61ad72c66aefb921f4a7e452,,,-39,104,1,0,0,response7disk,0.9841,4,18,1,0,0,rectangle,4,18,1,0,0,-4,-4,"[119,42,30,4,45,153,4,11,136,56]",4,18,1,0,0,1,1,82,12,1,Yellow,Yellow.jpg,Turquiose,Turquiose.jpg,,
,,,,,,,,,,,,,,,,,,1,,,,,,,,,,,,,,,,,,,,,,,,,,,,,,Edgar ,001,2021-12-05_20h18.38.481,jm_natural_scene_simialrity_2-12-2021,2021.2.3,Win32,59.9268892,6144d595272a4e5174447ab5,61ad71e11ddd29ccf7a27d5b,61ad72c66aefb921f4a7e452,,,53,-116,1,0,0,response3disk,1.8186,8,13,1,0,0,rectangle,8,13,1,0,0,-4,-2,"[119,42,30,4,45,153,4,11,136,56]",8,13,1,0,0,1,2,83,79,1,Purple,Purple.jpg,DarkBlue,DarkBlue.jpg,,
,,,,,,,,,,,,,,,,,,-2,,,,,,,,,,,,,,,,,,,,,,,,,,,,,,Edgar ,001,2021-12-05_20h18.38.481,jm_natural_scene_simialrity_2-12-2021,2021.2.3,Win32,59.9268892,6144d595272a4e5174447ab5,61ad71e11ddd29ccf7a27d5b,61ad72c66aefb921f4a7e452,,,-100,-52,1,0,0,response5disk,2.6024,6,-6,1,0,0,rectangle,6,-6,1,0,0,-4,2,"[119,42,30,4,45,153,4,11,136,56]",6,-6,1,0,0,1,3,84,80,1,Purple,Purple.jpg,Pink,Pink.jpg,,
,,,,,,,,,,,,,,,,,,-3,,,,,,,,,,,,,,,,,,,,,,,,,,,,,,Edgar ,001,2021-12-05_20h18.38.481,jm_natural_scene_simialrity_2-12-2021,2021.2.3,Win32,59.9268892,6144d595272a4e5174447ab5,61ad71e11ddd29ccf7a27d5b,61ad72c66aefb921f4a7e452,,,-90,49,1,0,0,response7disk,2.2345,17,-2,1,0,0,rectangle,17,-2,1,0,0,-4,-4,"[119,42,30,4,45,153,4,11,136,56]",17,-2,1,0,0,1,4,85,2,1,Red,Red.jpg,LightGreen,LightGreen.jpg,,
,,,,,,,,,,,,,,,,,,3,,,,,,,,,,,,,,,,,,,,,,,,,,,,,,Edgar ,001,2021-12-05_20h18.38.481,jm_natural_scene_simialrity_2-12-2021,2021.2.3,Win32,59.9268892,6144d595272a4e5174447ab5,61ad71e11ddd29ccf7a27d5b,61ad72c66aefb921f4a7e452,,,94,54,1,0,0,response1disk,1.3172,-17,-18,1,0,0,rectangle,-17,-18,1,0,0,-1,3,"[119,42,30,4,45,153,4,11,136,56]",-17,-18,1,0,0,1,5,86,77,1,Purple,Purple.jpg,LightBlue,LightBlue.jpg,,
,,,,,,,,,,,,,,,,,,-4,,,,,,,,,,,,,,,,,,,,,,,,,,,,,,Edgar ,001,2021-12-05_20h18.38.481,jm_natural_scene_simialrity_2-12-2021,2021.2.3,Win32,59.9268892,6144d595272a4e5174447ab5,61ad71e11ddd29ccf7a27d5b,61ad72c66aefb921f4a7e452,,,-68,94,1,0,0,response7disk,2.6002,-22,15,1,0,0,rectangle,-22,15,1,0,0,-1,-1,"[119,42,30,4,45,153,4,11,136,56]",-22,15,1,0,0,1,6,87,54,1,DarkGreen,DarkGreen.jpg,Yellow,Yellow.jpg,,
,,,,,,,,,,,,,,,,,,-4,,,,,,,,,,,,,,,,,,,,,,,,,,,,,,Edgar ,001,2021-12-05_20h18.38.481,jm_natural_scene_simialrity_2-12-2021,2021.2.3,Win32,59.9268892,6144d595272a4e5174447ab5,61ad71e11ddd29ccf7a27d5b,61ad72c66aefb921f4a7e452,,,-69,104,1,0,0,response7disk,0.9831,9,9,1,0,0,rectangle,9,9,1,0,0,-1,3,"[119,42,30,4,45,153,4,11,136,56]",9,9,1,0,0,1,7,88,6,1,Red,Red.jpg,DarkBlue,DarkBlue.jpg,,
,,,,,,,,,,,,,,,,,,-4,,,,,,,,,,,,,,,,,,,,,,,,,,,,,,Edgar ,001,2021-12-05_20h18.38.481,jm_natural_scene_simialrity_2-12-2021,2021.2.3,Win32,59.9268892,6144d595272a4e5174447ab5,61ad71e11ddd29ccf7a27d5b,61ad72c66aefb921f4a7e452,,,-22,73,1,0,0,response7disk,0.6663,12,0,1,0,0,rectangle,12,0,1,0,0,-1,-4,"[119,42,30,4,45,153,4,11,136,56]",12,0,1,0,0,1,8,89,10,1,Yellow,Yellow.jpg,LightGreen,LightGreen.jpg,,
,,,,,,,,,,,,,,,,,,4,,,,,,,,,,,,,,,,,,,,,,,,,,,,,,Edgar ,001,2021-12-05_20h18.38.481,jm_natural_scene_simialrity_2-12-2021,2021.2.3,Win32,59.9268892,6144d595272a4e5174447ab5,61ad71e11ddd29ccf7a27d5b,61ad72c66aefb921f4a7e452,,,65,102,1,0,0,response1disk,0.7003,5,20,1,0,0,rectangle,5,20,1,0,0,-1,-2,"[119,42,30,4,45,153,4,11,136,56]",5,20,1,0,0,1,9,90,17,1,LightGreen,LightGreen.jpg,LightGreen,LightGreen.jpg,,
,,,,,,,,,,,,,,,,,,-4,,,,,,,,,,,,,,,,,,,,,,,,,,,,,,Edgar ,001,2021-12-05_20h18.38.481,jm_natural_scene_simialrity_2-12-2021,2021.2.3,Win32,59.9268892,6144d595272a4e5174447ab5,61ad71e11ddd29ccf7a27d5b,61ad72c66aefb921f4a7e452,,,-62,94,1,0,0,response7disk,3.72,-6,6,1,0,0,rectangle,-6,6,1,0,0,-1,1,"[119,42,30,4,45,153,4,11,136,56]",-6,6,1,0,0,1,10,91,19,1,LightGreen,LightGreen.jpg,Turquiose,Turquiose.jpg,,
,,,,,,,,,,,,,,,,,,-4,,,,,,,,,,,,,,,,,,,,,,,,,,,,,,Edgar ,001,2021-12-05_20h18.38.481,jm_natural_scene_simialrity_2-12-2021,2021.2.3,Win32,59.9268892,6144d595272a4e5174447ab5,61ad71e11ddd29ccf7a27d5b,61ad72c66aefb921f4a7e452,,,-57,112,1,0,0,response7disk,0.8003,1,4,1,0,0,rectangle,1,4,1,0,0,-1,1,"[119,42,30,4,45,153,4,11,136,56]",1,4,1,0,0,1,11,92,21,1,LightGreen,LightGreen.jpg,DarkBlue,DarkBlue.jpg,,
,,,,,,,,,,,,,,,,,,-4,,,,,,,,,,,,,,,,,,,,,,,,,,,,,,Edgar ,001,2021-12-05_20h18.38.481,jm_natural_scene_simialrity_2-12-2021,2021.2.3,Win32,59.9268892,6144d595272a4e5174447ab5,61ad71e11ddd29ccf7a27d5b,61ad72c66aefb921f4a7e452,,,-54,96,1,0,0,response7disk,0.7019,4,6,1,0,0,rectangle,4,6,1,0,0,-1,-3,"[119,42,30,4,45,153,4,11,136,56]",4,6,1,0,0,1,12,93,47,1,DarkGreen,DarkGreen.jpg,Red,Red.jpg,,
,,,,,,,,,,,,,,,,,,-4,,,,,,,,,,,,,,,,,,,,,,,,,,,,,,Edgar ,001,2021-12-05_20h18.38.481,jm_natural_scene_simialrity_2-12-2021,2021.2.3,Win32,59.9268892,6144d595272a4e5174447ab5,61ad71e11ddd29ccf7a27d5b,61ad72c66aefb921f4a7e452,,,-39,96,1,0,0,response7disk,0.6545,12,-5,1,0,0,rectangle,12,-5,1,0,0,-1,-3,"[119,42,30,4,45,153,4,11,136,56]",12,-5,1,0,0,1,13,94,11,1,Yellow,Yellow.jpg,DarkGreen,DarkGreen.jpg,,
,,,,,,,,,,,,,,,,,,-4,,,,,,,,,,,,,,,,,,,,,,,,,,,,,,Edgar ,001,2021-12-05_20h18.38.481,jm_natural_scene_simialrity_2-12-2021,2021.2.3,Win32,59.9268892,6144d595272a4e5174447ab5,61ad71e11ddd29ccf7a27d5b,61ad72c66aefb921f4a7e452,,,-51,83,1,0,0,response7disk,0.617,9,-4,1,0,0,rectangle,9,-4,1,0,0,-1,-3,"[119,42,30,4,45,153,4,11,136,56]",9,-4,1,0,0,1,14,95,61,1,Turquiose,Turquiose.jpg,LightGreen,LightGreen.jpg,,
,,,,,,,,,,,,,,,,,,4,,,,,,,,,,,,,,,,,,,,,,,,,,,,,,Edgar ,001,2021-12-05_20h18.38.481,jm_natural_scene_simialrity_2-12-2021,2021.2.3,Win32,59.9268892,6144d595272a4e5174447ab5,61ad71e11ddd29ccf7a27d5b,61ad72c66aefb921f4a7e452,,,40,116,1,0,0,response1disk,0.6566,8,3,1,0,0,rectangle,8,3,1,0,0,-1,-1,"[119,42,30,4,45,153,4,11,136,56]",8,3,1,0,0,1,15,96,35,1,LightBlue,LightBlue.jpg,LightBlue,LightBlue.jpg,,
,,,,,,,,,,,,,,,,,,-3,,,,,,,,,,,,,,,,,,,,,,,,,,,,,,Edgar ,001,2021-12-05_20h18.38.481,jm_natural_scene_simialrity_2-12-2021,2021.2.3,Win32,59.9268892,6144d595272a4e5174447ab5,61ad71e11ddd29ccf7a27d5b,61ad72c66aefb921f4a7e452,,,-84,44,1,0,0,response7disk,1.2015,3,0,1,0,0,rectangle,3,0,1,0,0,-1,3,"[119,42,30,4,45,153,4,11,136,56]",3,0,1,0,0,1,16,97,49,1,LightBlue,LightBlue.jpg,Red,Red.jpg,,
,,,,,,,,,,,,,,,,,,2,,,,,,,,,,,,,,,,,,,,,,,,,,,,,,Edgar ,001,2021-12-05_20h18.38.481,jm_natural_scene_simialrity_2-12-2021,2021.2.3,Win32,59.9268892,6144d595272a4e5174447ab5,61ad71e11ddd29ccf7a27d5b,61ad72c66aefb921f4a7e452,,,99,-50,1,0,0,response3disk,1.602,6,-10,1,0,0,rectangle,6,-10,1,0,0,-1,-3,"[119,42,30,4,45,153,4,11,136,56]",6,-10,1,0,0,1,17,98,34,1,Turquiose,Turquiose.jpg,Purple,Purple.jpg,,
,,,,,,,,,,,,,,,,,,-4,,,,,,,,,,,,,,,,,,,,,,,,,,,,,,Edgar ,001,2021-12-05_20h18.38.481,jm_natural_scene_simialrity_2-12-2021,2021.2.3,Win32,59.9268892,6144d595272a4e5174447ab5,61ad71e11ddd29ccf7a27d5b,61ad72c66aefb921f4a7e452,,,-57,98,1,0,0,response7disk,2.902,-10,15,1,0,0,rectangle,-10,15,1,0,0,-1,-2,"[119,42,30,4,45,153,4,11,136,56]",-10,15,1,0,0,1,18,99,50,1,DarkBlue,DarkBlue.jpg,Red,Red.jpg,,
,,,,,,,,,,,,,,,,,,3,,,,,,,,,,,,,,,,,,,,,,,,,,,,,,Edgar ,001,2021-12-05_20h18.38.481,jm_natural_scene_simialrity_2-12-2021,2021.2.3,Win32,59.9268892,6144d595272a4e5174447ab5,61ad71e11ddd29ccf7a27d5b,61ad72c66aefb921f4a7e452,,,126,32,1,0,0,response1disk,2.8347,5,-4,1,0,0,rectangle,5,-4,1,0,0,-1,1,"[119,42,30,4,45,153,4,11,136,56]",5,-4,1,0,0,1,19,100,7,1,Red,Red.jpg,Pink,Pink.jpg,,
,,,,,,,,,,,,,,,,,,1,,,,,,,,,,,,,,,,,,,,,,,,,,,,,,Edgar ,001,2021-12-05_20h18.38.481,jm_natural_scene_simialrity_2-12-2021,2021.2.3,Win32,59.9268892,6144d595272a4e5174447ab5,61ad71e11ddd29ccf7a27d5b,61ad72c66aefb921f4a7e452,,,77,-94,1,0,0,response3disk,3.2099,14,-8,1,0,0,rectangle,14,-8,1,0,0,-1,3,"[119,42,30,4,45,153,4,11,136,56]",14,-8,1,0,0,1,20,101,37,1,LightBlue,LightBlue.jpg,Pink,Pink.jpg,,
,,,,,,,,,,,,,,,,,,-1,,,,,,,,,,,,,,,,,,,,,,,,,,,,,,Edgar ,001,2021-12-05_20h18.38.481,jm_natural_scene_simialrity_2-12-2021,2021.2.3,Win32,59.9268892,6144d595272a4e5174447ab5,61ad71e11ddd29ccf7a27d5b,61ad72c66aefb921f4a7e452,,,-51,-113,1,0,0,response5disk,1.5833,-8,-12,1,0,0,rectangle,-8,-12,1,0,0,-1,2,"[119,42,30,4,45,153,4,11,136,56]",-8,-12,1,0,0,1,21,102,29,1,DarkGreen,DarkGreen.jpg,Purple,Purple.jpg,,
,,,,,,,,,,,,,,,,,,4,,,,,,,,,,,,,,,,,,,,,,,,,,,,,,Edgar ,001,2021-12-05_20h18.38.481,jm_natural_scene_simialrity_2-12-2021,2021.2.3,Win32,59.9268892,6144d595272a4e5174447ab5,61ad71e11ddd29ccf7a27d5b,61ad72c66aefb921f4a7e452,,,55,111,1,0,0,response1disk,0.817,13,2,1,0,0,rectangle,13,2,1,0,0,-1,-1,"[119,42,30,4,45,153,4,11,136,56]",13,2,1,0,0,1,22,103,44,1,Purple,Purple.jpg,Purple,Purple.jpg,,
,,,,,,,,,,,,,,,,,,-1,,,,,,,,,,,,,,,,,,,,,,,,,,,,,,Edgar ,001,2021-12-05_20h18.38.481,jm_natural_scene_simialrity_2-12-2021,2021.2.3,Win32,59.9268892,6144d595272a4e5174447ab5,61ad71e11ddd29ccf7a27d5b,61ad72c66aefb921f4a7e452,,,-32,-114,1,0,0,response5disk,4.3027,4,5,1,0,0,rectangle,4,5,1,0,0,-1,3,"[119,42,30,4,45,153,4,11,136,56]",4,5,1,0,0,1,23,104,48,1,Turquiose,Turquiose.jpg,Red,Red.jpg,,
,,,,,,,,,,,,,,,,,,-2,,,,,,,,,,,,,,,,,,,,,,,,,,,,,,Edgar ,001,2021-12-05_20h18.38.481,jm_natural_scene_simialrity_2-12-2021,2021.2.3,Win32,59.9268892,6144d595272a4e5174447ab5,61ad71e11ddd29ccf7a27d5b,61ad72c66aefb921f4a7e452,,,-86,-33,1,0,0,response5disk,16.908,0,0,1,0,0,rectangle,0,0,1,0,0,-1,2,"[119,42,30,4,45,153,4,11,136,56]",0,0,1,0,0,1,24,105,4,1,Red,Red.jpg,Turquiose,Turquiose.jpg,,
,,,,,,,,,,,,,,,,,,4,,,,,,,,,,,,,,,,,,,,,,,,,,,,,,Edgar ,001,2021-12-05_20h18.38.481,jm_natural_scene_simialrity_2-12-2021,2021.2.3,Win32,59.9268892,6144d595272a4e5174447ab5,61ad71e11ddd29ccf7a27d5b,61ad72c66aefb921f4a7e452,,,46,121,1,0,0,response1disk,0.722,-1,-10,1,0,0,rectangle,-1,-10,1,0,0,-1,-3,"[119,42,30,4,45,153,4,11,136,56]",-1,-10,1,0,0,1,25,106,30,1,Turquiose,Turquiose.jpg,Turquiose,Turquiose.jpg,,
,,,,,,,,,,,,,,,,,,-4,,,,,,,,,,,,,,,,,,,,,,,,,,,,,,Edgar ,001,2021-12-05_20h18.38.481,jm_natural_scene_simialrity_2-12-2021,2021.2.3,Win32,59.9268892,6144d595272a4e5174447ab5,61ad71e11ddd29ccf7a27d5b,61ad72c66aefb921f4a7e452,,,-68,95,1,0,0,response7disk,1.3679,-5,-3,1,0,0,rectangle,-5,-3,1,0,0,-1,-4,"[119,42,30,4,45,153,4,11,136,56]",-5,-3,1,0,0,1,26,107,26,1,DarkGreen,DarkGreen.jpg,LightBlue,LightBlue.jpg,,
,,,,,,,,,,,,,,,,,,-2,,,,,,,,,,,,,,,,,,,,,,,,,,,,,,Edgar ,001,2021-12-05_20h18.38.481,jm_natural_scene_simialrity_2-12-2021,2021.2.3,Win32,59.9268892,6144d595272a4e5174447ab5,61ad71e11ddd29ccf7a27d5b,61ad72c66aefb921f4a7e452,,,-88,-45,1,0,0,response5disk,1.3499,8,7,1,0,0,rectangle,8,7,1,0,0,-1,2,"[119,42,30,4,45,153,4,11,136,56]",8,7,1,0,0,1,27,108,70,1,Purple,Purple.jpg,DarkGreen,DarkGreen.jpg,,
,,,,,,,,,,,,,,,,,,-4,,,,,,,,,,,,,,,,,,,,,,,,,,,,,,Edgar ,001,2021-12-05_20h18.38.481,jm_natural_scene_simialrity_2-12-2021,2021.2.3,Win32,59.9268892,6144d595272a4e5174447ab5,61ad71e11ddd29ccf7a27d5b,61ad72c66aefb921f4a7e452,,,-50,126,1,0,0,response7disk,1.0345,-22,9,1,0,0,rectangle,-22,9,1,0,0,-1,-4,"[119,42,30,4,45,153,4,11,136,56]",-22,9,1,0,0,1,28,109,68,1,DarkBlue,DarkBlue.jpg,DarkGreen,DarkGreen.jpg,,
,,,,,,,,,,,,,,,,,,-4,,,,,,,,,,,,,,,,,,,,,,,,,,,,,,Edgar ,001,2021-12-05_20h18.38.481,jm_natural_scene_simialrity_2-12-2021,2021.2.3,Win32,59.9268892,6144d595272a4e5174447ab5,61ad71e11ddd29ccf7a27d5b,61ad72c66aefb921f4a7e452,,,-41,105,1,0,0,response7disk,0.599,-1,3,1,0,0,rectangle,-1,3,1,0,0,-1,-1,"[119,42,30,4,45,153,4,11,136,56]",-1,3,1,0,0,1,29,110,32,1,Turquiose,Turquiose.jpg,DarkBlue,DarkBlue.jpg,,
,,,,,,,,,,,,,,,,,,-4,,,,,,,,,,,,,,,,,,,,,,,,,,,,,,Edgar ,001,2021-12-05_20h18.38.481,jm_natural_scene_simialrity_2-12-2021,2021.2.3,Win32,59.9268892,6144d595272a4e5174447ab5,61ad71e11ddd29ccf7a27d5b,61ad72c66aefb921f4a7e452,,,-49,97,1,0,0,response7disk,2.2515,-8,9,1,0,0,rectangle,-8,9,1,0,0,-1,-2,"[119,42,30,4,45,153,4,11,136,56]",-8,9,1,0,0,1,30,111,28,1,DarkGreen,DarkGreen.jpg,Pink,Pink.jpg,,
,,,,,,,,,,,,,,,,,,1,,,,,,,,,,,,,,,,,,,,,,,,,,,,,,Edgar ,001,2021-12-05_20h18.38.481,jm_natural_scene_simialrity_2-12-2021,2021.2.3,Win32,59.9268892,6144d595272a4e5174447ab5,61ad71e11ddd29ccf7a27d5b,61ad72c66aefb921f4a7e452,,,38,-117,1,0,0,response3disk,1.9848,4,1,1,0,0,rectangle,4,1,1,0,0,-1,3,"[119,42,30,4,45,153,4,11,136,56]",4,1,1,0,0,1,31,112,74,1,Purple,Purple.jpg,Turquiose,Turquiose.jpg,,
,,,,,,,,,,,,,,,,,,-1,,,,,,,,,,,,,,,,,,,,,,,,,,,,,,Edgar ,001,2021-12-05_20h18.38.481,jm_natural_scene_simialrity_2-12-2021,2021.2.3,Win32,59.9268892,6144d595272a4e5174447ab5,61ad71e11ddd29ccf7a27d5b,61ad72c66aefb921f4a7e452,,,-30,-100,1,0,0,response5disk,2.3002,-6,-9,1,0,0,rectangle,-6,-9,1,0,0,-1,1,"[119,42,30,4,45,153,4,11,136,56]",-6,-9,1,0,0,1,32,113,31,1,Turquiose,Turquiose.jpg,LightBlue,LightBlue.jpg,,
,,,,,,,,,,,,,,,,,,1,,,,,,,,,,,,,,,,,,,,,,,,,,,,,,Edgar ,001,2021-12-05_20h18.38.481,jm_natural_scene_simialrity_2-12-2021,2021.2.3,Win32,59.9268892,6144d595272a4e5174447ab5,61ad71e11ddd29ccf7a27d5b,61ad72c66aefb921f4a7e452,,,77,-93,1,0,0,response3disk,2.8227,10,22,1,0,0,rectangle,10,22,1,0,0,-1,-1,"[119,42,30,4,45,153,4,11,136,56]",10,22,1,0,0,1,33,114,18,1,LightGreen,LightGreen.jpg,DarkGreen,DarkGreen.jpg,,
,,,,,,,,,,,,,,,,,,-4,,,,,,,,,,,,,,,,,,,,,,,,,,,,,,Edgar ,001,2021-12-05_20h18.38.481,jm_natural_scene_simialrity_2-12-2021,2021.2.3,Win32,59.9268892,6144d595272a4e5174447ab5,61ad71e11ddd29ccf7a27d5b,61ad72c66aefb921f4a7e452,,,-57,100,1,0,0,response7disk,2.4348,1,9,1,0,0,rectangle,1,9,1,0,0,-1,-2,"[119,42,30,4,45,153,4,11,136,56]",1,9,1,0,0,1,34,115,20,1,LightGreen,LightGreen.jpg,LightBlue,LightBlue.jpg,,
,,,,,,,,,,,,,,,,,,-4,,,,,,,,,,,,,,,,,,,,,,,,,,,,,,Edgar ,001,2021-12-05_20h18.38.481,jm_natural_scene_simialrity_2-12-2021,2021.2.3,Win32,59.9268892,6144d595272a4e5174447ab5,61ad71e11ddd29ccf7a27d5b,61ad72c66aefb921f4a7e452,,,-66,98,1,0,0,response7disk,1.2175,8,2,1,0,0,rectangle,8,2,1,0,0,-1,-1,"[119,42,30,4,45,153,4,11,136,56]",8,2,1,0,0,1,35,116,53,1,LightGreen,LightGreen.jpg,Yellow,Yellow.jpg,,
,,,,,,,,,,,,,,,,,,1,,,,,,,,,,,,,,,,,,,,,,,,,,,,,,Edgar ,001,2021-12-05_20h18.38.481,jm_natural_scene_simialrity_2-12-2021,2021.2.3,Win32,59.9268892,6144d595272a4e5174447ab5,61ad71e11ddd29ccf7a27d5b,61ad72c66aefb921f4a7e452,,,48,-87,1,0,0,response3disk,2.0509,3,-9,1,0,0,rectangle,3,-9,1,0,0,-1,-4,"[119,42,30,4,45,153,4,11,136,56]",3,-9,1,0,0,1,36,117,1,1,Red,Red.jpg,Yellow,Yellow.jpg,,
,,,,,,,,,,,,,,,,,,-4,,,,,,,,,,,,,,,,,,,,,,,,,,,,,,Edgar ,001,2021-12-05_20h18.38.481,jm_natural_scene_simialrity_2-12-2021,2021.2.3,Win32,59.9268892,6144d595272a4e5174447ab5,61ad71e11ddd29ccf7a27d5b,61ad72c66aefb921f4a7e452,,,-44,105,1,0,0,response7disk,1.9879,-4,1,1,0,0,rectangle,37,-95,1,0,0,1,1,"[119,42,30,4,45,153,4,11,136,56]",-11,-2,1,0,0,1,37,118,43,1,Pink,Pink.jpg,Purple,Purple.jpg,response3disk_3,rectangle
,,,,,,,,,,,,,,,,,,4,,,,,,,,,,,,,,,,,,,,,,,,,,,,,,Edgar ,001,2021-12-05_20h18.38.481,jm_natural_scene_simialrity_2-12-2021,2021.2.3,Win32,59.9268892,6144d595272a4e5174447ab5,61ad71e11ddd29ccf7a27d5b,61ad72c66aefb921f4a7e452,,,20,104,1,0,0,response1disk,0.7672,-5,5,1,0,0,rectangle,-5,5,1,0,0,1,-2,"[119,42,30,4,45,153,4,11,136,56]",-5,5,1,0,0,1,38,119,9,1,Yellow,Yellow.jpg,Yellow,Yellow.jpg,,
,,,,,,,,,,,,,,,,,,1,,,,,,,,,,,,,,,,,,,,,,,,,,,,,,Edgar ,001,2021-12-05_20h18.38.481,jm_natural_scene_simialrity_2-12-2021,2021.2.3,Win32,59.9268892,6144d595272a4e5174447ab5,61ad71e11ddd29ccf7a27d5b,61ad72c66aefb921f4a7e452,,,65,-89,1,0,0,response3disk,1.6347,-2,-10,1,0,0,rectangle,-2,-10,1,0,0,1,-3,"[119,42,30,4,45,153,4,11,136,56]",-2,-10,1,0,0,1,39,120,72,1,DarkBlue,DarkBlue.jpg,Turquiose,Turquiose.jpg,,
,,,,,,,,,,,,,,,,,,-3,,,,,,,,,,,,,,,,,,,,,,,,,,,,,,Edgar ,001,2021-12-05_20h18.38.481,jm_natural_scene_simialrity_2-12-2021,2021.2.3,Win32,59.9268892,6144d595272a4e5174447ab5,61ad71e11ddd29ccf7a27d5b,61ad72c66aefb921f4a7e452,,,-89,43,1,0,0,response7disk,2.5505,13,6,1,0,0,rectangle,13,6,1,0,0,1,-4,"[119,42,30,4,45,153,4,11,136,56]",13,6,1,0,0,1,40,121,67,1,LightBlue,LightBlue.jpg,DarkGreen,DarkGreen.jpg,,
,,,,,,,,,,,,,,,,,,-4,,,,,,,,,,,,,,,,,,,,,,,,,,,,,,Edgar ,001,2021-12-05_20h18.38.481,jm_natural_scene_simialrity_2-12-2021,2021.2.3,Win32,59.9268892,6144d595272a4e5174447ab5,61ad71e11ddd29ccf7a27d5b,61ad72c66aefb921f4a7e452,,,-36,80,1,0,0,response7disk,2.219,-11,14,1,0,0,rectangle,-11,14,1,0,0,1,-3,"[119,42,30,4,45,153,4,11,136,56]",-11,14,1,0,0,1,41,122,65,1,Purple,Purple.jpg,LightGreen,LightGreen.jpg,,
,,,,,,,,,,,,,,,,,,-4,,,,,,,,,,,,,,,,,,,,,,,,,,,,,,Edgar ,001,2021-12-05_20h18.38.481,jm_natural_scene_simialrity_2-12-2021,2021.2.3,Win32,59.9268892,6144d595272a4e5174447ab5,61ad71e11ddd29ccf7a27d5b,61ad72c66aefb921f4a7e452,,,-43,83,1,0,0,response7disk,1.8846,-3,4,1,0,0,rectangle,-3,4,1,0,0,1,-1,"[119,42,30,4,45,153,4,11,136,56]",-3,4,1,0,0,1,42,123,69,1,Pink,Pink.jpg,DarkGreen,DarkGreen.jpg,,
,,,,,,,,,,,,,,,,,,4,,,,,,,,,,,,,,,,,,,,,,,,,,,,,,Edgar ,001,2021-12-05_20h18.38.481,jm_natural_scene_simialrity_2-12-2021,2021.2.3,Win32,59.9268892,6144d595272a4e5174447ab5,61ad71e11ddd29ccf7a27d5b,61ad72c66aefb921f4a7e452,,,48,116,1,0,0,response1disk,0.6511,7,20,1,0,0,rectangle,7,20,1,0,0,1,-4,"[119,42,30,4,45,153,4,11,136,56]",7,20,1,0,0,1,43,124,42,1,Pink,Pink.jpg,Pink,Pink.jpg,,
,,,,,,,,,,,,,,,,,,-3,,,,,,,,,,,,,,,,,,,,,,,,,,,,,,Edgar ,001,2021-12-05_20h18.38.481,jm_natural_scene_simialrity_2-12-2021,2021.2.3,Win32,59.9268892,6144d595272a4e5174447ab5,61ad71e11ddd29ccf7a27d5b,61ad72c66aefb921f4a7e452,,,-96,65,1,0,0,response7disk,2.3682,21,12,1,0,0,rectangle,21,12,1,0,0,1,-4,"[119,42,30,4,45,153,4,11,136,56]",21,12,1,0,0,1,44,125,23,1,LightGreen,LightGreen.jpg,Purple,Purple.jpg,,
,,,,,,,,,,,,,,,,,,-2,,,,,,,,,,,,,,,,,,,,,,,,,,,,,,Edgar ,001,2021-12-05_20h18.38.481,jm_natural_scene_simialrity_2-12-2021,2021.2.3,Win32,59.9268892,6144d595272a4e5174447ab5,61ad71e11ddd29ccf7a27d5b,61ad72c66aefb921f4a7e452,,,-78,-69,1,0,0,response5disk,2.1685,8,0,1,0,0,rectangle,8,0,1,0,0,1,-1,"[119,42,30,4,45,153,4,11,136,56]",8,0,1,0,0,1,45,126,15,1,Yellow,Yellow.jpg,Pink,Pink.jpg,,
,,,,,,,,,,,,,,,,,,-4,,,,,,,,,,,,,,,,,,,,,,,,,,,,,,Edgar ,001,2021-12-05_20h18.38.481,jm_natural_scene_simialrity_2-12-2021,2021.2.3,Win32,59.9268892,6144d595272a4e5174447ab5,61ad71e11ddd29ccf7a27d5b,61ad72c66aefb921f4a7e452,,,-42,82,1,0,0,response7disk,2.4849,-8,18,1,0,0,rectangle,-8,18,1,0,0,1,-2,"[119,42,30,4,45,153,4,11,136,56]",-8,18,1,0,0,1,46,127,3,1,Red,Red.jpg,DarkGreen,DarkGreen.jpg,,
,,,,,,,,,,,,,,,,,,1,,,,,,,,,,,,,,,,,,,,,,,,,,,,,,Edgar ,001,2021-12-05_20h18.38.481,jm_natural_scene_simialrity_2-12-2021,2021.2.3,Win32,59.9268892,6144d595272a4e5174447ab5,61ad71e11ddd29ccf7a27d5b,61ad72c66aefb921f4a7e452,,,37,-104,1,0,0,response3disk,1.5343,2,1,1,0,0,rectangle,2,1,1,0,0,1,-3,"[119,42,30,4,45,153,4,11,136,56]",2,1,1,0,0,1,47,128,75,1,DarkBlue,DarkBlue.jpg,LightBlue,LightBlue.jpg,,
,,,,,,,,,,,,,,,,,,-3,,,,,,,,,,,,,,,,,,,,,,,,,,,,,,Edgar ,001,2021-12-05_20h18.38.481,jm_natural_scene_simialrity_2-12-2021,2021.2.3,Win32,59.9268892,6144d595272a4e5174447ab5,61ad71e11ddd29ccf7a27d5b,61ad72c66aefb921f4a7e452,,,-95,41,1,0,0,response7disk,1.3994,1,3,1,0,0,rectangle,1,3,1,0,0,1,2,"[119,42,30,4,45,153,4,11,136,56]",1,3,1,0,0,1,48,129,64,1,Pink,Pink.jpg,LightGreen,LightGreen.jpg,,
,,,,,,,,,,,,,,,,,,-4,,,,,,,,,,,,,,,,,,,,,,,,,,,,,,Edgar ,001,2021-12-05_20h18.38.481,jm_natural_scene_simialrity_2-12-2021,2021.2.3,Win32,59.9268892,6144d595272a4e5174447ab5,61ad71e11ddd29ccf7a27d5b,61ad72c66aefb921f4a7e452,,,-39,99,1,0,0,response7disk,1.1169,2,2,1,0,0,rectangle,2,2,1,0,0,1,-4,"[119,42,30,4,45,153,4,11,136,56]",2,2,1,0,0,1,49,130,55,1,Turquiose,Turquiose.jpg,Yellow,Yellow.jpg,,
,,,,,,,,,,,,,,,,,,-1,,,,,,,,,,,,,,,,,,,,,,,,,,,,,,Edgar ,001,2021-12-05_20h18.38.481,jm_natural_scene_simialrity_2-12-2021,2021.2.3,Win32,59.9268892,6144d595272a4e5174447ab5,61ad71e11ddd29ccf7a27d5b,61ad72c66aefb921f4a7e452,,,-43,-111,1,0,0,response5disk,1.6838,6,-4,1,0,0,rectangle,6,-4,1,0,0,1,-2,"[119,42,30,4,45,153,4,11,136,56]",6,-4,1,0,0,1,50,131,45,1,Yellow,Yellow.jpg,Red,Red.jpg,,
,,,,,,,,,,,,,,,,,,-1,,,,,,,,,,,,,,,,,,,,,,,,,,,,,,Edgar ,001,2021-12-05_20h18.38.481,jm_natural_scene_simialrity_2-12-2021,2021.2.3,Win32,59.9268892,6144d595272a4e5174447ab5,61ad71e11ddd29ccf7a27d5b,61ad72c66aefb921f4a7e452,,,-56,-111,1,0,0,response5disk,1.5669,-8,-7,1,0,0,rectangle,-8,-7,1,0,0,1,2,"[119,42,30,4,45,153,4,11,136,56]",-8,-7,1,0,0,1,51,132,8,1,Red,Red.jpg,Purple,Purple.jpg,,
,,,,,,,,,,,,,,,,,,-2,,,,,,,,,,,,,,,,,,,,,,,,,,,,,,Edgar ,001,2021-12-05_20h18.38.481,jm_natural_scene_simialrity_2-12-2021,2021.2.3,Win32,59.9268892,6144d595272a4e5174447ab5,61ad71e11ddd29ccf7a27d5b,61ad72c66aefb921f4a7e452,,,-107,-38,1,0,0,response5disk,1.666,-3,3,1,0,0,rectangle,-3,3,1,0,0,1,-1,"[119,42,30,4,45,153,4,11,136,56]",-3,3,1,0,0,1,52,133,58,1,Pink,Pink.jpg,Yellow,Yellow.jpg,,
,,,,,,,,,,,,,,,,,,-4,,,,,,,,,,,,,,,,,,,,,,,,,,,,,,Edgar ,001,2021-12-05_20h18.38.481,jm_natural_scene_simialrity_2-12-2021,2021.2.3,Win32,59.9268892,6144d595272a4e5174447ab5,61ad71e11ddd29ccf7a27d5b,61ad72c66aefb921f4a7e452,,,-54,114,1,0,0,response7disk,1.0364,4,1,1,0,0,rectangle,4,1,1,0,0,1,-1,"[119,42,30,4,45,153,4,11,136,56]",4,1,1,0,0,1,53,134,5,1,Red,Red.jpg,LightBlue,LightBlue.jpg,,
,,,,,,,,,,,,,,,,,,-3,,,,,,,,,,,,,,,,,,,,,,,,,,,,,,Edgar ,001,2021-12-05_20h18.38.481,jm_natural_scene_simialrity_2-12-2021,2021.2.3,Win32,59.9268892,6144d595272a4e5174447ab5,61ad71e11ddd29ccf7a27d5b,61ad72c66aefb921f4a7e452,,,-98,62,1,0,0,response7disk,6.5532,4,6,1,0,0,rectangle,-69,-122,1,0,0,-1,-1,"[119,42,30,4,45,153,4,11,136,56]",-4,1,1,0,0,1,54,135,56,1,LightBlue,LightBlue.jpg,Yellow,Yellow.jpg,response5disk_3,rectangle
,,,,,,,,,,,,,,,,,,1,,,,,,,,,,,,,,,,,,,,,,,,,,,,,,Edgar ,001,2021-12-05_20h18.38.481,jm_natural_scene_simialrity_2-12-2021,2021.2.3,Win32,59.9268892,6144d595272a4e5174447ab5,61ad71e11ddd29ccf7a27d5b,61ad72c66aefb921f4a7e452,,,55,-99,1,0,0,response3disk,1.4344,-6,9,1,0,0,rectangle,-6,9,1,0,0,-1,1,"[119,42,30,4,45,153,4,11,136,56]",-6,9,1,0,0,1,55,136,38,1,LightBlue,LightBlue.jpg,Purple,Purple.jpg,,
,,,,,,,,,,,,,,,,,,4,,,,,,,,,,,,,,,,,,,,,,,,,,,,,,Edgar ,001,2021-12-05_20h18.38.481,jm_natural_scene_simialrity_2-12-2021,2021.2.3,Win32,59.9268892,6144d595272a4e5174447ab5,61ad71e11ddd29ccf7a27d5b,61ad72c66aefb921f4a7e452,,,53,115,1,0,0,response1disk,0.7505,-9,9,1,0,0,rectangle,-9,9,1,0,0,-1,-4,"[119,42,30,4,45,153,4,11,136,56]",-9,9,1,0,0,1,56,137,39,1,DarkBlue,DarkBlue.jpg,DarkBlue,DarkBlue.jpg,,
,,,,,,,,,,,,,,,,,,-4,,,,,,,,,,,,,,,,,,,,,,,,,,,,,,Edgar ,001,2021-12-05_20h18.38.481,jm_natural_scene_simialrity_2-12-2021,2021.2.3,Win32,59.9268892,6144d595272a4e5174447ab5,61ad71e11ddd29ccf7a27d5b,61ad72c66aefb921f4a7e452,,,-53,119,1,0,0,response7disk,2.6185,4,-5,1,0,0,rectangle,4,-5,1,0,0,-1,-4,"[119,42,30,4,45,153,4,11,136,56]",4,-5,1,0,0,1,57,138,27,1,DarkGreen,DarkGreen.jpg,DarkBlue,DarkBlue.jpg,,
,,,,,,,,,,,,,,,,,,-4,,,,,,,,,,,,,,,,,,,,,,,,,,,,,,Edgar ,001,2021-12-05_20h18.38.481,jm_natural_scene_simialrity_2-12-2021,2021.2.3,Win32,59.9268892,6144d595272a4e5174447ab5,61ad71e11ddd29ccf7a27d5b,61ad72c66aefb921f4a7e452,,,-42,109,1,0,0,response7disk,0.7002,4,-9,1,0,0,rectangle,4,-9,1,0,0,-1,-1,"[119,42,30,4,45,153,4,11,136,56]",4,-9,1,0,0,1,58,139,25,1,DarkGreen,DarkGreen.jpg,Turquiose,Turquiose.jpg,,
,,,,,,,,,,,,,,,,,,-4,,,,,,,,,,,,,,,,,,,,,,,,,,,,,,Edgar ,001,2021-12-05_20h18.38.481,jm_natural_scene_simialrity_2-12-2021,2021.2.3,Win32,59.9268892,6144d595272a4e5174447ab5,61ad71e11ddd29ccf7a27d5b,61ad72c66aefb921f4a7e452,,,-40,111,1,0,0,response7disk,0.5833,9,3,1,0,0,rectangle,9,3,1,0,0,-1,-3,"[119,42,30,4,45,153,4,11,136,56]",9,3,1,0,0,1,59,140,40,1,DarkBlue,DarkBlue.jpg,Pink,Pink.jpg,,
,,,,,,,,,,,,,,,,,,-4,,,,,,,,,,,,,,,,,,,,,,,,,,,,,,Edgar ,001,2021-12-05_20h18.38.481,jm_natural_scene_simialrity_2-12-2021,2021.2.3,Win32,59.9268892,6144d595272a4e5174447ab5,61ad71e11ddd29ccf7a27d5b,61ad72c66aefb921f4a7e452,,,-31,83,1,0,0,response7disk,0.5847,-1,7,1,0,0,rectangle,-1,7,1,0,0,-1,2,"[119,42,30,4,45,153,4,11,136,56]",-1,7,1,0,0,1,60,141,66,1,Turquiose,Turquiose.jpg,DarkGreen,DarkGreen.jpg,,
,,,,,,,,,,,,,,,,,,-4,,,,,,,,,,,,,,,,,,,,,,,,,,,,,,Edgar ,001,2021-12-05_20h18.38.481,jm_natural_scene_simialrity_2-12-2021,2021.2.3,Win32,59.9268892,6144d595272a4e5174447ab5,61ad71e11ddd29ccf7a27d5b,61ad72c66aefb921f4a7e452,,,-44,88,1,0,0,response7disk,0.5328,-5,-1,1,0,0,rectangle,-5,-1,1,0,0,-1,-3,"[119,42,30,4,45,153,4,11,136,56]",-5,-1,1,0,0,1,61,142,36,1,LightBlue,LightBlue.jpg,DarkBlue,DarkBlue.jpg,,
,,,,,,,,,,,,,,,,,,-1,,,,,,,,,,,,,,,,,,,,,,,,,,,,,,Edgar ,001,2021-12-05_20h18.38.481,jm_natural_scene_simialrity_2-12-2021,2021.2.3,Win32,59.9268892,6144d595272a4e5174447ab5,61ad71e11ddd29ccf7a27d5b,61ad72c66aefb921f4a7e452,,,-40,-82,1,0,0,response5disk,2.4861,-7,3,1,0,0,rectangle,-7,3,1,0,0,-1,1,"[119,42,30,4,45,153,4,11,136,56]",-7,3,1,0,0,1,62,143,41,1,DarkBlue,DarkBlue.jpg,Purple,Purple.jpg,,
,,,,,,,,,,,,,,,,,,-3,,,,,,,,,,,,,,,,,,,,,,,,,,,,,,Edgar ,001,2021-12-05_20h18.38.481,jm_natural_scene_simialrity_2-12-2021,2021.2.3,Win32,59.9268892,6144d595272a4e5174447ab5,61ad71e11ddd29ccf7a27d5b,61ad72c66aefb921f4a7e452,,,-94,37,1,0,0,response7disk,33.2524,-12,12,1,0,0,rectangle,-12,12,1,0,0,-1,1,"[119,42,30,4,45,153,4,11,136,56]",-12,12,1,0,0,1,63,144,33,1,Turquiose,Turquiose.jpg,Pink,Pink.jpg,,
,,,,,,,,,,,,,,,,,,4,,,,,,,,,,,,,,,,,,,,,,,,,,,,,,Edgar ,001,2021-12-05_20h18.38.481,jm_natural_scene_simialrity_2-12-2021,2021.2.3,Win32,59.9268892,6144d595272a4e5174447ab5,61ad71e11ddd29ccf7a27d5b,61ad72c66aefb921f4a7e452,,,61,108,1,0,0,response1disk,0.8338,5,4,1,0,0,rectangle,5,4,1,0,0,-1,3,"[119,42,30,4,45,153,4,11,136,56]",5,4,1,0,0,1,64,145,0,1,Red,Red.jpg,Red,Red.jpg,,
,,,,,,,,,,,,,,,,,,4,,,,,,,,,,,,,,,,,,,,,,,,,,,,,,Edgar ,001,2021-12-05_20h18.38.481,jm_natural_scene_simialrity_2-12-2021,2021.2.3,Win32,59.9268892,6144d595272a4e5174447ab5,61ad71e11ddd29ccf7a27d5b,61ad72c66aefb921f4a7e452,,,37,89,1,0,0,response1disk,1.0398,7,6,1,0,0,rectangle,7,6,1,0,0,-1,2,"[119,42,30,4,45,153,4,11,136,56]",7,6,1,0,0,1,65,146,78,1,Pink,Pink.jpg,DarkBlue,DarkBlue.jpg,,
,,,,,,,,,,,,,,,,,,-4,,,,,,,,,,,,,,,,,,,,,,,,,,,,,,Edgar ,001,2021-12-05_20h18.38.481,jm_natural_scene_simialrity_2-12-2021,2021.2.3,Win32,59.9268892,6144d595272a4e5174447ab5,61ad71e11ddd29ccf7a27d5b,61ad72c66aefb921f4a7e452,,,-60,98,1,0,0,response7disk,1.0975,-16,16,1,0,0,rectangle,-16,16,1,0,0,-1,3,"[119,42,30,4,45,153,4,11,136,56]",-16,16,1,0,0,1,66,147,16,1,Yellow,Yellow.jpg,Purple,Purple.jpg,,
,,,,,,,,,,,,,,,,,,-4,,,,,,,,,,,,,,,,,,,,,,,,,,,,,,Edgar ,001,2021-12-05_20h18.38.481,jm_natural_scene_simialrity_2-12-2021,2021.2.3,Win32,59.9268892,6144d595272a4e5174447ab5,61ad71e11ddd29ccf7a27d5b,61ad72c66aefb921f4a7e452,,,-47,113,1,0,0,response7disk,0.6162,-6,16,1,0,0,rectangle,-6,16,1,0,0,-1,-1,"[119,42,30,4,45,153,4,11,136,56]",-6,16,1,0,0,1,67,148,57,1,DarkBlue,DarkBlue.jpg,Yellow,Yellow.jpg,,
,,,,,,,,,,,,,,,,,,-1,,,,,,,,,,,,,,,,,,,,,,,,,,,,,,Edgar ,001,2021-12-05_20h18.38.481,jm_natural_scene_simialrity_2-12-2021,2021.2.3,Win32,59.9268892,6144d595272a4e5174447ab5,61ad71e11ddd29ccf7a27d5b,61ad72c66aefb921f4a7e452,,,-46,-104,1,0,0,response5disk,1.5709,10,3,1,0,0,rectangle,10,3,1,0,0,-1,3,"[119,42,30,4,45,153,4,11,136,56]",10,3,1,0,0,1,68,149,59,1,Purple,Purple.jpg,Yellow,Yellow.jpg,,
,,,,,,,,,,,,,,,,,,-4,,,,,,,,,,,,,,,,,,,,,,,,,,,,,,Edgar ,001,2021-12-05_20h18.38.481,jm_natural_scene_simialrity_2-12-2021,2021.2.3,Win32,59.9268892,6144d595272a4e5174447ab5,61ad71e11ddd29ccf7a27d5b,61ad72c66aefb921f4a7e452,,,-40,95,1,0,0,response7disk,0.8478,0,20,1,0,0,rectangle,0,20,1,0,0,-1,2,"[119,42,30,4,45,153,4,11,136,56]",0,20,1,0,0,1,69,150,14,1,Yellow,Yellow.jpg,DarkBlue,DarkBlue.jpg,,
,,,,,,,,,,,,,,,,,,-1,,,,,,,,,,,,,,,,,,,,,,,,,,,,,,Edgar ,001,2021-12-05_20h18.38.481,jm_natural_scene_simialrity_2-12-2021,2021.2.3,Win32,59.9268892,6144d595272a4e5174447ab5,61ad71e11ddd29ccf7a27d5b,61ad72c66aefb921f4a7e452,,,-32,-113,1,0,0,response5disk,1.5337,0,-5,1,0,0,rectangle,0,-5,1,0,0,-1,-3,"[119,42,30,4,45,153,4,11,136,56]",0,-5,1,0,0,1,70,151,52,1,Purple,Purple.jpg,Red,Red.jpg,,
,,,,,,,,,,,,,,,,,,-4,,,,,,,,,,,,,,,,,,,,,,,,,,,,,,Edgar ,001,2021-12-05_20h18.38.481,jm_natural_scene_simialrity_2-12-2021,2021.2.3,Win32,59.9268892,6144d595272a4e5174447ab5,61ad71e11ddd29ccf7a27d5b,61ad72c66aefb921f4a7e452,,,-40,84,1,0,0,response7disk,0.8628,5,19,1,0,0,rectangle,31,-85,1,0,0,1,1,"[119,42,30,4,45,153,4,11,136,56]",-11,2,1,0,0,1,71,152,73,1,Pink,Pink.jpg,Turquiose,Turquiose.jpg,response3disk_3,rectangle
,,,,,,,,,,,,,,,,,,-4,,,,,,,,,,,,,,,,,,,,,,,,,,,,,,Edgar ,001,2021-12-05_20h18.38.481,jm_natural_scene_simialrity_2-12-2021,2021.2.3,Win32,59.9268892,6144d595272a4e5174447ab5,61ad71e11ddd29ccf7a27d5b,61ad72c66aefb921f4a7e452,,,-57,104,1,0,0,response7disk,0.6967,-7,15,1,0,0,rectangle,-7,15,1,0,0,1,-1,"[119,42,30,4,45,153,4,11,136,56]",-7,15,1,0,0,1,72,153,13,1,Yellow,Yellow.jpg,LightBlue,LightBlue.jpg,,
,,,,,,,,,,,,,,,,,,1,,,,,,,,,,,,,,,,,,,,,,,,,,,,,,Edgar ,001,2021-12-05_20h18.38.481,jm_natural_scene_simialrity_2-12-2021,2021.2.3,Win32,59.9268892,6144d595272a4e5174447ab5,61ad71e11ddd29ccf7a27d5b,61ad72c66aefb921f4a7e452,,,66,-100,1,0,0,response3disk,1.6509,-3,-1,1,0,0,rectangle,-3,-1,1,0,0,1,1,"[119,42,30,4,45,153,4,11,136,56]",-3,-1,1,0,0,1,73,154,71,1,LightBlue,LightBlue.jpg,Turquiose,Turquiose.jpg,,
,,,,,,,,,,,,,,,,,,3,,,,,,,,,,,,,,,,,,,,,,,,,,,,,,Edgar ,001,2021-12-05_20h18.38.481,jm_natural_scene_simialrity_2-12-2021,2021.2.3,Win32,59.9268892,6144d595272a4e5174447ab5,61ad71e11ddd29ccf7a27d5b,61ad72c66aefb921f4a7e452,,,101,32,1,0,0,response1disk,2.9844,-3,-4,1,0,0,rectangle,-3,-4,1,0,0,1,1,"[119,42,30,4,45,153,4,11,136,56]",-3,-4,1,0,0,1,74,155,60,1,DarkGreen,DarkGreen.jpg,LightGreen,LightGreen.jpg,,
,,,,,,,,,,,,,,,,,,1,,,,,,,,,,,,,,,,,,,,,,,,,,,,,,Edgar ,001,2021-12-05_20h18.38.481,jm_natural_scene_simialrity_2-12-2021,2021.2.3,Win32,59.9268892,6144d595272a4e5174447ab5,61ad71e11ddd29ccf7a27d5b,61ad72c66aefb921f4a7e452,,,59,-101,1,0,0,response3disk,2.772,6,-12,1,0,0,rectangle,6,-12,1,0,0,1,-2,"[119,42,30,4,45,153,4,11,136,56]",6,-12,1,0,0,1,75,156,51,1,Pink,Pink.jpg,Red,Red.jpg,,
,,,,,,,,,,,,,,,,,,-4,,,,,,,,,,,,,,,,,,,,,,,,,,,,,,Edgar ,001,2021-12-05_20h18.38.481,jm_natural_scene_simialrity_2-12-2021,2021.2.3,Win32,59.9268892,6144d595272a4e5174447ab5,61ad71e11ddd29ccf7a27d5b,61ad72c66aefb921f4a7e452,,,-33,96,1,0,0,response7disk,1.2164,10,-2,1,0,0,rectangle,10,-2,1,0,0,1,-3,"[119,42,30,4,45,153,4,11,136,56]",10,-2,1,0,0,1,76,157,22,1,LightGreen,LightGreen.jpg,Pink,Pink.jpg,,
,,,,,,,,,,,,,,,,,,-4,,,,,,,,,,,,,,,,,,,,,,,,,,,,,,Edgar ,001,2021-12-05_20h18.38.481,jm_natural_scene_simialrity_2-12-2021,2021.2.3,Win32,59.9268892,6144d595272a4e5174447ab5,61ad71e11ddd29ccf7a27d5b,61ad72c66aefb921f4a7e452,,,-38,95,1,0,0,response7disk,1.8833,-17,11,1,0,0,rectangle,-17,11,1,0,0,1,3,"[119,42,30,4,45,153,4,11,136,56]",-17,11,1,0,0,1,77,158,62,1,LightBlue,LightBlue.jpg,LightGreen,LightGreen.jpg,,
,,,,,,,,,,,,,,,,,,-4,,,,,,,,,,,,,,,,,,,,,,,,,,,,,,Edgar ,001,2021-12-05_20h18.38.481,jm_natural_scene_simialrity_2-12-2021,2021.2.3,Win32,59.9268892,6144d595272a4e5174447ab5,61ad71e11ddd29ccf7a27d5b,61ad72c66aefb921f4a7e452,,,-33,94,1,0,0,response7disk,1.0241,-7,-7,1,0,0,rectangle,-7,-7,1,0,0,1,1,"[119,42,30,4,45,153,4,11,136,56]",-7,-7,1,0,0,1,78,159,63,1,DarkBlue,DarkBlue.jpg,LightGreen,LightGreen.jpg,,
,,,,,,,,,,,,,,,,,,4,,,,,,,,,,,,,,,,,,,,,,,,,,,,,,Edgar ,001,2021-12-05_20h18.38.481,jm_natural_scene_simialrity_2-12-2021,2021.2.3,Win32,59.9268892,6144d595272a4e5174447ab5,61ad71e11ddd29ccf7a27d5b,61ad72c66aefb921f4a7e452,,,29,100,1,0,0,response1disk,0.7671,-4,12,1,0,0,rectangle,-4,12,1,0,0,1,-4,"[119,42,30,4,45,153,4,11,136,56]",-4,12,1,0,0,1,79,160,24,1,DarkGreen,DarkGreen.jpg,DarkGreen,DarkGreen.jpg,,
,,,,,,,,,,,,,,,,,,-4,,,,,,,,,,,,,,,,,,,,,,,,,,,,,,Edgar ,001,2021-12-05_20h18.38.481,jm_natural_scene_simialrity_2-12-2021,2021.2.3,Win32,59.9268892,6144d595272a4e5174447ab5,61ad71e11ddd29ccf7a27d5b,61ad72c66aefb921f4a7e452,,,-57,95,1,0,0,response7disk,2.0345,-4,9,1,0,0,rectangle,-4,9,1,0,0,1,-2,"[119,42,30,4,45,153,4,11,136,56]",-4,9,1,0,0,1,80,161,46,1,LightGreen,LightGreen.jpg,Red,Red.jpg,,
