key_resp.keys,key_resp.rt,key_resp_16.keys,key_resp_16.rt,key_resp_2.keys,key_resp_2.rt,key_resp_3.keys,key_resp_3.rt,key_resp_19.keys,key_resp_19.rt,key_resp_10.keys,key_resp_10.rt,mouse_prac.x,mouse_prac.y,mouse_prac.leftButton,mouse_prac.midButton,mouse_prac.rightButton,mouse_prac.clicked_name,similarity,mouse_10.x,mouse_10.y,mouse_10.leftButton,mouse_10.midButton,mouse_10.rightButton,mouse_10.clicked_name,mouse_catch_prac.x,mouse_catch_prac.y,mouse_catch_prac.leftButton,mouse_catch_prac.midButton,mouse_catch_prac.rightButton,catchnumberprac,mouse_6.x,mouse_6.y,mouse_6.leftButton,mouse_6.midButton,mouse_6.rightButton,during_prac.thisRepN,during_prac.thisTrialN,during_prac.thisN,during_prac.thisIndex,during_prac.ran,trailimage1,trial1adress,trailimage2,trial2adress,participant,session,date,expName,psychopyVersion,OS,frameRate,PROLIFIC_PID,STUDY_ID,SESSION_ID,mouse_catch_prac.clicked_name,catchprac,mouse_6.clicked_name,key_resp_22.keys,key_resp_22.rt,mouse.x,mouse.y,mouse.leftButton,mouse.midButton,mouse.rightButton,mouse.clicked_name,response_time,mouse_2.x,mouse_2.y,mouse_2.leftButton,mouse_2.midButton,mouse_2.rightButton,mouse_2.clicked_name,mouse_3.x,mouse_3.y,mouse_3.leftButton,mouse_3.midButton,mouse_3.rightButton,catchresponse,catchnumber,catchtrialorder,mouse_11.x,mouse_11.y,mouse_11.leftButton,mouse_11.midButton,mouse_11.rightButton,trials_2.thisRepN,trials_2.thisTrialN,trials_2.thisN,trials_2.thisIndex,trials_2.ran,image1,image1adress,image2,image2adress,mouse_3.clicked_name,mouse_11.clicked_name
space,9.4592,space,43.1118,space,53.7142,space,132.0987,space,45.7518,space,8.8412,123,-39,1,0,0,response3disk_5,2,-3,4,1,0,0,rectangle_8,-3,4,1,0,0,-4,-3,4,1,0,0,0,0,0,1,1,trail1,trail1.jpg,trail2,trail2.jpg,Etha,001,2021-12-05_20h17.45.333,jm_natural_scene_simialrity_2-12-2021,2021.2.3,Win32,59.58410296,613b86dafc386be5570e1178,61ad71e11ddd29ccf7a27d5b,61ad72757df3282a4f98578a,,,,,,,,,,,,,,,,,,,,,,,,,,,,,,,,,,,,,,,,,,
,,,,,,,,,,,,-50,-82,1,0,0,response5disk_5,-1,-1,-5,1,0,0,rectangle_8,-46,100,1,0,0,-4,-6,-1,1,0,0,0,1,1,0,1,trail1,trail1.jpg,trail1,trail1.jpg,Etha,001,2021-12-05_20h17.45.333,jm_natural_scene_simialrity_2-12-2021,2021.2.3,Win32,59.58410296,613b86dafc386be5570e1178,61ad71e11ddd29ccf7a27d5b,61ad72757df3282a4f98578a,response7disk_7,-4,rectangle_4,,,,,,,,,,,,,,,,,,,,,,,,,,,,,,,,,,,,,,,
,,,,,,,,,,,,46,114,1,0,0,response1disk_5,4,-2,-2,1,0,0,rectangle_8,-2,-2,1,0,0,-4,-2,-2,1,0,0,0,2,2,3,1,trail2,trail2.jpg,trail2,trail2.jpg,Etha,001,2021-12-05_20h17.45.333,jm_natural_scene_simialrity_2-12-2021,2021.2.3,Win32,59.58410296,613b86dafc386be5570e1178,61ad71e11ddd29ccf7a27d5b,61ad72757df3282a4f98578a,,,,,,,,,,,,,,,,,,,,,,,,,,,,,,,,,,,,,,,,,,
,,,,,,,,,,,,-81,50,1,0,0,response7disk_5,-3,-4,-5,1,0,0,rectangle_8,-4,-5,1,0,0,-4,-4,-5,1,0,0,0,3,3,4,1,trail2,trail2.jpg,trail3,trail3.jpg,Etha,001,2021-12-05_20h17.45.333,jm_natural_scene_simialrity_2-12-2021,2021.2.3,Win32,59.58410296,613b86dafc386be5570e1178,61ad71e11ddd29ccf7a27d5b,61ad72757df3282a4f98578a,,,,,,,,,,,,,,,,,,,,,,,,,,,,,,,,,,,,,,,,,,
,,,,,,,,,,,,38,103,1,0,0,response1disk_5,4,-6,6,1,0,0,rectangle_8,-6,6,1,0,0,-4,-6,6,1,0,0,0,4,4,5,1,trail3,trail3.jpg,trail3,trail3.jpg,Etha,001,2021-12-05_20h17.45.333,jm_natural_scene_simialrity_2-12-2021,2021.2.3,Win32,59.58410296,613b86dafc386be5570e1178,61ad71e11ddd29ccf7a27d5b,61ad72757df3282a4f98578a,,,,,,,,,,,,,,,,,,,,,,,,,,,,,,,,,,,,,,,,,,
,,,,,,,,,,,,65,39,1,0,0,response1disk_5,3,-5,4,1,0,0,rectangle_8,-5,4,1,0,0,-4,-5,4,1,0,0,0,5,5,2,1,trail1,trail1.jpg,trail3,trail3.jpg,Etha,001,2021-12-05_20h17.45.333,jm_natural_scene_simialrity_2-12-2021,2021.2.3,Win32,59.58410296,613b86dafc386be5570e1178,61ad71e11ddd29ccf7a27d5b,61ad72757df3282a4f98578a,,,,,,,,,,,,,,,,,,,,,,,,,,,,,,,,,,,,,,,,,,
,,,,,,,,,,,,,,,,,,4,,,,,,,,,,,,,,,,,,,,,,,,,,,Etha,001,2021-12-05_20h17.45.333,jm_natural_scene_simialrity_2-12-2021,2021.2.3,Win32,59.58410296,613b86dafc386be5570e1178,61ad71e11ddd29ccf7a27d5b,61ad72757df3282a4f98578a,,,,space,4.196,60,124,1,0,0,response1disk,1.2208,-2,9,1,0,0,rectangle,-2,9,1,0,0,,3,"[113,121,158,132,96,110,124,90,141,18]",-2,9,1,0,0,0,0,0,0,1,Red,Red.jpg,Red,Red.jpg,,
,,,,,,,,,,,,,,,,,,-4,,,,,,,,,,,,,,,,,,,,,,,,,,,Etha,001,2021-12-05_20h17.45.333,jm_natural_scene_simialrity_2-12-2021,2021.2.3,Win32,59.58410296,613b86dafc386be5570e1178,61ad71e11ddd29ccf7a27d5b,61ad72757df3282a4f98578a,,,,,,-62,80,1,0,0,response7disk,1.6354,-11,-2,1,0,0,rectangle,-11,-2,1,0,0,,2,"[113,121,158,132,96,110,124,90,141,18]",-11,-2,1,0,0,0,1,1,64,1,Pink,Pink.jpg,LightGreen,LightGreen.jpg,,
,,,,,,,,,,,,,,,,,,4,,,,,,,,,,,,,,,,,,,,,,,,,,,Etha,001,2021-12-05_20h17.45.333,jm_natural_scene_simialrity_2-12-2021,2021.2.3,Win32,59.58410296,613b86dafc386be5570e1178,61ad71e11ddd29ccf7a27d5b,61ad72757df3282a4f98578a,,,,,,34,104,1,0,0,response1disk,0.8184,-23,-3,1,0,0,rectangle,-23,-3,1,0,0,,-1,"[113,121,158,132,96,110,124,90,141,18]",-23,-3,1,0,0,0,2,2,24,1,DarkGreen,DarkGreen.jpg,DarkGreen,DarkGreen.jpg,,
,,,,,,,,,,,,,,,,,,-4,,,,,,,,,,,,,,,,,,,,,,,,,,,Etha,001,2021-12-05_20h17.45.333,jm_natural_scene_simialrity_2-12-2021,2021.2.3,Win32,59.58410296,613b86dafc386be5570e1178,61ad71e11ddd29ccf7a27d5b,61ad72757df3282a4f98578a,,,,,,-51,107,1,0,0,response7disk,1.4568,-1,-6,1,0,0,rectangle,-1,-6,1,0,0,,-2,"[113,121,158,132,96,110,124,90,141,18]",-1,-6,1,0,0,0,3,3,19,1,LightGreen,LightGreen.jpg,Turquiose,Turquiose.jpg,,
,,,,,,,,,,,,,,,,,,4,,,,,,,,,,,,,,,,,,,,,,,,,,,Etha,001,2021-12-05_20h17.45.333,jm_natural_scene_simialrity_2-12-2021,2021.2.3,Win32,59.58410296,613b86dafc386be5570e1178,61ad71e11ddd29ccf7a27d5b,61ad72757df3282a4f98578a,,,,,,27,89,1,0,0,response1disk,0.8447,-10,13,1,0,0,rectangle,-10,13,1,0,0,,1,"[113,121,158,132,96,110,124,90,141,18]",-10,13,1,0,0,0,4,4,9,1,Yellow,Yellow.jpg,Yellow,Yellow.jpg,,
,,,,,,,,,,,,,,,,,,-2,,,,,,,,,,,,,,,,,,,,,,,,,,,Etha,001,2021-12-05_20h17.45.333,jm_natural_scene_simialrity_2-12-2021,2021.2.3,Win32,59.58410296,613b86dafc386be5570e1178,61ad71e11ddd29ccf7a27d5b,61ad72757df3282a4f98578a,,,,,,-65,-52,1,0,0,response5disk,2.1604,-2,3,1,0,0,rectangle,-2,3,1,0,0,,1,"[113,121,158,132,96,110,124,90,141,18]",-2,3,1,0,0,0,5,5,80,1,Purple,Purple.jpg,Pink,Pink.jpg,,
,,,,,,,,,,,,,,,,,,-3,,,,,,,,,,,,,,,,,,,,,,,,,,,Etha,001,2021-12-05_20h17.45.333,jm_natural_scene_simialrity_2-12-2021,2021.2.3,Win32,59.58410296,613b86dafc386be5570e1178,61ad71e11ddd29ccf7a27d5b,61ad72757df3282a4f98578a,,,,,,-72,42,1,0,0,response7disk,1.8739,-1,-1,1,0,0,rectangle,-1,-1,1,0,0,,2,"[113,121,158,132,96,110,124,90,141,18]",-1,-1,1,0,0,0,6,6,28,1,DarkGreen,DarkGreen.jpg,Pink,Pink.jpg,,
,,,,,,,,,,,,,,,,,,-3,,,,,,,,,,,,,,,,,,,,,,,,,,,Etha,001,2021-12-05_20h17.45.333,jm_natural_scene_simialrity_2-12-2021,2021.2.3,Win32,59.58410296,613b86dafc386be5570e1178,61ad71e11ddd29ccf7a27d5b,61ad72757df3282a4f98578a,,,,,,-73,43,1,0,0,response7disk,1.2388,-4,0,1,0,0,rectangle,-4,0,1,0,0,,-2,"[113,121,158,132,96,110,124,90,141,18]",-4,0,1,0,0,0,7,7,40,1,DarkBlue,DarkBlue.jpg,Pink,Pink.jpg,,
,,,,,,,,,,,,,,,,,,-2,,,,,,,,,,,,,,,,,,,,,,,,,,,Etha,001,2021-12-05_20h17.45.333,jm_natural_scene_simialrity_2-12-2021,2021.2.3,Win32,59.58410296,613b86dafc386be5570e1178,61ad71e11ddd29ccf7a27d5b,61ad72757df3282a4f98578a,,,,,,-74,-44,1,0,0,response5disk,2.0062,8,-5,1,0,0,rectangle,8,-5,1,0,0,,3,"[113,121,158,132,96,110,124,90,141,18]",8,-5,1,0,0,0,8,8,52,1,Purple,Purple.jpg,Red,Red.jpg,,
,,,,,,,,,,,,,,,,,,-3,,,,,,,,,,,,,,,,,,,,,,,,,,,Etha,001,2021-12-05_20h17.45.333,jm_natural_scene_simialrity_2-12-2021,2021.2.3,Win32,59.58410296,613b86dafc386be5570e1178,61ad71e11ddd29ccf7a27d5b,61ad72757df3282a4f98578a,,,,,,-68,28,1,0,0,response7disk,2.3749,-3,-1,1,0,0,rectangle,-3,-1,1,0,0,,3,"[113,121,158,132,96,110,124,90,141,18]",-3,-1,1,0,0,0,9,9,21,1,LightGreen,LightGreen.jpg,DarkBlue,DarkBlue.jpg,,
,,,,,,,,,,,,,,,,,,4,,,,,,,,,,,,,,,,,,,,,,,,,,,Etha,001,2021-12-05_20h17.45.333,jm_natural_scene_simialrity_2-12-2021,2021.2.3,Win32,59.58410296,613b86dafc386be5570e1178,61ad71e11ddd29ccf7a27d5b,61ad72757df3282a4f98578a,,,,,,63,110,1,0,0,response1disk,0.9751,0,13,1,0,0,rectangle,0,13,1,0,0,,1,"[113,121,158,132,96,110,124,90,141,18]",0,13,1,0,0,0,10,10,17,1,LightGreen,LightGreen.jpg,LightGreen,LightGreen.jpg,,
,,,,,,,,,,,,,,,,,,-3,,,,,,,,,,,,,,,,,,,,,,,,,,,Etha,001,2021-12-05_20h17.45.333,jm_natural_scene_simialrity_2-12-2021,2021.2.3,Win32,59.58410296,613b86dafc386be5570e1178,61ad71e11ddd29ccf7a27d5b,61ad72757df3282a4f98578a,,,,,,-66,44,1,0,0,response7disk,1.6261,-8,7,1,0,0,rectangle,-8,7,1,0,0,,-3,"[113,121,158,132,96,110,124,90,141,18]",-8,7,1,0,0,0,11,11,12,1,Yellow,Yellow.jpg,Turquiose,Turquiose.jpg,,
,,,,,,,,,,,,,,,,,,-4,,,,,,,,,,,,,,,,,,,,,,,,,,,Etha,001,2021-12-05_20h17.45.333,jm_natural_scene_simialrity_2-12-2021,2021.2.3,Win32,59.58410296,613b86dafc386be5570e1178,61ad71e11ddd29ccf7a27d5b,61ad72757df3282a4f98578a,,,,,,-54,121,1,0,0,response7disk,1.0624,-3,4,1,0,0,rectangle,-3,4,1,0,0,,-1,"[113,121,158,132,96,110,124,90,141,18]",-3,4,1,0,0,0,12,12,50,1,DarkBlue,DarkBlue.jpg,Red,Red.jpg,,
,,,,,,,,,,,,,,,,,,-4,,,,,,,,,,,,,,,,,,,,,,,,,,,Etha,001,2021-12-05_20h17.45.333,jm_natural_scene_simialrity_2-12-2021,2021.2.3,Win32,59.58410296,613b86dafc386be5570e1178,61ad71e11ddd29ccf7a27d5b,61ad72757df3282a4f98578a,,,,,,-53,100,1,0,0,response7disk,1.1238,-2,6,1,0,0,rectangle,-2,6,1,0,0,,2,"[113,121,158,132,96,110,124,90,141,18]",-2,6,1,0,0,0,13,13,62,1,LightBlue,LightBlue.jpg,LightGreen,LightGreen.jpg,,
,,,,,,,,,,,,,,,,,,4,,,,,,,,,,,,,,,,,,,,,,,,,,,Etha,001,2021-12-05_20h17.45.333,jm_natural_scene_simialrity_2-12-2021,2021.2.3,Win32,59.58410296,613b86dafc386be5570e1178,61ad71e11ddd29ccf7a27d5b,61ad72757df3282a4f98578a,,,,,,31,97,1,0,0,response1disk,0.886,0,21,1,0,0,rectangle,0,21,1,0,0,,-3,"[113,121,158,132,96,110,124,90,141,18]",0,21,1,0,0,0,14,14,30,1,Turquiose,Turquiose.jpg,Turquiose,Turquiose.jpg,,
,,,,,,,,,,,,,,,,,,-4,,,,,,,,,,,,,,,,,,,,,,,,,,,Etha,001,2021-12-05_20h17.45.333,jm_natural_scene_simialrity_2-12-2021,2021.2.3,Win32,59.58410296,613b86dafc386be5570e1178,61ad71e11ddd29ccf7a27d5b,61ad72757df3282a4f98578a,,,,,,-35,90,1,0,0,response7disk,1.5397,5,16,1,0,0,rectangle,5,16,1,0,0,,-4,"[113,121,158,132,96,110,124,90,141,18]",5,16,1,0,0,0,15,15,29,1,DarkGreen,DarkGreen.jpg,Purple,Purple.jpg,,
,,,,,,,,,,,,,,,,,,3,,,,,,,,,,,,,,,,,,,,,,,,,,,Etha,001,2021-12-05_20h17.45.333,jm_natural_scene_simialrity_2-12-2021,2021.2.3,Win32,59.58410296,613b86dafc386be5570e1178,61ad71e11ddd29ccf7a27d5b,61ad72757df3282a4f98578a,,,,,,97,53,1,0,0,response1disk,2.0249,-4,2,1,0,0,rectangle,-4,2,1,0,0,,-4,"[113,121,158,132,96,110,124,90,141,18]",-4,2,1,0,0,0,16,16,60,1,DarkGreen,DarkGreen.jpg,LightGreen,LightGreen.jpg,,
,,,,,,,,,,,,,,,,,,1,,,,,,,,,,,,,,,,,,,,,,,,,,,Etha,001,2021-12-05_20h17.45.333,jm_natural_scene_simialrity_2-12-2021,2021.2.3,Win32,59.58410296,613b86dafc386be5570e1178,61ad71e11ddd29ccf7a27d5b,61ad72757df3282a4f98578a,,,,,,34,-83,1,0,0,response3disk,2.3315,2,4,1,0,0,rectangle,-121,55,1,0,0,-3,-3,"[113,121,158,132,96,110,124,90,141,18]",-3,-4,1,0,0,0,17,17,75,1,DarkBlue,DarkBlue.jpg,LightBlue,LightBlue.jpg,response7disk_3,rectangle
,,,,,,,,,,,,,,,,,,1,,,,,,,,,,,,,,,,,,,,,,,,,,,Etha,001,2021-12-05_20h17.45.333,jm_natural_scene_simialrity_2-12-2021,2021.2.3,Win32,59.58410296,613b86dafc386be5570e1178,61ad71e11ddd29ccf7a27d5b,61ad72757df3282a4f98578a,,,,,,47,-76,1,0,0,response3disk,2.2644,-13,-1,1,0,0,rectangle,-13,-1,1,0,0,-3,-1,"[113,121,158,132,96,110,124,90,141,18]",-13,-1,1,0,0,0,18,18,36,1,LightBlue,LightBlue.jpg,DarkBlue,DarkBlue.jpg,,
,,,,,,,,,,,,,,,,,,1,,,,,,,,,,,,,,,,,,,,,,,,,,,Etha,001,2021-12-05_20h17.45.333,jm_natural_scene_simialrity_2-12-2021,2021.2.3,Win32,59.58410296,613b86dafc386be5570e1178,61ad71e11ddd29ccf7a27d5b,61ad72757df3282a4f98578a,,,,,,46,-85,1,0,0,response3disk,1.779,-1,1,1,0,0,rectangle,-1,1,1,0,0,-3,-1,"[113,121,158,132,96,110,124,90,141,18]",-1,1,1,0,0,0,19,19,74,1,Purple,Purple.jpg,Turquiose,Turquiose.jpg,,
,,,,,,,,,,,,,,,,,,-2,,,,,,,,,,,,,,,,,,,,,,,,,,,Etha,001,2021-12-05_20h17.45.333,jm_natural_scene_simialrity_2-12-2021,2021.2.3,Win32,59.58410296,613b86dafc386be5570e1178,61ad71e11ddd29ccf7a27d5b,61ad72757df3282a4f98578a,,,,,,-69,-35,1,0,0,response5disk,1.5941,4,9,1,0,0,rectangle,4,9,1,0,0,-3,-3,"[113,121,158,132,96,110,124,90,141,18]",4,9,1,0,0,0,20,20,20,1,LightGreen,LightGreen.jpg,LightBlue,LightBlue.jpg,,
,,,,,,,,,,,,,,,,,,-2,,,,,,,,,,,,,,,,,,,,,,,,,,,Etha,001,2021-12-05_20h17.45.333,jm_natural_scene_simialrity_2-12-2021,2021.2.3,Win32,59.58410296,613b86dafc386be5570e1178,61ad71e11ddd29ccf7a27d5b,61ad72757df3282a4f98578a,,,,,,-77,-26,1,0,0,response5disk,1.3192,-2,9,1,0,0,rectangle,-2,9,1,0,0,-3,-2,"[113,121,158,132,96,110,124,90,141,18]",-2,9,1,0,0,0,21,21,23,1,LightGreen,LightGreen.jpg,Purple,Purple.jpg,,
,,,,,,,,,,,,,,,,,,-2,,,,,,,,,,,,,,,,,,,,,,,,,,,Etha,001,2021-12-05_20h17.45.333,jm_natural_scene_simialrity_2-12-2021,2021.2.3,Win32,59.58410296,613b86dafc386be5570e1178,61ad71e11ddd29ccf7a27d5b,61ad72757df3282a4f98578a,,,,,,-75,-28,1,0,0,response5disk,1.4765,-2,-7,1,0,0,rectangle,-2,-7,1,0,0,-3,-4,"[113,121,158,132,96,110,124,90,141,18]",-2,-7,1,0,0,0,22,22,13,1,Yellow,Yellow.jpg,LightBlue,LightBlue.jpg,,
,,,,,,,,,,,,,,,,,,-2,,,,,,,,,,,,,,,,,,,,,,,,,,,Etha,001,2021-12-05_20h17.45.333,jm_natural_scene_simialrity_2-12-2021,2021.2.3,Win32,59.58410296,613b86dafc386be5570e1178,61ad71e11ddd29ccf7a27d5b,61ad72757df3282a4f98578a,,,,,,-88,-43,1,0,0,response5disk,1.0788,-8,3,1,0,0,rectangle,-8,3,1,0,0,-3,-3,"[113,121,158,132,96,110,124,90,141,18]",-8,3,1,0,0,0,23,23,6,1,Red,Red.jpg,DarkBlue,DarkBlue.jpg,,
,,,,,,,,,,,,,,,,,,-2,,,,,,,,,,,,,,,,,,,,,,,,,,,Etha,001,2021-12-05_20h17.45.333,jm_natural_scene_simialrity_2-12-2021,2021.2.3,Win32,59.58410296,613b86dafc386be5570e1178,61ad71e11ddd29ccf7a27d5b,61ad72757df3282a4f98578a,,,,,,-57,-40,1,0,0,response5disk,1.2275,-1,-10,1,0,0,rectangle,-1,-10,1,0,0,-3,3,"[113,121,158,132,96,110,124,90,141,18]",-1,-10,1,0,0,0,24,24,4,1,Red,Red.jpg,Turquiose,Turquiose.jpg,,
,,,,,,,,,,,,,,,,,,4,,,,,,,,,,,,,,,,,,,,,,,,,,,Etha,001,2021-12-05_20h17.45.333,jm_natural_scene_simialrity_2-12-2021,2021.2.3,Win32,59.58410296,613b86dafc386be5570e1178,61ad71e11ddd29ccf7a27d5b,61ad72757df3282a4f98578a,,,,,,58,99,1,0,0,response1disk,1.0027,-15,-4,1,0,0,rectangle,-15,-4,1,0,0,-3,1,"[113,121,158,132,96,110,124,90,141,18]",-15,-4,1,0,0,0,25,25,35,1,LightBlue,LightBlue.jpg,LightBlue,LightBlue.jpg,,
,,,,,,,,,,,,,,,,,,-3,,,,,,,,,,,,,,,,,,,,,,,,,,,Etha,001,2021-12-05_20h17.45.333,jm_natural_scene_simialrity_2-12-2021,2021.2.3,Win32,59.58410296,613b86dafc386be5570e1178,61ad71e11ddd29ccf7a27d5b,61ad72757df3282a4f98578a,,,,,,-59,55,1,0,0,response7disk,1.352,6,7,1,0,0,rectangle,6,7,1,0,0,-3,2,"[113,121,158,132,96,110,124,90,141,18]",6,7,1,0,0,0,26,26,55,1,Turquiose,Turquiose.jpg,Yellow,Yellow.jpg,,
,,,,,,,,,,,,,,,,,,3,,,,,,,,,,,,,,,,,,,,,,,,,,,Etha,001,2021-12-05_20h17.45.333,jm_natural_scene_simialrity_2-12-2021,2021.2.3,Win32,59.58410296,613b86dafc386be5570e1178,61ad71e11ddd29ccf7a27d5b,61ad72757df3282a4f98578a,,,,,,96,44,1,0,0,response1disk,1.3447,-9,2,1,0,0,rectangle,-9,2,1,0,0,-3,1,"[113,121,158,132,96,110,124,90,141,18]",-9,2,1,0,0,0,27,27,58,1,Pink,Pink.jpg,Yellow,Yellow.jpg,,
,,,,,,,,,,,,,,,,,,-2,,,,,,,,,,,,,,,,,,,,,,,,,,,Etha,001,2021-12-05_20h17.45.333,jm_natural_scene_simialrity_2-12-2021,2021.2.3,Win32,59.58410296,613b86dafc386be5570e1178,61ad71e11ddd29ccf7a27d5b,61ad72757df3282a4f98578a,,,,,,-75,-37,1,0,0,response5disk,1.701,-4,3,1,0,0,rectangle,-4,3,1,0,0,-3,-3,"[113,121,158,132,96,110,124,90,141,18]",-4,3,1,0,0,0,28,28,63,1,DarkBlue,DarkBlue.jpg,LightGreen,LightGreen.jpg,,
,,,,,,,,,,,,,,,,,,4,,,,,,,,,,,,,,,,,,,,,,,,,,,Etha,001,2021-12-05_20h17.45.333,jm_natural_scene_simialrity_2-12-2021,2021.2.3,Win32,59.58410296,613b86dafc386be5570e1178,61ad71e11ddd29ccf7a27d5b,61ad72757df3282a4f98578a,,,,,,50,96,1,0,0,response1disk,1.0182,-9,11,1,0,0,rectangle,-9,11,1,0,0,-3,3,"[113,121,158,132,96,110,124,90,141,18]",-9,11,1,0,0,0,29,29,42,1,Pink,Pink.jpg,Pink,Pink.jpg,,
,,,,,,,,,,,,,,,,,,-1,,,,,,,,,,,,,,,,,,,,,,,,,,,Etha,001,2021-12-05_20h17.45.333,jm_natural_scene_simialrity_2-12-2021,2021.2.3,Win32,59.58410296,613b86dafc386be5570e1178,61ad71e11ddd29ccf7a27d5b,61ad72757df3282a4f98578a,,,,,,-35,-53,1,0,0,response5disk,1.7213,3,-4,1,0,0,rectangle,3,-4,1,0,0,-3,2,"[113,121,158,132,96,110,124,90,141,18]",3,-4,1,0,0,0,30,30,8,1,Red,Red.jpg,Purple,Purple.jpg,,
,,,,,,,,,,,,,,,,,,1,,,,,,,,,,,,,,,,,,,,,,,,,,,Etha,001,2021-12-05_20h17.45.333,jm_natural_scene_simialrity_2-12-2021,2021.2.3,Win32,59.58410296,613b86dafc386be5570e1178,61ad71e11ddd29ccf7a27d5b,61ad72757df3282a4f98578a,,,,,,39,-73,1,0,0,response3disk,1.1563,5,10,1,0,0,rectangle,5,10,1,0,0,-3,-4,"[113,121,158,132,96,110,124,90,141,18]",5,10,1,0,0,0,31,31,71,1,LightBlue,LightBlue.jpg,Turquiose,Turquiose.jpg,,
,,,,,,,,,,,,,,,,,,-1,,,,,,,,,,,,,,,,,,,,,,,,,,,Etha,001,2021-12-05_20h17.45.333,jm_natural_scene_simialrity_2-12-2021,2021.2.3,Win32,59.58410296,613b86dafc386be5570e1178,61ad71e11ddd29ccf7a27d5b,61ad72757df3282a4f98578a,,,,,,-27,-50,1,0,0,response5disk,1.6425,0,3,1,0,0,rectangle,0,3,1,0,0,-3,3,"[113,121,158,132,96,110,124,90,141,18]",0,3,1,0,0,0,32,32,34,1,Turquiose,Turquiose.jpg,Purple,Purple.jpg,,
,,,,,,,,,,,,,,,,,,-2,,,,,,,,,,,,,,,,,,,,,,,,,,,Etha,001,2021-12-05_20h17.45.333,jm_natural_scene_simialrity_2-12-2021,2021.2.3,Win32,59.58410296,613b86dafc386be5570e1178,61ad71e11ddd29ccf7a27d5b,61ad72757df3282a4f98578a,,,,,,-78,-20,1,0,0,response5disk,1.4323,-13,3,1,0,0,rectangle,-13,3,1,0,0,-3,-1,"[113,121,158,132,96,110,124,90,141,18]",-13,3,1,0,0,0,33,33,46,1,LightGreen,LightGreen.jpg,Red,Red.jpg,,
,,,,,,,,,,,,,,,,,,-2,,,,,,,,,,,,,,,,,,,,,,,,,,,Etha,001,2021-12-05_20h17.45.333,jm_natural_scene_simialrity_2-12-2021,2021.2.3,Win32,59.58410296,613b86dafc386be5570e1178,61ad71e11ddd29ccf7a27d5b,61ad72757df3282a4f98578a,,,,,,-89,-28,1,0,0,response5disk,1.0946,-11,1,1,0,0,rectangle,-11,1,1,0,0,-3,1,"[113,121,158,132,96,110,124,90,141,18]",-11,1,1,0,0,0,34,34,26,1,DarkGreen,DarkGreen.jpg,LightBlue,LightBlue.jpg,,
,,,,,,,,,,,,,,,,,,3,,,,,,,,,,,,,,,,,,,,,,,,,,,Etha,001,2021-12-05_20h17.45.333,jm_natural_scene_simialrity_2-12-2021,2021.2.3,Win32,59.58410296,613b86dafc386be5570e1178,61ad71e11ddd29ccf7a27d5b,61ad72757df3282a4f98578a,,,,,,61,34,1,0,0,response1disk,1.1687,-8,-4,1,0,0,rectangle,-8,-4,1,0,0,-3,-4,"[113,121,158,132,96,110,124,90,141,18]",-8,-4,1,0,0,0,35,35,15,1,Yellow,Yellow.jpg,Pink,Pink.jpg,,
,,,,,,,,,,,,,,,,,,-1,,,,,,,,,,,,,,,,,,,,,,,,,,,Etha,001,2021-12-05_20h17.45.333,jm_natural_scene_simialrity_2-12-2021,2021.2.3,Win32,59.58410296,613b86dafc386be5570e1178,61ad71e11ddd29ccf7a27d5b,61ad72757df3282a4f98578a,,,,,,-51,-65,1,0,0,response5disk,1.06,-5,1,1,0,0,rectangle,-5,1,1,0,0,-3,-4,"[113,121,158,132,96,110,124,90,141,18]",-5,1,1,0,0,0,36,36,37,1,LightBlue,LightBlue.jpg,Pink,Pink.jpg,,
,,,,,,,,,,,,,,,,,,1,,,,,,,,,,,,,,,,,,,,,,,,,,,Etha,001,2021-12-05_20h17.45.333,jm_natural_scene_simialrity_2-12-2021,2021.2.3,Win32,59.58410296,613b86dafc386be5570e1178,61ad71e11ddd29ccf7a27d5b,61ad72757df3282a4f98578a,,,,,,37,-69,1,0,0,response3disk,1.598,7,-9,1,0,0,rectangle,7,-9,1,0,0,-3,3,"[113,121,158,132,96,110,124,90,141,18]",7,-9,1,0,0,0,37,37,31,1,Turquiose,Turquiose.jpg,LightBlue,LightBlue.jpg,,
,,,,,,,,,,,,,,,,,,1,,,,,,,,,,,,,,,,,,,,,,,,,,,Etha,001,2021-12-05_20h17.45.333,jm_natural_scene_simialrity_2-12-2021,2021.2.3,Win32,59.58410296,613b86dafc386be5570e1178,61ad71e11ddd29ccf7a27d5b,61ad72757df3282a4f98578a,,,,,,37,-70,1,0,0,response3disk,1.1409,3,-12,1,0,0,rectangle,3,-12,1,0,0,-3,-2,"[113,121,158,132,96,110,124,90,141,18]",3,-12,1,0,0,0,38,38,38,1,LightBlue,LightBlue.jpg,Purple,Purple.jpg,,
,,,,,,,,,,,,,,,,,,-3,,,,,,,,,,,,,,,,,,,,,,,,,,,Etha,001,2021-12-05_20h17.45.333,jm_natural_scene_simialrity_2-12-2021,2021.2.3,Win32,59.58410296,613b86dafc386be5570e1178,61ad71e11ddd29ccf7a27d5b,61ad72757df3282a4f98578a,,,,,,-89,47,1,0,0,response7disk,1.4782,0,-20,1,0,0,rectangle,0,-20,1,0,0,-3,-4,"[113,121,158,132,96,110,124,90,141,18]",0,-20,1,0,0,0,39,39,47,1,DarkGreen,DarkGreen.jpg,Red,Red.jpg,,
,,,,,,,,,,,,,,,,,,-2,,,,,,,,,,,,,,,,,,,,,,,,,,,Etha,001,2021-12-05_20h17.45.333,jm_natural_scene_simialrity_2-12-2021,2021.2.3,Win32,59.58410296,613b86dafc386be5570e1178,61ad71e11ddd29ccf7a27d5b,61ad72757df3282a4f98578a,,,,,,-55,-27,1,0,0,response5disk,1.3855,-12,-8,1,0,0,rectangle,-12,-8,1,0,0,-3,-1,"[113,121,158,132,96,110,124,90,141,18]",-12,-8,1,0,0,0,40,40,57,1,DarkBlue,DarkBlue.jpg,Yellow,Yellow.jpg,,
,,,,,,,,,,,,,,,,,,-4,,,,,,,,,,,,,,,,,,,,,,,,,,,Etha,001,2021-12-05_20h17.45.333,jm_natural_scene_simialrity_2-12-2021,2021.2.3,Win32,59.58410296,613b86dafc386be5570e1178,61ad71e11ddd29ccf7a27d5b,61ad72757df3282a4f98578a,,,,,,-44,80,1,0,0,response7disk,1.1399,-6,-8,1,0,0,rectangle,-6,-8,1,0,0,-3,2,"[113,121,158,132,96,110,124,90,141,18]",-6,-8,1,0,0,0,41,41,78,1,Pink,Pink.jpg,DarkBlue,DarkBlue.jpg,,
,,,,,,,,,,,,,,,,,,3,,,,,,,,,,,,,,,,,,,,,,,,,,,Etha,001,2021-12-05_20h17.45.333,jm_natural_scene_simialrity_2-12-2021,2021.2.3,Win32,59.58410296,613b86dafc386be5570e1178,61ad71e11ddd29ccf7a27d5b,61ad72757df3282a4f98578a,,,,,,103,50,1,0,0,response1disk,1.131,-10,1,1,0,0,rectangle,-10,1,1,0,0,-3,-2,"[113,121,158,132,96,110,124,90,141,18]",-10,1,1,0,0,0,42,42,18,1,LightGreen,LightGreen.jpg,DarkGreen,DarkGreen.jpg,,
,,,,,,,,,,,,,,,,,,-2,,,,,,,,,,,,,,,,,,,,,,,,,,,Etha,001,2021-12-05_20h17.45.333,jm_natural_scene_simialrity_2-12-2021,2021.2.3,Win32,59.58410296,613b86dafc386be5570e1178,61ad71e11ddd29ccf7a27d5b,61ad72757df3282a4f98578a,,,,,,-83,-41,1,0,0,response5disk,1.6342,1,-4,1,0,0,rectangle,1,-4,1,0,0,-3,-3,"[113,121,158,132,96,110,124,90,141,18]",1,-4,1,0,0,0,43,43,14,1,Yellow,Yellow.jpg,DarkBlue,DarkBlue.jpg,,
,,,,,,,,,,,,,,,,,,-2,,,,,,,,,,,,,,,,,,,,,,,,,,,Etha,001,2021-12-05_20h17.45.333,jm_natural_scene_simialrity_2-12-2021,2021.2.3,Win32,59.58410296,613b86dafc386be5570e1178,61ad71e11ddd29ccf7a27d5b,61ad72757df3282a4f98578a,,,,,,-78,-26,1,0,0,response5disk,1.1576,3,0,1,0,0,rectangle,3,0,1,0,0,-3,3,"[113,121,158,132,96,110,124,90,141,18]",3,0,1,0,0,0,44,44,11,1,Yellow,Yellow.jpg,DarkGreen,DarkGreen.jpg,,
,,,,,,,,,,,,,,,,,,-1,,,,,,,,,,,,,,,,,,,,,,,,,,,Etha,001,2021-12-05_20h17.45.333,jm_natural_scene_simialrity_2-12-2021,2021.2.3,Win32,59.58410296,613b86dafc386be5570e1178,61ad71e11ddd29ccf7a27d5b,61ad72757df3282a4f98578a,,,,,,-48,-81,1,0,0,response5disk,3.7744,8,16,1,0,0,rectangle,8,16,1,0,0,-3,-3,"[113,121,158,132,96,110,124,90,141,18]",8,16,1,0,0,0,45,45,66,1,Turquiose,Turquiose.jpg,DarkGreen,DarkGreen.jpg,,
,,,,,,,,,,,,,,,,,,-4,,,,,,,,,,,,,,,,,,,,,,,,,,,Etha,001,2021-12-05_20h17.45.333,jm_natural_scene_simialrity_2-12-2021,2021.2.3,Win32,59.58410296,613b86dafc386be5570e1178,61ad71e11ddd29ccf7a27d5b,61ad72757df3282a4f98578a,,,,,,-41,86,1,0,0,response7disk,1.1552,-1,2,1,0,0,rectangle,-1,2,1,0,0,-3,-3,"[113,121,158,132,96,110,124,90,141,18]",-1,2,1,0,0,0,46,46,54,1,DarkGreen,DarkGreen.jpg,Yellow,Yellow.jpg,,
,,,,,,,,,,,,,,,,,,-3,,,,,,,,,,,,,,,,,,,,,,,,,,,Etha,001,2021-12-05_20h17.45.333,jm_natural_scene_simialrity_2-12-2021,2021.2.3,Win32,59.58410296,613b86dafc386be5570e1178,61ad71e11ddd29ccf7a27d5b,61ad72757df3282a4f98578a,,,,,,-87,33,1,0,0,response7disk,1.2776,13,-16,1,0,0,rectangle,13,-16,1,0,0,-3,-1,"[113,121,158,132,96,110,124,90,141,18]",13,-16,1,0,0,0,47,47,48,1,Turquiose,Turquiose.jpg,Red,Red.jpg,,
,,,,,,,,,,,,,,,,,,-4,,,,,,,,,,,,,,,,,,,,,,,,,,,Etha,001,2021-12-05_20h17.45.333,jm_natural_scene_simialrity_2-12-2021,2021.2.3,Win32,59.58410296,613b86dafc386be5570e1178,61ad71e11ddd29ccf7a27d5b,61ad72757df3282a4f98578a,,,,,,-44,86,1,0,0,response7disk,1.199,-2,-7,1,0,0,rectangle,-2,-7,1,0,0,-3,1,"[113,121,158,132,96,110,124,90,141,18]",-2,-7,1,0,0,0,48,48,10,1,Yellow,Yellow.jpg,LightGreen,LightGreen.jpg,,
,,,,,,,,,,,,,,,,,,1,,,,,,,,,,,,,,,,,,,,,,,,,,,Etha,001,2021-12-05_20h17.45.333,jm_natural_scene_simialrity_2-12-2021,2021.2.3,Win32,59.58410296,613b86dafc386be5570e1178,61ad71e11ddd29ccf7a27d5b,61ad72757df3282a4f98578a,,,,,,46,-81,1,0,0,response3disk,1.034,0,6,1,0,0,rectangle,0,6,1,0,0,-3,-1,"[113,121,158,132,96,110,124,90,141,18]",0,6,1,0,0,0,49,49,41,1,DarkBlue,DarkBlue.jpg,Purple,Purple.jpg,,
,,,,,,,,,,,,,,,,,,-1,,,,,,,,,,,,,,,,,,,,,,,,,,,Etha,001,2021-12-05_20h17.45.333,jm_natural_scene_simialrity_2-12-2021,2021.2.3,Win32,59.58410296,613b86dafc386be5570e1178,61ad71e11ddd29ccf7a27d5b,61ad72757df3282a4f98578a,,,,,,-45,-66,1,0,0,response5disk,1.7995,-7,-6,1,0,0,rectangle,-7,-6,1,0,0,-3,3,"[113,121,158,132,96,110,124,90,141,18]",-7,-6,1,0,0,0,50,50,43,1,Pink,Pink.jpg,Purple,Purple.jpg,,
,,,,,,,,,,,,,,,,,,1,,,,,,,,,,,,,,,,,,,,,,,,,,,Etha,001,2021-12-05_20h17.45.333,jm_natural_scene_simialrity_2-12-2021,2021.2.3,Win32,59.58410296,613b86dafc386be5570e1178,61ad71e11ddd29ccf7a27d5b,61ad72757df3282a4f98578a,,,,,,68,-95,1,0,0,response3disk,1.2855,8,13,1,0,0,rectangle,8,13,1,0,0,-3,2,"[113,121,158,132,96,110,124,90,141,18]",8,13,1,0,0,0,51,51,1,1,Red,Red.jpg,Yellow,Yellow.jpg,,
,,,,,,,,,,,,,,,,,,-2,,,,,,,,,,,,,,,,,,,,,,,,,,,Etha,001,2021-12-05_20h17.45.333,jm_natural_scene_simialrity_2-12-2021,2021.2.3,Win32,59.58410296,613b86dafc386be5570e1178,61ad71e11ddd29ccf7a27d5b,61ad72757df3282a4f98578a,,,,,,-87,-42,1,0,0,response5disk,1.2981,-8,-7,1,0,0,rectangle,-8,-7,1,0,0,-3,1,"[113,121,158,132,96,110,124,90,141,18]",-8,-7,1,0,0,0,52,52,65,1,Purple,Purple.jpg,LightGreen,LightGreen.jpg,,
,,,,,,,,,,,,,,,,,,-4,,,,,,,,,,,,,,,,,,,,,,,,,,,Etha,001,2021-12-05_20h17.45.333,jm_natural_scene_simialrity_2-12-2021,2021.2.3,Win32,59.58410296,613b86dafc386be5570e1178,61ad71e11ddd29ccf7a27d5b,61ad72757df3282a4f98578a,,,,,,-49,103,1,0,0,response7disk,1.2273,-1,5,1,0,0,rectangle,-1,5,1,0,0,-3,1,"[113,121,158,132,96,110,124,90,141,18]",-1,5,1,0,0,0,53,53,56,1,LightBlue,LightBlue.jpg,Yellow,Yellow.jpg,,
,,,,,,,,,,,,,,,,,,4,,,,,,,,,,,,,,,,,,,,,,,,,,,Etha,001,2021-12-05_20h17.45.333,jm_natural_scene_simialrity_2-12-2021,2021.2.3,Win32,59.58410296,613b86dafc386be5570e1178,61ad71e11ddd29ccf7a27d5b,61ad72757df3282a4f98578a,,,,,,26,96,1,0,0,response1disk,0.8822,-6,8,1,0,0,rectangle,-6,8,1,0,0,-3,-3,"[113,121,158,132,96,110,124,90,141,18]",-6,8,1,0,0,0,54,54,39,1,DarkBlue,DarkBlue.jpg,DarkBlue,DarkBlue.jpg,,
,,,,,,,,,,,,,,,,,,3,,,,,,,,,,,,,,,,,,,,,,,,,,,Etha,001,2021-12-05_20h17.45.333,jm_natural_scene_simialrity_2-12-2021,2021.2.3,Win32,59.58410296,613b86dafc386be5570e1178,61ad71e11ddd29ccf7a27d5b,61ad72757df3282a4f98578a,,,,,,77,29,1,0,0,response1disk,1.0613,9,-6,1,0,0,rectangle,9,-6,1,0,0,-3,-4,"[113,121,158,132,96,110,124,90,141,18]",9,-6,1,0,0,0,55,55,7,1,Red,Red.jpg,Pink,Pink.jpg,,
,,,,,,,,,,,,,,,,,,-2,,,,,,,,,,,,,,,,,,,,,,,,,,,Etha,001,2021-12-05_20h17.45.333,jm_natural_scene_simialrity_2-12-2021,2021.2.3,Win32,59.58410296,613b86dafc386be5570e1178,61ad71e11ddd29ccf7a27d5b,61ad72757df3282a4f98578a,,,,,,-92,-70,1,0,0,response5disk,2.0746,-2,-5,1,0,0,rectangle,-2,-5,1,0,0,-3,2,"[113,121,158,132,96,110,124,90,141,18]",-2,-5,1,0,0,0,56,56,16,1,Yellow,Yellow.jpg,Purple,Purple.jpg,,
,,,,,,,,,,,,,,,,,,1,,,,,,,,,,,,,,,,,,,,,,,,,,,Etha,001,2021-12-05_20h17.45.333,jm_natural_scene_simialrity_2-12-2021,2021.2.3,Win32,59.58410296,613b86dafc386be5570e1178,61ad71e11ddd29ccf7a27d5b,61ad72757df3282a4f98578a,,,,,,32,-63,1,0,0,response3disk,1.1126,-1,1,1,0,0,rectangle,-1,1,1,0,0,-3,-3,"[113,121,158,132,96,110,124,90,141,18]",-1,1,1,0,0,0,57,57,72,1,DarkBlue,DarkBlue.jpg,Turquiose,Turquiose.jpg,,
,,,,,,,,,,,,,,,,,,-1,,,,,,,,,,,,,,,,,,,,,,,,,,,Etha,001,2021-12-05_20h17.45.333,jm_natural_scene_simialrity_2-12-2021,2021.2.3,Win32,59.58410296,613b86dafc386be5570e1178,61ad71e11ddd29ccf7a27d5b,61ad72757df3282a4f98578a,,,,,,-38,-65,1,0,0,response5disk,1.079,3,1,1,0,0,rectangle,3,1,1,0,0,-3,-1,"[113,121,158,132,96,110,124,90,141,18]",3,1,1,0,0,0,58,58,69,1,Pink,Pink.jpg,DarkGreen,DarkGreen.jpg,,
,,,,,,,,,,,,,,,,,,-1,,,,,,,,,,,,,,,,,,,,,,,,,,,Etha,001,2021-12-05_20h17.45.333,jm_natural_scene_simialrity_2-12-2021,2021.2.3,Win32,59.58410296,613b86dafc386be5570e1178,61ad71e11ddd29ccf7a27d5b,61ad72757df3282a4f98578a,,,,,,-53,-85,1,0,0,response5disk,0.9507,-8,3,1,0,0,rectangle,-8,3,1,0,0,-3,2,"[113,121,158,132,96,110,124,90,141,18]",-8,3,1,0,0,0,59,59,61,1,Turquiose,Turquiose.jpg,LightGreen,LightGreen.jpg,,
,,,,,,,,,,,,,,,,,,-2,,,,,,,,,,,,,,,,,,,,,,,,,,,Etha,001,2021-12-05_20h17.45.333,jm_natural_scene_simialrity_2-12-2021,2021.2.3,Win32,59.58410296,613b86dafc386be5570e1178,61ad71e11ddd29ccf7a27d5b,61ad72757df3282a4f98578a,,,,,,-76,-32,1,0,0,response5disk,0.9445,11,2,1,0,0,rectangle,11,2,1,0,0,-3,3,"[113,121,158,132,96,110,124,90,141,18]",11,2,1,0,0,0,60,60,49,1,LightBlue,LightBlue.jpg,Red,Red.jpg,,
,,,,,,,,,,,,,,,,,,4,,,,,,,,,,,,,,,,,,,,,,,,,,,Etha,001,2021-12-05_20h17.45.333,jm_natural_scene_simialrity_2-12-2021,2021.2.3,Win32,59.58410296,613b86dafc386be5570e1178,61ad71e11ddd29ccf7a27d5b,61ad72757df3282a4f98578a,,,,,,40,136,1,0,0,response1disk,0.9755,-2,5,1,0,0,rectangle,-2,5,1,0,0,-3,2,"[113,121,158,132,96,110,124,90,141,18]",-2,5,1,0,0,0,61,61,44,1,Purple,Purple.jpg,Purple,Purple.jpg,,
,,,,,,,,,,,,,,,,,,2,,,,,,,,,,,,,,,,,,,,,,,,,,,Etha,001,2021-12-05_20h17.45.333,jm_natural_scene_simialrity_2-12-2021,2021.2.3,Win32,59.58410296,613b86dafc386be5570e1178,61ad71e11ddd29ccf7a27d5b,61ad72757df3282a4f98578a,,,,,,100,-57,1,0,0,response3disk,1.8564,-9,12,1,0,0,rectangle,-9,12,1,0,0,-3,1,"[113,121,158,132,96,110,124,90,141,18]",-9,12,1,0,0,0,62,62,77,1,Purple,Purple.jpg,LightBlue,LightBlue.jpg,,
,,,,,,,,,,,,,,,,,,-2,,,,,,,,,,,,,,,,,,,,,,,,,,,Etha,001,2021-12-05_20h17.45.333,jm_natural_scene_simialrity_2-12-2021,2021.2.3,Win32,59.58410296,613b86dafc386be5570e1178,61ad71e11ddd29ccf7a27d5b,61ad72757df3282a4f98578a,,,,,,-96,-41,1,0,0,response5disk,0.9759,-10,2,1,0,0,rectangle,-10,2,1,0,0,-3,3,"[113,121,158,132,96,110,124,90,141,18]",-10,2,1,0,0,0,63,63,76,1,Pink,Pink.jpg,LightBlue,LightBlue.jpg,,
,,,,,,,,,,,,,,,,,,-3,,,,,,,,,,,,,,,,,,,,,,,,,,,Etha,001,2021-12-05_20h17.45.333,jm_natural_scene_simialrity_2-12-2021,2021.2.3,Win32,59.58410296,613b86dafc386be5570e1178,61ad71e11ddd29ccf7a27d5b,61ad72757df3282a4f98578a,,,,,,-85,49,1,0,0,response7disk,1.2233,2,11,1,0,0,rectangle,2,11,1,0,0,-3,3,"[113,121,158,132,96,110,124,90,141,18]",2,11,1,0,0,0,64,64,2,1,Red,Red.jpg,LightGreen,LightGreen.jpg,,
,,,,,,,,,,,,,,,,,,-3,,,,,,,,,,,,,,,,,,,,,,,,,,,Etha,001,2021-12-05_20h17.45.333,jm_natural_scene_simialrity_2-12-2021,2021.2.3,Win32,59.58410296,613b86dafc386be5570e1178,61ad71e11ddd29ccf7a27d5b,61ad72757df3282a4f98578a,,,,,,-81,36,1,0,0,response7disk,1.0567,0,3,1,0,0,rectangle,0,3,1,0,0,-3,2,"[113,121,158,132,96,110,124,90,141,18]",0,3,1,0,0,0,65,65,68,1,DarkBlue,DarkBlue.jpg,DarkGreen,DarkGreen.jpg,,
,,,,,,,,,,,,,,,,,,1,,,,,,,,,,,,,,,,,,,,,,,,,,,Etha,001,2021-12-05_20h17.45.333,jm_natural_scene_simialrity_2-12-2021,2021.2.3,Win32,59.58410296,613b86dafc386be5570e1178,61ad71e11ddd29ccf7a27d5b,61ad72757df3282a4f98578a,,,,,,73,-99,1,0,0,response3disk,1.2807,-4,-1,1,0,0,rectangle,-4,-1,1,0,0,-3,3,"[113,121,158,132,96,110,124,90,141,18]",-4,-1,1,0,0,0,66,66,79,1,Purple,Purple.jpg,DarkBlue,DarkBlue.jpg,,
,,,,,,,,,,,,,,,,,,-1,,,,,,,,,,,,,,,,,,,,,,,,,,,Etha,001,2021-12-05_20h17.45.333,jm_natural_scene_simialrity_2-12-2021,2021.2.3,Win32,59.58410296,613b86dafc386be5570e1178,61ad71e11ddd29ccf7a27d5b,61ad72757df3282a4f98578a,,,,,,-54,-65,1,0,0,response5disk,1.3247,-8,9,1,0,0,rectangle,-8,9,1,0,0,-3,3,"[113,121,158,132,96,110,124,90,141,18]",-8,9,1,0,0,0,67,67,25,1,DarkGreen,DarkGreen.jpg,Turquiose,Turquiose.jpg,,
,,,,,,,,,,,,,,,,,,-2,,,,,,,,,,,,,,,,,,,,,,,,,,,Etha,001,2021-12-05_20h17.45.333,jm_natural_scene_simialrity_2-12-2021,2021.2.3,Win32,59.58410296,613b86dafc386be5570e1178,61ad71e11ddd29ccf7a27d5b,61ad72757df3282a4f98578a,,,,,,-85,-37,1,0,0,response5disk,1.0746,9,8,1,0,0,rectangle,9,8,1,0,0,-3,-2,"[113,121,158,132,96,110,124,90,141,18]",9,8,1,0,0,0,68,68,5,1,Red,Red.jpg,LightBlue,LightBlue.jpg,,
,,,,,,,,,,,,,,,,,,-2,,,,,,,,,,,,,,,,,,,,,,,,,,,Etha,001,2021-12-05_20h17.45.333,jm_natural_scene_simialrity_2-12-2021,2021.2.3,Win32,59.58410296,613b86dafc386be5570e1178,61ad71e11ddd29ccf7a27d5b,61ad72757df3282a4f98578a,,,,,,-61,-28,1,0,0,response5disk,1.7619,-1,-8,1,0,0,rectangle,-1,-8,1,0,0,-3,1,"[113,121,158,132,96,110,124,90,141,18]",-1,-8,1,0,0,0,69,69,73,1,Pink,Pink.jpg,Turquiose,Turquiose.jpg,,
,,,,,,,,,,,,,,,,,,-4,,,,,,,,,,,,,,,,,,,,,,,,,,,Etha,001,2021-12-05_20h17.45.333,jm_natural_scene_simialrity_2-12-2021,2021.2.3,Win32,59.58410296,613b86dafc386be5570e1178,61ad71e11ddd29ccf7a27d5b,61ad72757df3282a4f98578a,,,,,,-56,74,1,0,0,response7disk,1.294,0,17,1,0,0,rectangle,0,17,1,0,0,-3,-4,"[113,121,158,132,96,110,124,90,141,18]",0,17,1,0,0,0,70,70,53,1,LightGreen,LightGreen.jpg,Yellow,Yellow.jpg,,
,,,,,,,,,,,,,,,,,,-2,,,,,,,,,,,,,,,,,,,,,,,,,,,Etha,001,2021-12-05_20h17.45.333,jm_natural_scene_simialrity_2-12-2021,2021.2.3,Win32,59.58410296,613b86dafc386be5570e1178,61ad71e11ddd29ccf7a27d5b,61ad72757df3282a4f98578a,,,,,,-73,-29,1,0,0,response5disk,1.2981,-15,-7,1,0,0,rectangle,-15,-7,1,0,0,-3,-3,"[113,121,158,132,96,110,124,90,141,18]",-15,-7,1,0,0,0,71,71,32,1,Turquiose,Turquiose.jpg,DarkBlue,DarkBlue.jpg,,
,,,,,,,,,,,,,,,,,,-4,,,,,,,,,,,,,,,,,,,,,,,,,,,Etha,001,2021-12-05_20h17.45.333,jm_natural_scene_simialrity_2-12-2021,2021.2.3,Win32,59.58410296,613b86dafc386be5570e1178,61ad71e11ddd29ccf7a27d5b,61ad72757df3282a4f98578a,,,,,,-63,81,1,0,0,response7disk,1.2597,2,-23,1,0,0,rectangle,2,-23,1,0,0,-3,-2,"[113,121,158,132,96,110,124,90,141,18]",2,-23,1,0,0,0,72,72,22,1,LightGreen,LightGreen.jpg,Pink,Pink.jpg,,
,,,,,,,,,,,,,,,,,,-4,,,,,,,,,,,,,,,,,,,,,,,,,,,Etha,001,2021-12-05_20h17.45.333,jm_natural_scene_simialrity_2-12-2021,2021.2.3,Win32,59.58410296,613b86dafc386be5570e1178,61ad71e11ddd29ccf7a27d5b,61ad72757df3282a4f98578a,,,,,,-48,70,1,0,0,response7disk,0.9906,-11,-2,1,0,0,rectangle,-11,-2,1,0,0,-3,-4,"[113,121,158,132,96,110,124,90,141,18]",-11,-2,1,0,0,0,73,73,59,1,Purple,Purple.jpg,Yellow,Yellow.jpg,,
,,,,,,,,,,,,,,,,,,-4,,,,,,,,,,,,,,,,,,,,,,,,,,,Etha,001,2021-12-05_20h17.45.333,jm_natural_scene_simialrity_2-12-2021,2021.2.3,Win32,59.58410296,613b86dafc386be5570e1178,61ad71e11ddd29ccf7a27d5b,61ad72757df3282a4f98578a,,,,,,-41,71,1,0,0,response7disk,1.2164,-6,4,1,0,0,rectangle,-6,4,1,0,0,-3,-4,"[113,121,158,132,96,110,124,90,141,18]",-6,4,1,0,0,0,74,74,3,1,Red,Red.jpg,DarkGreen,DarkGreen.jpg,,
,,,,,,,,,,,,,,,,,,-3,,,,,,,,,,,,,,,,,,,,,,,,,,,Etha,001,2021-12-05_20h17.45.333,jm_natural_scene_simialrity_2-12-2021,2021.2.3,Win32,59.58410296,613b86dafc386be5570e1178,61ad71e11ddd29ccf7a27d5b,61ad72757df3282a4f98578a,,,,,,-59,40,1,0,0,response7disk,1.5348,0,9,1,0,0,rectangle,0,9,1,0,0,-3,-3,"[113,121,158,132,96,110,124,90,141,18]",0,9,1,0,0,0,75,75,27,1,DarkGreen,DarkGreen.jpg,DarkBlue,DarkBlue.jpg,,
,,,,,,,,,,,,,,,,,,-2,,,,,,,,,,,,,,,,,,,,,,,,,,,Etha,001,2021-12-05_20h17.45.333,jm_natural_scene_simialrity_2-12-2021,2021.2.3,Win32,59.58410296,613b86dafc386be5570e1178,61ad71e11ddd29ccf7a27d5b,61ad72757df3282a4f98578a,,,,,,-85,-37,1,0,0,response5disk,1.584,-8,4,1,0,0,rectangle,-8,4,1,0,0,-3,2,"[113,121,158,132,96,110,124,90,141,18]",-8,4,1,0,0,0,76,76,67,1,LightBlue,LightBlue.jpg,DarkGreen,DarkGreen.jpg,,
,,,,,,,,,,,,,,,,,,3,,,,,,,,,,,,,,,,,,,,,,,,,,,Etha,001,2021-12-05_20h17.45.333,jm_natural_scene_simialrity_2-12-2021,2021.2.3,Win32,59.58410296,613b86dafc386be5570e1178,61ad71e11ddd29ccf7a27d5b,61ad72757df3282a4f98578a,,,,,,99,52,1,0,0,response1disk,1.5468,9,11,1,0,0,rectangle,9,11,1,0,0,-3,1,"[113,121,158,132,96,110,124,90,141,18]",9,11,1,0,0,0,77,77,45,1,Yellow,Yellow.jpg,Red,Red.jpg,,
,,,,,,,,,,,,,,,,,,3,,,,,,,,,,,,,,,,,,,,,,,,,,,Etha,001,2021-12-05_20h17.45.333,jm_natural_scene_simialrity_2-12-2021,2021.2.3,Win32,59.58410296,613b86dafc386be5570e1178,61ad71e11ddd29ccf7a27d5b,61ad72757df3282a4f98578a,,,,,,93,36,1,0,0,response1disk,0.9103,19,5,1,0,0,rectangle,19,5,1,0,0,-3,-3,"[113,121,158,132,96,110,124,90,141,18]",19,5,1,0,0,0,78,78,51,1,Pink,Pink.jpg,Red,Red.jpg,,
,,,,,,,,,,,,,,,,,,-2,,,,,,,,,,,,,,,,,,,,,,,,,,,Etha,001,2021-12-05_20h17.45.333,jm_natural_scene_simialrity_2-12-2021,2021.2.3,Win32,59.58410296,613b86dafc386be5570e1178,61ad71e11ddd29ccf7a27d5b,61ad72757df3282a4f98578a,,,,,,-62,-30,1,0,0,response5disk,1.1318,6,-12,1,0,0,rectangle,6,-12,1,0,0,-3,-1,"[113,121,158,132,96,110,124,90,141,18]",6,-12,1,0,0,0,79,79,70,1,Purple,Purple.jpg,DarkGreen,DarkGreen.jpg,,
,,,,,,,,,,,,,,,,,,-2,,,,,,,,,,,,,,,,,,,,,,,,,,,Etha,001,2021-12-05_20h17.45.333,jm_natural_scene_simialrity_2-12-2021,2021.2.3,Win32,59.58410296,613b86dafc386be5570e1178,61ad71e11ddd29ccf7a27d5b,61ad72757df3282a4f98578a,,,,,,-71,-31,1,0,0,response5disk,0.8943,-4,-6,1,0,0,rectangle,-4,-6,1,0,0,-3,-4,"[113,121,158,132,96,110,124,90,141,18]",-4,-6,1,0,0,0,80,80,33,1,Turquiose,Turquiose.jpg,Pink,Pink.jpg,,
,,,,,,,,,,,,,,,,,,3,,,,,,,,,,,,,,,,,,,,,,,,,,,Etha,001,2021-12-05_20h17.45.333,jm_natural_scene_simialrity_2-12-2021,2021.2.3,Win32,59.58410296,613b86dafc386be5570e1178,61ad71e11ddd29ccf7a27d5b,61ad72757df3282a4f98578a,,,,,,88,48,1,0,0,response1disk,1.0396,5,5,1,0,0,rectangle,5,5,1,0,0,-3,-2,"[113,121,158,132,96,110,124,90,141,18]",5,5,1,0,0,1,0,81,15,1,Yellow,Yellow.jpg,Pink,Pink.jpg,,
,,,,,,,,,,,,,,,,,,-2,,,,,,,,,,,,,,,,,,,,,,,,,,,Etha,001,2021-12-05_20h17.45.333,jm_natural_scene_simialrity_2-12-2021,2021.2.3,Win32,59.58410296,613b86dafc386be5570e1178,61ad71e11ddd29ccf7a27d5b,61ad72757df3282a4f98578a,,,,,,-81,-31,1,0,0,response5disk,1.0506,-16,-1,1,0,0,rectangle,-16,-1,1,0,0,-3,-4,"[113,121,158,132,96,110,124,90,141,18]",-16,-1,1,0,0,1,1,82,22,1,LightGreen,LightGreen.jpg,Pink,Pink.jpg,,
,,,,,,,,,,,,,,,,,,3,,,,,,,,,,,,,,,,,,,,,,,,,,,Etha,001,2021-12-05_20h17.45.333,jm_natural_scene_simialrity_2-12-2021,2021.2.3,Win32,59.58410296,613b86dafc386be5570e1178,61ad71e11ddd29ccf7a27d5b,61ad72757df3282a4f98578a,,,,,,121,41,1,0,0,response1disk,0.8895,3,-1,1,0,0,rectangle,3,-1,1,0,0,-3,-4,"[113,121,158,132,96,110,124,90,141,18]",3,-1,1,0,0,1,2,83,7,1,Red,Red.jpg,Pink,Pink.jpg,,
,,,,,,,,,,,,,,,,,,-3,,,,,,,,,,,,,,,,,,,,,,,,,,,Etha,001,2021-12-05_20h17.45.333,jm_natural_scene_simialrity_2-12-2021,2021.2.3,Win32,59.58410296,613b86dafc386be5570e1178,61ad71e11ddd29ccf7a27d5b,61ad72757df3282a4f98578a,,,,,,-78,46,1,0,0,response7disk,1.1739,-7,12,1,0,0,rectangle,-7,12,1,0,0,-3,-3,"[113,121,158,132,96,110,124,90,141,18]",-7,12,1,0,0,1,3,84,11,1,Yellow,Yellow.jpg,DarkGreen,DarkGreen.jpg,,
,,,,,,,,,,,,,,,,,,-2,,,,,,,,,,,,,,,,,,,,,,,,,,,Etha,001,2021-12-05_20h17.45.333,jm_natural_scene_simialrity_2-12-2021,2021.2.3,Win32,59.58410296,613b86dafc386be5570e1178,61ad71e11ddd29ccf7a27d5b,61ad72757df3282a4f98578a,,,,,,-70,-27,1,0,0,response5disk,1.2947,-3,-1,1,0,0,rectangle,-3,-1,1,0,0,-3,-2,"[113,121,158,132,96,110,124,90,141,18]",-3,-1,1,0,0,1,4,85,55,1,Turquiose,Turquiose.jpg,Yellow,Yellow.jpg,,
,,,,,,,,,,,,,,,,,,-3,,,,,,,,,,,,,,,,,,,,,,,,,,,Etha,001,2021-12-05_20h17.45.333,jm_natural_scene_simialrity_2-12-2021,2021.2.3,Win32,59.58410296,613b86dafc386be5570e1178,61ad71e11ddd29ccf7a27d5b,61ad72757df3282a4f98578a,,,,,,-81,35,1,0,0,response7disk,1.1442,0,-5,1,0,0,rectangle,0,-5,1,0,0,-3,2,"[113,121,158,132,96,110,124,90,141,18]",0,-5,1,0,0,1,5,86,13,1,Yellow,Yellow.jpg,LightBlue,LightBlue.jpg,,
,,,,,,,,,,,,,,,,,,-2,,,,,,,,,,,,,,,,,,,,,,,,,,,Etha,001,2021-12-05_20h17.45.333,jm_natural_scene_simialrity_2-12-2021,2021.2.3,Win32,59.58410296,613b86dafc386be5570e1178,61ad71e11ddd29ccf7a27d5b,61ad72757df3282a4f98578a,,,,,,-64,-35,1,0,0,response5disk,1.7706,-5,6,1,0,0,rectangle,-5,6,1,0,0,-3,-3,"[113,121,158,132,96,110,124,90,141,18]",-5,6,1,0,0,1,6,87,50,1,DarkBlue,DarkBlue.jpg,Red,Red.jpg,,
,,,,,,,,,,,,,,,,,,-2,,,,,,,,,,,,,,,,,,,,,,,,,,,Etha,001,2021-12-05_20h17.45.333,jm_natural_scene_simialrity_2-12-2021,2021.2.3,Win32,59.58410296,613b86dafc386be5570e1178,61ad71e11ddd29ccf7a27d5b,61ad72757df3282a4f98578a,,,,,,-79,-35,1,0,0,response5disk,1.6405,-9,-6,1,0,0,rectangle,-9,-6,1,0,0,-3,-2,"[113,121,158,132,96,110,124,90,141,18]",-9,-6,1,0,0,1,7,88,57,1,DarkBlue,DarkBlue.jpg,Yellow,Yellow.jpg,,
,,,,,,,,,,,,,,,,,,-2,,,,,,,,,,,,,,,,,,,,,,,,,,,Etha,001,2021-12-05_20h17.45.333,jm_natural_scene_simialrity_2-12-2021,2021.2.3,Win32,59.58410296,613b86dafc386be5570e1178,61ad71e11ddd29ccf7a27d5b,61ad72757df3282a4f98578a,,,,,,-76,-37,1,0,0,response5disk,1.3469,-6,-3,1,0,0,rectangle,-49,117,1,0,0,-4,-4,"[113,121,158,132,96,110,124,90,141,18]",-6,4,1,0,0,1,8,89,29,1,DarkGreen,DarkGreen.jpg,Purple,Purple.jpg,response7disk_3,rectangle
,,,,,,,,,,,,,,,,,,3,,,,,,,,,,,,,,,,,,,,,,,,,,,Etha,001,2021-12-05_20h17.45.333,jm_natural_scene_simialrity_2-12-2021,2021.2.3,Win32,59.58410296,613b86dafc386be5570e1178,61ad71e11ddd29ccf7a27d5b,61ad72757df3282a4f98578a,,,,,,107,49,1,0,0,response1disk,1.1624,-5,4,1,0,0,rectangle,-5,4,1,0,0,-4,-3,"[113,121,158,132,96,110,124,90,141,18]",-5,4,1,0,0,1,9,90,17,1,LightGreen,LightGreen.jpg,LightGreen,LightGreen.jpg,,
,,,,,,,,,,,,,,,,,,-2,,,,,,,,,,,,,,,,,,,,,,,,,,,Etha,001,2021-12-05_20h17.45.333,jm_natural_scene_simialrity_2-12-2021,2021.2.3,Win32,59.58410296,613b86dafc386be5570e1178,61ad71e11ddd29ccf7a27d5b,61ad72757df3282a4f98578a,,,,,,-95,-41,1,0,0,response5disk,1.4816,12,-8,1,0,0,rectangle,12,-8,1,0,0,-4,-2,"[113,121,158,132,96,110,124,90,141,18]",12,-8,1,0,0,1,10,91,49,1,LightBlue,LightBlue.jpg,Red,Red.jpg,,
,,,,,,,,,,,,,,,,,,1,,,,,,,,,,,,,,,,,,,,,,,,,,,Etha,001,2021-12-05_20h17.45.333,jm_natural_scene_simialrity_2-12-2021,2021.2.3,Win32,59.58410296,613b86dafc386be5570e1178,61ad71e11ddd29ccf7a27d5b,61ad72757df3282a4f98578a,,,,,,49,-84,1,0,0,response3disk,0.9224,-11,13,1,0,0,rectangle,-11,13,1,0,0,-4,-1,"[113,121,158,132,96,110,124,90,141,18]",-11,13,1,0,0,1,11,92,71,1,LightBlue,LightBlue.jpg,Turquiose,Turquiose.jpg,,
,,,,,,,,,,,,,,,,,,-2,,,,,,,,,,,,,,,,,,,,,,,,,,,Etha,001,2021-12-05_20h17.45.333,jm_natural_scene_simialrity_2-12-2021,2021.2.3,Win32,59.58410296,613b86dafc386be5570e1178,61ad71e11ddd29ccf7a27d5b,61ad72757df3282a4f98578a,,,,,,-119,-43,1,0,0,response5disk,0.9383,-13,3,1,0,0,rectangle,-13,3,1,0,0,-4,1,"[113,121,158,132,96,110,124,90,141,18]",-13,3,1,0,0,1,12,93,47,1,DarkGreen,DarkGreen.jpg,Red,Red.jpg,,
,,,,,,,,,,,,,,,,,,-1,,,,,,,,,,,,,,,,,,,,,,,,,,,Etha,001,2021-12-05_20h17.45.333,jm_natural_scene_simialrity_2-12-2021,2021.2.3,Win32,59.58410296,613b86dafc386be5570e1178,61ad71e11ddd29ccf7a27d5b,61ad72757df3282a4f98578a,,,,,,-54,-71,1,0,0,response5disk,1.5402,-16,-3,1,0,0,rectangle,-16,-3,1,0,0,-4,-3,"[113,121,158,132,96,110,124,90,141,18]",-16,-3,1,0,0,1,13,94,43,1,Pink,Pink.jpg,Purple,Purple.jpg,,
,,,,,,,,,,,,,,,,,,-2,,,,,,,,,,,,,,,,,,,,,,,,,,,Etha,001,2021-12-05_20h17.45.333,jm_natural_scene_simialrity_2-12-2021,2021.2.3,Win32,59.58410296,613b86dafc386be5570e1178,61ad71e11ddd29ccf7a27d5b,61ad72757df3282a4f98578a,,,,,,-90,-39,1,0,0,response5disk,1.1723,-5,2,1,0,0,rectangle,111,-44,1,0,0,2,2,"[113,121,158,132,96,110,124,90,141,18]",0,1,1,0,0,1,14,95,37,1,LightBlue,LightBlue.jpg,Pink,Pink.jpg,response3disk_3,rectangle
,,,,,,,,,,,,,,,,,,1,,,,,,,,,,,,,,,,,,,,,,,,,,,Etha,001,2021-12-05_20h17.45.333,jm_natural_scene_simialrity_2-12-2021,2021.2.3,Win32,59.58410296,613b86dafc386be5570e1178,61ad71e11ddd29ccf7a27d5b,61ad72757df3282a4f98578a,,,,,,31,-54,1,0,0,response3disk,5.8884,-3,2,1,0,0,rectangle,-3,2,1,0,0,2,2,"[113,121,158,132,96,110,124,90,141,18]",-3,2,1,0,0,1,15,96,65,1,Purple,Purple.jpg,LightGreen,LightGreen.jpg,,
,,,,,,,,,,,,,,,,,,-1,,,,,,,,,,,,,,,,,,,,,,,,,,,Etha,001,2021-12-05_20h17.45.333,jm_natural_scene_simialrity_2-12-2021,2021.2.3,Win32,59.58410296,613b86dafc386be5570e1178,61ad71e11ddd29ccf7a27d5b,61ad72757df3282a4f98578a,,,,,,-40,-81,1,0,0,response5disk,2.8377,5,3,1,0,0,rectangle,5,3,1,0,0,2,-3,"[113,121,158,132,96,110,124,90,141,18]",5,3,1,0,0,1,16,97,76,1,Pink,Pink.jpg,LightBlue,LightBlue.jpg,,
,,,,,,,,,,,,,,,,,,-2,,,,,,,,,,,,,,,,,,,,,,,,,,,Etha,001,2021-12-05_20h17.45.333,jm_natural_scene_simialrity_2-12-2021,2021.2.3,Win32,59.58410296,613b86dafc386be5570e1178,61ad71e11ddd29ccf7a27d5b,61ad72757df3282a4f98578a,,,,,,-58,-33,1,0,0,response5disk,1.8823,-4,4,1,0,0,rectangle,-4,4,1,0,0,2,2,"[113,121,158,132,96,110,124,90,141,18]",-4,4,1,0,0,1,17,98,74,1,Purple,Purple.jpg,Turquiose,Turquiose.jpg,,
,,,,,,,,,,,,,,,,,,-1,,,,,,,,,,,,,,,,,,,,,,,,,,,Etha,001,2021-12-05_20h17.45.333,jm_natural_scene_simialrity_2-12-2021,2021.2.3,Win32,59.58410296,613b86dafc386be5570e1178,61ad71e11ddd29ccf7a27d5b,61ad72757df3282a4f98578a,,,,,,-48,-84,1,0,0,response5disk,1.1617,-15,8,1,0,0,rectangle,-15,8,1,0,0,2,-4,"[113,121,158,132,96,110,124,90,141,18]",-15,8,1,0,0,1,18,99,32,1,Turquiose,Turquiose.jpg,DarkBlue,DarkBlue.jpg,,
,,,,,,,,,,,,,,,,,,1,,,,,,,,,,,,,,,,,,,,,,,,,,,Etha,001,2021-12-05_20h17.45.333,jm_natural_scene_simialrity_2-12-2021,2021.2.3,Win32,59.58410296,613b86dafc386be5570e1178,61ad71e11ddd29ccf7a27d5b,61ad72757df3282a4f98578a,,,,,,48,-116,1,0,0,response3disk,0.8313,-10,1,1,0,0,rectangle,-10,1,1,0,0,2,2,"[113,121,158,132,96,110,124,90,141,18]",-10,1,1,0,0,1,19,100,34,1,Turquiose,Turquiose.jpg,Purple,Purple.jpg,,
,,,,,,,,,,,,,,,,,,4,,,,,,,,,,,,,,,,,,,,,,,,,,,Etha,001,2021-12-05_20h17.45.333,jm_natural_scene_simialrity_2-12-2021,2021.2.3,Win32,59.58410296,613b86dafc386be5570e1178,61ad71e11ddd29ccf7a27d5b,61ad72757df3282a4f98578a,,,,,,46,112,1,0,0,response1disk,1.0236,-2,10,1,0,0,rectangle,-2,10,1,0,0,2,-3,"[113,121,158,132,96,110,124,90,141,18]",-2,10,1,0,0,1,20,101,35,1,LightBlue,LightBlue.jpg,LightBlue,LightBlue.jpg,,
,,,,,,,,,,,,,,,,,,-2,,,,,,,,,,,,,,,,,,,,,,,,,,,Etha,001,2021-12-05_20h17.45.333,jm_natural_scene_simialrity_2-12-2021,2021.2.3,Win32,59.58410296,613b86dafc386be5570e1178,61ad71e11ddd29ccf7a27d5b,61ad72757df3282a4f98578a,,,,,,-89,-32,1,0,0,response5disk,1.4293,6,3,1,0,0,rectangle,6,3,1,0,0,2,1,"[113,121,158,132,96,110,124,90,141,18]",6,3,1,0,0,1,21,102,6,1,Red,Red.jpg,DarkBlue,DarkBlue.jpg,,
,,,,,,,,,,,,,,,,,,-1,,,,,,,,,,,,,,,,,,,,,,,,,,,Etha,001,2021-12-05_20h17.45.333,jm_natural_scene_simialrity_2-12-2021,2021.2.3,Win32,59.58410296,613b86dafc386be5570e1178,61ad71e11ddd29ccf7a27d5b,61ad72757df3282a4f98578a,,,,,,-50,-84,1,0,0,response5disk,1.2163,0,14,1,0,0,rectangle,0,14,1,0,0,2,3,"[113,121,158,132,96,110,124,90,141,18]",0,14,1,0,0,1,22,103,68,1,DarkBlue,DarkBlue.jpg,DarkGreen,DarkGreen.jpg,,
,,,,,,,,,,,,,,,,,,-1,,,,,,,,,,,,,,,,,,,,,,,,,,,Etha,001,2021-12-05_20h17.45.333,jm_natural_scene_simialrity_2-12-2021,2021.2.3,Win32,59.58410296,613b86dafc386be5570e1178,61ad71e11ddd29ccf7a27d5b,61ad72757df3282a4f98578a,,,,,,-39,-97,1,0,0,response5disk,2.4468,-3,22,1,0,0,rectangle,-3,22,1,0,0,2,-2,"[113,121,158,132,96,110,124,90,141,18]",-3,22,1,0,0,1,23,104,26,1,DarkGreen,DarkGreen.jpg,LightBlue,LightBlue.jpg,,
,,,,,,,,,,,,,,,,,,1,,,,,,,,,,,,,,,,,,,,,,,,,,,Etha,001,2021-12-05_20h17.45.333,jm_natural_scene_simialrity_2-12-2021,2021.2.3,Win32,59.58410296,613b86dafc386be5570e1178,61ad71e11ddd29ccf7a27d5b,61ad72757df3282a4f98578a,,,,,,51,-91,1,0,0,response3disk,1.0969,-10,5,1,0,0,rectangle,-10,5,1,0,0,2,-2,"[113,121,158,132,96,110,124,90,141,18]",-10,5,1,0,0,1,24,105,31,1,Turquiose,Turquiose.jpg,LightBlue,LightBlue.jpg,,
,,,,,,,,,,,,,,,,,,-2,,,,,,,,,,,,,,,,,,,,,,,,,,,Etha,001,2021-12-05_20h17.45.333,jm_natural_scene_simialrity_2-12-2021,2021.2.3,Win32,59.58410296,613b86dafc386be5570e1178,61ad71e11ddd29ccf7a27d5b,61ad72757df3282a4f98578a,,,,,,-78,-30,1,0,0,response5disk,0.8525,-4,14,1,0,0,rectangle,-4,14,1,0,0,2,-4,"[113,121,158,132,96,110,124,90,141,18]",-4,14,1,0,0,1,25,106,69,1,Pink,Pink.jpg,DarkGreen,DarkGreen.jpg,,
,,,,,,,,,,,,,,,,,,1,,,,,,,,,,,,,,,,,,,,,,,,,,,Etha,001,2021-12-05_20h17.45.333,jm_natural_scene_simialrity_2-12-2021,2021.2.3,Win32,59.58410296,613b86dafc386be5570e1178,61ad71e11ddd29ccf7a27d5b,61ad72757df3282a4f98578a,,,,,,51,-76,1,0,0,response3disk,0.8945,15,-14,1,0,0,rectangle,15,-14,1,0,0,2,-2,"[113,121,158,132,96,110,124,90,141,18]",15,-14,1,0,0,1,26,107,75,1,DarkBlue,DarkBlue.jpg,LightBlue,LightBlue.jpg,,
,,,,,,,,,,,,,,,,,,-3,,,,,,,,,,,,,,,,,,,,,,,,,,,Etha,001,2021-12-05_20h17.45.333,jm_natural_scene_simialrity_2-12-2021,2021.2.3,Win32,59.58410296,613b86dafc386be5570e1178,61ad71e11ddd29ccf7a27d5b,61ad72757df3282a4f98578a,,,,,,-80,49,1,0,0,response7disk,1.1933,17,12,1,0,0,rectangle,17,12,1,0,0,2,3,"[113,121,158,132,96,110,124,90,141,18]",17,12,1,0,0,1,27,108,10,1,Yellow,Yellow.jpg,LightGreen,LightGreen.jpg,,
,,,,,,,,,,,,,,,,,,-2,,,,,,,,,,,,,,,,,,,,,,,,,,,Etha,001,2021-12-05_20h17.45.333,jm_natural_scene_simialrity_2-12-2021,2021.2.3,Win32,59.58410296,613b86dafc386be5570e1178,61ad71e11ddd29ccf7a27d5b,61ad72757df3282a4f98578a,,,,,,-79,-40,1,0,0,response5disk,1.2173,-3,-4,1,0,0,rectangle,-51,107,1,0,0,-4,-4,"[113,121,158,132,96,110,124,90,141,18]",-5,4,1,0,0,1,28,109,23,1,LightGreen,LightGreen.jpg,Purple,Purple.jpg,response7disk_3,rectangle
,,,,,,,,,,,,,,,,,,-1,,,,,,,,,,,,,,,,,,,,,,,,,,,Etha,001,2021-12-05_20h17.45.333,jm_natural_scene_simialrity_2-12-2021,2021.2.3,Win32,59.58410296,613b86dafc386be5570e1178,61ad71e11ddd29ccf7a27d5b,61ad72757df3282a4f98578a,,,,,,-47,-87,1,0,0,response5disk,1.3535,-7,-6,1,0,0,rectangle,-7,-6,1,0,0,-4,-3,"[113,121,158,132,96,110,124,90,141,18]",-7,-6,1,0,0,1,29,110,59,1,Purple,Purple.jpg,Yellow,Yellow.jpg,,
,,,,,,,,,,,,,,,,,,-2,,,,,,,,,,,,,,,,,,,,,,,,,,,Etha,001,2021-12-05_20h17.45.333,jm_natural_scene_simialrity_2-12-2021,2021.2.3,Win32,59.58410296,613b86dafc386be5570e1178,61ad71e11ddd29ccf7a27d5b,61ad72757df3282a4f98578a,,,,,,-77,-42,1,0,0,response5disk,1.7265,18,2,1,0,0,rectangle,18,2,1,0,0,-4,-1,"[113,121,158,132,96,110,124,90,141,18]",18,2,1,0,0,1,30,111,63,1,DarkBlue,DarkBlue.jpg,LightGreen,LightGreen.jpg,,
,,,,,,,,,,,,,,,,,,3,,,,,,,,,,,,,,,,,,,,,,,,,,,Etha,001,2021-12-05_20h17.45.333,jm_natural_scene_simialrity_2-12-2021,2021.2.3,Win32,59.58410296,613b86dafc386be5570e1178,61ad71e11ddd29ccf7a27d5b,61ad72757df3282a4f98578a,,,,,,100,25,1,0,0,response1disk,1.4332,-7,-2,1,0,0,rectangle,71,-111,1,0,0,1,1,"[113,121,158,132,96,110,124,90,141,18]",2,4,1,0,0,1,31,112,45,1,Yellow,Yellow.jpg,Red,Red.jpg,response3disk_3,rectangle
,,,,,,,,,,,,,,,,,,-2,,,,,,,,,,,,,,,,,,,,,,,,,,,Etha,001,2021-12-05_20h17.45.333,jm_natural_scene_simialrity_2-12-2021,2021.2.3,Win32,59.58410296,613b86dafc386be5570e1178,61ad71e11ddd29ccf7a27d5b,61ad72757df3282a4f98578a,,,,,,-86,-41,1,0,0,response5disk,1.226,4,1,1,0,0,rectangle,4,1,1,0,0,1,3,"[113,121,158,132,96,110,124,90,141,18]",4,1,1,0,0,1,32,113,27,1,DarkGreen,DarkGreen.jpg,DarkBlue,DarkBlue.jpg,,
,,,,,,,,,,,,,,,,,,-2,,,,,,,,,,,,,,,,,,,,,,,,,,,Etha,001,2021-12-05_20h17.45.333,jm_natural_scene_simialrity_2-12-2021,2021.2.3,Win32,59.58410296,613b86dafc386be5570e1178,61ad71e11ddd29ccf7a27d5b,61ad72757df3282a4f98578a,,,,,,-56,-34,1,0,0,response5disk,1.2682,4,-7,1,0,0,rectangle,4,-7,1,0,0,1,-1,"[113,121,158,132,96,110,124,90,141,18]",4,-7,1,0,0,1,33,114,40,1,DarkBlue,DarkBlue.jpg,Pink,Pink.jpg,,
,,,,,,,,,,,,,,,,,,3,,,,,,,,,,,,,,,,,,,,,,,,,,,Etha,001,2021-12-05_20h17.45.333,jm_natural_scene_simialrity_2-12-2021,2021.2.3,Win32,59.58410296,613b86dafc386be5570e1178,61ad71e11ddd29ccf7a27d5b,61ad72757df3282a4f98578a,,,,,,87,52,1,0,0,response1disk,1.085,-12,-1,1,0,0,rectangle,-12,-1,1,0,0,1,2,"[113,121,158,132,96,110,124,90,141,18]",-12,-1,1,0,0,1,34,115,18,1,LightGreen,LightGreen.jpg,DarkGreen,DarkGreen.jpg,,
,,,,,,,,,,,,,,,,,,-1,,,,,,,,,,,,,,,,,,,,,,,,,,,Etha,001,2021-12-05_20h17.45.333,jm_natural_scene_simialrity_2-12-2021,2021.2.3,Win32,59.58410296,613b86dafc386be5570e1178,61ad71e11ddd29ccf7a27d5b,61ad72757df3282a4f98578a,,,,,,-37,-92,1,0,0,response5disk,1.7707,18,-1,1,0,0,rectangle,18,-1,1,0,0,1,-3,"[113,121,158,132,96,110,124,90,141,18]",18,-1,1,0,0,1,35,116,14,1,Yellow,Yellow.jpg,DarkBlue,DarkBlue.jpg,,
,,,,,,,,,,,,,,,,,,3,,,,,,,,,,,,,,,,,,,,,,,,,,,Etha,001,2021-12-05_20h17.45.333,jm_natural_scene_simialrity_2-12-2021,2021.2.3,Win32,59.58410296,613b86dafc386be5570e1178,61ad71e11ddd29ccf7a27d5b,61ad72757df3282a4f98578a,,,,,,111,55,1,0,0,response1disk,1.0136,-4,1,1,0,0,rectangle,-4,1,1,0,0,1,3,"[113,121,158,132,96,110,124,90,141,18]",-4,1,1,0,0,1,36,117,1,1,Red,Red.jpg,Yellow,Yellow.jpg,,
,,,,,,,,,,,,,,,,,,3,,,,,,,,,,,,,,,,,,,,,,,,,,,Etha,001,2021-12-05_20h17.45.333,jm_natural_scene_simialrity_2-12-2021,2021.2.3,Win32,59.58410296,613b86dafc386be5570e1178,61ad71e11ddd29ccf7a27d5b,61ad72757df3282a4f98578a,,,,,,98,52,1,0,0,response1disk,1.2401,-5,3,1,0,0,rectangle,-5,3,1,0,0,1,-3,"[113,121,158,132,96,110,124,90,141,18]",-5,3,1,0,0,1,37,118,58,1,Pink,Pink.jpg,Yellow,Yellow.jpg,,
,,,,,,,,,,,,,,,,,,-1,,,,,,,,,,,,,,,,,,,,,,,,,,,Etha,001,2021-12-05_20h17.45.333,jm_natural_scene_simialrity_2-12-2021,2021.2.3,Win32,59.58410296,613b86dafc386be5570e1178,61ad71e11ddd29ccf7a27d5b,61ad72757df3282a4f98578a,,,,,,-42,-78,1,0,0,response5disk,1.7265,1,-6,1,0,0,rectangle,1,-6,1,0,0,1,3,"[113,121,158,132,96,110,124,90,141,18]",1,-6,1,0,0,1,38,119,16,1,Yellow,Yellow.jpg,Purple,Purple.jpg,,
,,,,,,,,,,,,,,,,,,4,,,,,,,,,,,,,,,,,,,,,,,,,,,Etha,001,2021-12-05_20h17.45.333,jm_natural_scene_simialrity_2-12-2021,2021.2.3,Win32,59.58410296,613b86dafc386be5570e1178,61ad71e11ddd29ccf7a27d5b,61ad72757df3282a4f98578a,,,,,,49,80,1,0,0,response1disk,0.973,-10,-8,1,0,0,rectangle,-39,110,1,0,0,-4,-4,"[113,121,158,132,96,110,124,90,141,18]",-1,-2,1,0,0,1,39,120,24,1,DarkGreen,DarkGreen.jpg,DarkGreen,DarkGreen.jpg,response7disk_3,rectangle
,,,,,,,,,,,,,,,,,,-1,,,,,,,,,,,,,,,,,,,,,,,,,,,Etha,001,2021-12-05_20h17.45.333,jm_natural_scene_simialrity_2-12-2021,2021.2.3,Win32,59.58410296,613b86dafc386be5570e1178,61ad71e11ddd29ccf7a27d5b,61ad72757df3282a4f98578a,,,,,,-48,-99,1,0,0,response5disk,0.9933,0,-6,1,0,0,rectangle,0,-6,1,0,0,-4,3,"[113,121,158,132,96,110,124,90,141,18]",0,-6,1,0,0,1,40,121,70,1,Purple,Purple.jpg,DarkGreen,DarkGreen.jpg,,
,,,,,,,,,,,,,,,,,,1,,,,,,,,,,,,,,,,,,,,,,,,,,,Etha,001,2021-12-05_20h17.45.333,jm_natural_scene_simialrity_2-12-2021,2021.2.3,Win32,59.58410296,613b86dafc386be5570e1178,61ad71e11ddd29ccf7a27d5b,61ad72757df3282a4f98578a,,,,,,44,-78,1,0,0,response3disk,0.9807,2,-10,1,0,0,rectangle,2,-10,1,0,0,-4,-2,"[113,121,158,132,96,110,124,90,141,18]",2,-10,1,0,0,1,41,122,79,1,Purple,Purple.jpg,DarkBlue,DarkBlue.jpg,,
,,,,,,,,,,,,,,,,,,4,,,,,,,,,,,,,,,,,,,,,,,,,,,Etha,001,2021-12-05_20h17.45.333,jm_natural_scene_simialrity_2-12-2021,2021.2.3,Win32,59.58410296,613b86dafc386be5570e1178,61ad71e11ddd29ccf7a27d5b,61ad72757df3282a4f98578a,,,,,,43,94,1,0,0,response1disk,0.9283,0,3,1,0,0,rectangle,116,44,1,0,0,3,3,"[113,121,158,132,96,110,124,90,141,18]",1,12,1,0,0,1,42,123,39,1,DarkBlue,DarkBlue.jpg,DarkBlue,DarkBlue.jpg,response1disk_3,rectangle
,,,,,,,,,,,,,,,,,,-2,,,,,,,,,,,,,,,,,,,,,,,,,,,Etha,001,2021-12-05_20h17.45.333,jm_natural_scene_simialrity_2-12-2021,2021.2.3,Win32,59.58410296,613b86dafc386be5570e1178,61ad71e11ddd29ccf7a27d5b,61ad72757df3282a4f98578a,,,,,,-113,-55,1,0,0,response5disk,1.3185,-10,2,1,0,0,rectangle,-10,2,1,0,0,3,2,"[113,121,158,132,96,110,124,90,141,18]",-10,2,1,0,0,1,43,124,12,1,Yellow,Yellow.jpg,Turquiose,Turquiose.jpg,,
,,,,,,,,,,,,,,,,,,-3,,,,,,,,,,,,,,,,,,,,,,,,,,,Etha,001,2021-12-05_20h17.45.333,jm_natural_scene_simialrity_2-12-2021,2021.2.3,Win32,59.58410296,613b86dafc386be5570e1178,61ad71e11ddd29ccf7a27d5b,61ad72757df3282a4f98578a,,,,,,-95,38,1,0,0,response7disk,1.2482,-6,8,1,0,0,rectangle,-6,8,1,0,0,3,1,"[113,121,158,132,96,110,124,90,141,18]",-6,8,1,0,0,1,44,125,67,1,LightBlue,LightBlue.jpg,DarkGreen,DarkGreen.jpg,,
,,,,,,,,,,,,,,,,,,-1,,,,,,,,,,,,,,,,,,,,,,,,,,,Etha,001,2021-12-05_20h17.45.333,jm_natural_scene_simialrity_2-12-2021,2021.2.3,Win32,59.58410296,613b86dafc386be5570e1178,61ad71e11ddd29ccf7a27d5b,61ad72757df3282a4f98578a,,,,,,-51,-74,1,0,0,response5disk,1.7431,-15,-3,1,0,0,rectangle,-15,-3,1,0,0,3,3,"[113,121,158,132,96,110,124,90,141,18]",-15,-3,1,0,0,1,45,126,19,1,LightGreen,LightGreen.jpg,Turquiose,Turquiose.jpg,,
,,,,,,,,,,,,,,,,,,1,,,,,,,,,,,,,,,,,,,,,,,,,,,Etha,001,2021-12-05_20h17.45.333,jm_natural_scene_simialrity_2-12-2021,2021.2.3,Win32,59.58410296,613b86dafc386be5570e1178,61ad71e11ddd29ccf7a27d5b,61ad72757df3282a4f98578a,,,,,,49,-76,1,0,0,response3disk,1.5503,7,-7,1,0,0,rectangle,7,-7,1,0,0,3,-1,"[113,121,158,132,96,110,124,90,141,18]",7,-7,1,0,0,1,46,127,36,1,LightBlue,LightBlue.jpg,DarkBlue,DarkBlue.jpg,,
,,,,,,,,,,,,,,,,,,-2,,,,,,,,,,,,,,,,,,,,,,,,,,,Etha,001,2021-12-05_20h17.45.333,jm_natural_scene_simialrity_2-12-2021,2021.2.3,Win32,59.58410296,613b86dafc386be5570e1178,61ad71e11ddd29ccf7a27d5b,61ad72757df3282a4f98578a,,,,,,-59,-40,1,0,0,response5disk,1.1625,5,8,1,0,0,rectangle,5,8,1,0,0,3,2,"[113,121,158,132,96,110,124,90,141,18]",5,8,1,0,0,1,47,128,56,1,LightBlue,LightBlue.jpg,Yellow,Yellow.jpg,,
,,,,,,,,,,,,,,,,,,2,,,,,,,,,,,,,,,,,,,,,,,,,,,Etha,001,2021-12-05_20h17.45.333,jm_natural_scene_simialrity_2-12-2021,2021.2.3,Win32,59.58410296,613b86dafc386be5570e1178,61ad71e11ddd29ccf7a27d5b,61ad72757df3282a4f98578a,,,,,,89,-34,1,0,0,response3disk,1.1656,-21,16,1,0,0,rectangle,-21,16,1,0,0,3,-4,"[113,121,158,132,96,110,124,90,141,18]",-21,16,1,0,0,1,48,129,38,1,LightBlue,LightBlue.jpg,Purple,Purple.jpg,,
,,,,,,,,,,,,,,,,,,-1,,,,,,,,,,,,,,,,,,,,,,,,,,,Etha,001,2021-12-05_20h17.45.333,jm_natural_scene_simialrity_2-12-2021,2021.2.3,Win32,59.58410296,613b86dafc386be5570e1178,61ad71e11ddd29ccf7a27d5b,61ad72757df3282a4f98578a,,,,,,-40,-67,1,0,0,response5disk,1.211,8,-2,1,0,0,rectangle,8,-2,1,0,0,3,-3,"[113,121,158,132,96,110,124,90,141,18]",8,-2,1,0,0,1,49,130,21,1,LightGreen,LightGreen.jpg,DarkBlue,DarkBlue.jpg,,
,,,,,,,,,,,,,,,,,,3,,,,,,,,,,,,,,,,,,,,,,,,,,,Etha,001,2021-12-05_20h17.45.333,jm_natural_scene_simialrity_2-12-2021,2021.2.3,Win32,59.58410296,613b86dafc386be5570e1178,61ad71e11ddd29ccf7a27d5b,61ad72757df3282a4f98578a,,,,,,111,61,1,0,0,response1disk,0.9937,8,7,1,0,0,rectangle,-119,-45,1,0,0,3,-2,"[113,121,158,132,96,110,124,90,141,18]",-7,7,1,0,0,1,50,131,60,1,DarkGreen,DarkGreen.jpg,LightGreen,LightGreen.jpg,response5disk_3,rectangle
,,,,,,,,,,,,,,,,,,3,,,,,,,,,,,,,,,,,,,,,,,,,,,Etha,001,2021-12-05_20h17.45.333,jm_natural_scene_simialrity_2-12-2021,2021.2.3,Win32,59.58410296,613b86dafc386be5570e1178,61ad71e11ddd29ccf7a27d5b,61ad72757df3282a4f98578a,,,,,,63,28,1,0,0,response1disk,2.7432,-2,-1,1,0,0,rectangle,-2,-1,1,0,0,3,2,"[113,121,158,132,96,110,124,90,141,18]",-2,-1,1,0,0,1,51,132,77,1,Purple,Purple.jpg,LightBlue,LightBlue.jpg,,
,,,,,,,,,,,,,,,,,,-2,,,,,,,,,,,,,,,,,,,,,,,,,,,Etha,001,2021-12-05_20h17.45.333,jm_natural_scene_simialrity_2-12-2021,2021.2.3,Win32,59.58410296,613b86dafc386be5570e1178,61ad71e11ddd29ccf7a27d5b,61ad72757df3282a4f98578a,,,,,,-108,-47,1,0,0,response5disk,1.5836,-14,-6,1,0,0,rectangle,-14,-6,1,0,0,3,1,"[113,121,158,132,96,110,124,90,141,18]",-14,-6,1,0,0,1,52,133,80,1,Purple,Purple.jpg,Pink,Pink.jpg,,
,,,,,,,,,,,,,,,,,,-2,,,,,,,,,,,,,,,,,,,,,,,,,,,Etha,001,2021-12-05_20h17.45.333,jm_natural_scene_simialrity_2-12-2021,2021.2.3,Win32,59.58410296,613b86dafc386be5570e1178,61ad71e11ddd29ccf7a27d5b,61ad72757df3282a4f98578a,,,,,,-80,-37,1,0,0,response5disk,1.1459,-9,-6,1,0,0,rectangle,-9,-6,1,0,0,3,1,"[113,121,158,132,96,110,124,90,141,18]",-9,-6,1,0,0,1,53,134,73,1,Pink,Pink.jpg,Turquiose,Turquiose.jpg,,
,,,,,,,,,,,,,,,,,,4,,,,,,,,,,,,,,,,,,,,,,,,,,,Etha,001,2021-12-05_20h17.45.333,jm_natural_scene_simialrity_2-12-2021,2021.2.3,Win32,59.58410296,613b86dafc386be5570e1178,61ad71e11ddd29ccf7a27d5b,61ad72757df3282a4f98578a,,,,,,47,114,1,0,0,response1disk,0.9218,9,11,1,0,0,rectangle,9,11,1,0,0,3,1,"[113,121,158,132,96,110,124,90,141,18]",9,11,1,0,0,1,54,135,30,1,Turquiose,Turquiose.jpg,Turquiose,Turquiose.jpg,,
,,,,,,,,,,,,,,,,,,4,,,,,,,,,,,,,,,,,,,,,,,,,,,Etha,001,2021-12-05_20h17.45.333,jm_natural_scene_simialrity_2-12-2021,2021.2.3,Win32,59.58410296,613b86dafc386be5570e1178,61ad71e11ddd29ccf7a27d5b,61ad72757df3282a4f98578a,,,,,,41,105,1,0,0,response1disk,0.7897,7,16,1,0,0,rectangle,7,16,1,0,0,3,-3,"[113,121,158,132,96,110,124,90,141,18]",7,16,1,0,0,1,55,136,0,1,Red,Red.jpg,Red,Red.jpg,,
,,,,,,,,,,,,,,,,,,2,,,,,,,,,,,,,,,,,,,,,,,,,,,Etha,001,2021-12-05_20h17.45.333,jm_natural_scene_simialrity_2-12-2021,2021.2.3,Win32,59.58410296,613b86dafc386be5570e1178,61ad71e11ddd29ccf7a27d5b,61ad72757df3282a4f98578a,,,,,,92,-50,1,0,0,response3disk,1.011,-3,5,1,0,0,rectangle,-3,5,1,0,0,3,-3,"[113,121,158,132,96,110,124,90,141,18]",-3,5,1,0,0,1,56,137,72,1,DarkBlue,DarkBlue.jpg,Turquiose,Turquiose.jpg,,
,,,,,,,,,,,,,,,,,,1,,,,,,,,,,,,,,,,,,,,,,,,,,,Etha,001,2021-12-05_20h17.45.333,jm_natural_scene_simialrity_2-12-2021,2021.2.3,Win32,59.58410296,613b86dafc386be5570e1178,61ad71e11ddd29ccf7a27d5b,61ad72757df3282a4f98578a,,,,,,28,-90,1,0,0,response3disk,1.2946,-3,-5,1,0,0,rectangle,-3,-5,1,0,0,3,-1,"[113,121,158,132,96,110,124,90,141,18]",-3,-5,1,0,0,1,57,138,52,1,Purple,Purple.jpg,Red,Red.jpg,,
,,,,,,,,,,,,,,,,,,-2,,,,,,,,,,,,,,,,,,,,,,,,,,,Etha,001,2021-12-05_20h17.45.333,jm_natural_scene_simialrity_2-12-2021,2021.2.3,Win32,59.58410296,613b86dafc386be5570e1178,61ad71e11ddd29ccf7a27d5b,61ad72757df3282a4f98578a,,,,,,-94,-40,1,0,0,response5disk,0.9225,2,-7,1,0,0,rectangle,2,-7,1,0,0,3,1,"[113,121,158,132,96,110,124,90,141,18]",2,-7,1,0,0,1,58,139,33,1,Turquiose,Turquiose.jpg,Pink,Pink.jpg,,
,,,,,,,,,,,,,,,,,,-2,,,,,,,,,,,,,,,,,,,,,,,,,,,Etha,001,2021-12-05_20h17.45.333,jm_natural_scene_simialrity_2-12-2021,2021.2.3,Win32,59.58410296,613b86dafc386be5570e1178,61ad71e11ddd29ccf7a27d5b,61ad72757df3282a4f98578a,,,,,,-77,-41,1,0,0,response5disk,0.8609,-3,0,1,0,0,rectangle,52,-108,1,0,0,1,1,"[113,121,158,132,96,110,124,90,141,18]",-4,-9,1,0,0,1,59,140,46,1,LightGreen,LightGreen.jpg,Red,Red.jpg,response3disk_3,rectangle
,,,,,,,,,,,,,,,,,,-1,,,,,,,,,,,,,,,,,,,,,,,,,,,Etha,001,2021-12-05_20h17.45.333,jm_natural_scene_simialrity_2-12-2021,2021.2.3,Win32,59.58410296,613b86dafc386be5570e1178,61ad71e11ddd29ccf7a27d5b,61ad72757df3282a4f98578a,,,,,,-44,-88,1,0,0,response5disk,1.4895,-5,-2,1,0,0,rectangle,-5,-2,1,0,0,1,1,"[113,121,158,132,96,110,124,90,141,18]",-5,-2,1,0,0,1,60,141,4,1,Red,Red.jpg,Turquiose,Turquiose.jpg,,
,,,,,,,,,,,,,,,,,,-1,,,,,,,,,,,,,,,,,,,,,,,,,,,Etha,001,2021-12-05_20h17.45.333,jm_natural_scene_simialrity_2-12-2021,2021.2.3,Win32,59.58410296,613b86dafc386be5570e1178,61ad71e11ddd29ccf7a27d5b,61ad72757df3282a4f98578a,,,,,,-54,-89,1,0,0,response5disk,0.919,-6,-5,1,0,0,rectangle,-6,-5,1,0,0,1,-2,"[113,121,158,132,96,110,124,90,141,18]",-6,-5,1,0,0,1,61,142,8,1,Red,Red.jpg,Purple,Purple.jpg,,
,,,,,,,,,,,,,,,,,,-2,,,,,,,,,,,,,,,,,,,,,,,,,,,Etha,001,2021-12-05_20h17.45.333,jm_natural_scene_simialrity_2-12-2021,2021.2.3,Win32,59.58410296,613b86dafc386be5570e1178,61ad71e11ddd29ccf7a27d5b,61ad72757df3282a4f98578a,,,,,,-93,-52,1,0,0,response5disk,1.6118,-4,-3,1,0,0,rectangle,-4,-3,1,0,0,1,-1,"[113,121,158,132,96,110,124,90,141,18]",-4,-3,1,0,0,1,62,143,5,1,Red,Red.jpg,LightBlue,LightBlue.jpg,,
,,,,,,,,,,,,,,,,,,4,,,,,,,,,,,,,,,,,,,,,,,,,,,Etha,001,2021-12-05_20h17.45.333,jm_natural_scene_simialrity_2-12-2021,2021.2.3,Win32,59.58410296,613b86dafc386be5570e1178,61ad71e11ddd29ccf7a27d5b,61ad72757df3282a4f98578a,,,,,,44,113,1,0,0,response1disk,0.9682,-7,3,1,0,0,rectangle,-7,3,1,0,0,1,-4,"[113,121,158,132,96,110,124,90,141,18]",-7,3,1,0,0,1,63,144,9,1,Yellow,Yellow.jpg,Yellow,Yellow.jpg,,
,,,,,,,,,,,,,,,,,,4,,,,,,,,,,,,,,,,,,,,,,,,,,,Etha,001,2021-12-05_20h17.45.333,jm_natural_scene_simialrity_2-12-2021,2021.2.3,Win32,59.58410296,613b86dafc386be5570e1178,61ad71e11ddd29ccf7a27d5b,61ad72757df3282a4f98578a,,,,,,67,94,1,0,0,response1disk,0.8986,6,1,1,0,0,rectangle,6,1,1,0,0,1,3,"[113,121,158,132,96,110,124,90,141,18]",6,1,1,0,0,1,64,145,44,1,Purple,Purple.jpg,Purple,Purple.jpg,,
,,,,,,,,,,,,,,,,,,-3,,,,,,,,,,,,,,,,,,,,,,,,,,,Etha,001,2021-12-05_20h17.45.333,jm_natural_scene_simialrity_2-12-2021,2021.2.3,Win32,59.58410296,613b86dafc386be5570e1178,61ad71e11ddd29ccf7a27d5b,61ad72757df3282a4f98578a,,,,,,-95,45,1,0,0,response7disk,1.4384,-3,-3,1,0,0,rectangle,-3,-3,1,0,0,1,1,"[113,121,158,132,96,110,124,90,141,18]",-3,-3,1,0,0,1,65,146,54,1,DarkGreen,DarkGreen.jpg,Yellow,Yellow.jpg,,
,,,,,,,,,,,,,,,,,,-2,,,,,,,,,,,,,,,,,,,,,,,,,,,Etha,001,2021-12-05_20h17.45.333,jm_natural_scene_simialrity_2-12-2021,2021.2.3,Win32,59.58410296,613b86dafc386be5570e1178,61ad71e11ddd29ccf7a27d5b,61ad72757df3282a4f98578a,,,,,,-91,-42,1,0,0,response5disk,2.2852,9,11,1,0,0,rectangle,9,11,1,0,0,1,-4,"[113,121,158,132,96,110,124,90,141,18]",9,11,1,0,0,1,66,147,2,1,Red,Red.jpg,LightGreen,LightGreen.jpg,,
,,,,,,,,,,,,,,,,,,-2,,,,,,,,,,,,,,,,,,,,,,,,,,,Etha,001,2021-12-05_20h17.45.333,jm_natural_scene_simialrity_2-12-2021,2021.2.3,Win32,59.58410296,613b86dafc386be5570e1178,61ad71e11ddd29ccf7a27d5b,61ad72757df3282a4f98578a,,,,,,-79,-29,1,0,0,response5disk,1.2315,8,6,1,0,0,rectangle,8,6,1,0,0,1,-2,"[113,121,158,132,96,110,124,90,141,18]",8,6,1,0,0,1,67,148,66,1,Turquiose,Turquiose.jpg,DarkGreen,DarkGreen.jpg,,
,,,,,,,,,,,,,,,,,,-3,,,,,,,,,,,,,,,,,,,,,,,,,,,Etha,001,2021-12-05_20h17.45.333,jm_natural_scene_simialrity_2-12-2021,2021.2.3,Win32,59.58410296,613b86dafc386be5570e1178,61ad71e11ddd29ccf7a27d5b,61ad72757df3282a4f98578a,,,,,,-86,35,1,0,0,response7disk,1.3441,4,1,1,0,0,rectangle,4,1,1,0,0,1,1,"[113,121,158,132,96,110,124,90,141,18]",4,1,1,0,0,1,68,149,53,1,LightGreen,LightGreen.jpg,Yellow,Yellow.jpg,,
,,,,,,,,,,,,,,,,,,-2,,,,,,,,,,,,,,,,,,,,,,,,,,,Etha,001,2021-12-05_20h17.45.333,jm_natural_scene_simialrity_2-12-2021,2021.2.3,Win32,59.58410296,613b86dafc386be5570e1178,61ad71e11ddd29ccf7a27d5b,61ad72757df3282a4f98578a,,,,,,-85,-31,1,0,0,response5disk,1.4869,1,-6,1,0,0,rectangle,1,-6,1,0,0,1,3,"[113,121,158,132,96,110,124,90,141,18]",1,-6,1,0,0,1,69,150,61,1,Turquiose,Turquiose.jpg,LightGreen,LightGreen.jpg,,
,,,,,,,,,,,,,,,,,,-1,,,,,,,,,,,,,,,,,,,,,,,,,,,Etha,001,2021-12-05_20h17.45.333,jm_natural_scene_simialrity_2-12-2021,2021.2.3,Win32,59.58410296,613b86dafc386be5570e1178,61ad71e11ddd29ccf7a27d5b,61ad72757df3282a4f98578a,,,,,,-53,-80,1,0,0,response5disk,1.3023,-3,-7,1,0,0,rectangle,-3,-7,1,0,0,1,1,"[113,121,158,132,96,110,124,90,141,18]",-3,-7,1,0,0,1,70,151,20,1,LightGreen,LightGreen.jpg,LightBlue,LightBlue.jpg,,
,,,,,,,,,,,,,,,,,,-2,,,,,,,,,,,,,,,,,,,,,,,,,,,Etha,001,2021-12-05_20h17.45.333,jm_natural_scene_simialrity_2-12-2021,2021.2.3,Win32,59.58410296,613b86dafc386be5570e1178,61ad71e11ddd29ccf7a27d5b,61ad72757df3282a4f98578a,,,,,,-74,-35,1,0,0,response5disk,1.0097,3,-5,1,0,0,rectangle,3,-5,1,0,0,1,1,"[113,121,158,132,96,110,124,90,141,18]",3,-5,1,0,0,1,71,152,3,1,Red,Red.jpg,DarkGreen,DarkGreen.jpg,,
,,,,,,,,,,,,,,,,,,-2,,,,,,,,,,,,,,,,,,,,,,,,,,,Etha,001,2021-12-05_20h17.45.333,jm_natural_scene_simialrity_2-12-2021,2021.2.3,Win32,59.58410296,613b86dafc386be5570e1178,61ad71e11ddd29ccf7a27d5b,61ad72757df3282a4f98578a,,,,,,-93,-41,1,0,0,response5disk,1.1753,-2,-2,1,0,0,rectangle,-2,-2,1,0,0,1,-3,"[113,121,158,132,96,110,124,90,141,18]",-2,-2,1,0,0,1,72,153,64,1,Pink,Pink.jpg,LightGreen,LightGreen.jpg,,
,,,,,,,,,,,,,,,,,,-3,,,,,,,,,,,,,,,,,,,,,,,,,,,Etha,001,2021-12-05_20h17.45.333,jm_natural_scene_simialrity_2-12-2021,2021.2.3,Win32,59.58410296,613b86dafc386be5570e1178,61ad71e11ddd29ccf7a27d5b,61ad72757df3282a4f98578a,,,,,,-79,38,1,0,0,response7disk,1.0786,-10,2,1,0,0,rectangle,-10,2,1,0,0,1,2,"[113,121,158,132,96,110,124,90,141,18]",-10,2,1,0,0,1,73,154,62,1,LightBlue,LightBlue.jpg,LightGreen,LightGreen.jpg,,
,,,,,,,,,,,,,,,,,,-3,,,,,,,,,,,,,,,,,,,,,,,,,,,Etha,001,2021-12-05_20h17.45.333,jm_natural_scene_simialrity_2-12-2021,2021.2.3,Win32,59.58410296,613b86dafc386be5570e1178,61ad71e11ddd29ccf7a27d5b,61ad72757df3282a4f98578a,,,,,,-104,47,1,0,0,response7disk,1.1769,-12,-7,1,0,0,rectangle,-12,-7,1,0,0,1,-1,"[113,121,158,132,96,110,124,90,141,18]",-12,-7,1,0,0,1,74,155,25,1,DarkGreen,DarkGreen.jpg,Turquiose,Turquiose.jpg,,
,,,,,,,,,,,,,,,,,,-3,,,,,,,,,,,,,,,,,,,,,,,,,,,Etha,001,2021-12-05_20h17.45.333,jm_natural_scene_simialrity_2-12-2021,2021.2.3,Win32,59.58410296,613b86dafc386be5570e1178,61ad71e11ddd29ccf7a27d5b,61ad72757df3282a4f98578a,,,,,,-77,48,1,0,0,response7disk,1.39,-2,16,1,0,0,rectangle,-2,16,1,0,0,1,-3,"[113,121,158,132,96,110,124,90,141,18]",-2,16,1,0,0,1,75,156,28,1,DarkGreen,DarkGreen.jpg,Pink,Pink.jpg,,
,,,,,,,,,,,,,,,,,,-3,,,,,,,,,,,,,,,,,,,,,,,,,,,Etha,001,2021-12-05_20h17.45.333,jm_natural_scene_simialrity_2-12-2021,2021.2.3,Win32,59.58410296,613b86dafc386be5570e1178,61ad71e11ddd29ccf7a27d5b,61ad72757df3282a4f98578a,,,,,,-82,31,1,0,0,response7disk,1.2769,-10,-6,1,0,0,rectangle,50,-100,1,0,0,1,1,"[113,121,158,132,96,110,124,90,141,18]",-1,-7,1,0,0,1,76,157,48,1,Turquiose,Turquiose.jpg,Red,Red.jpg,response3disk_3,rectangle
,,,,,,,,,,,,,,,,,,3,,,,,,,,,,,,,,,,,,,,,,,,,,,Etha,001,2021-12-05_20h17.45.333,jm_natural_scene_simialrity_2-12-2021,2021.2.3,Win32,59.58410296,613b86dafc386be5570e1178,61ad71e11ddd29ccf7a27d5b,61ad72757df3282a4f98578a,,,,,,78,36,1,0,0,response1disk,1.1223,-1,-10,1,0,0,rectangle,-1,-10,1,0,0,1,-2,"[113,121,158,132,96,110,124,90,141,18]",-1,-10,1,0,0,1,77,158,51,1,Pink,Pink.jpg,Red,Red.jpg,,
,,,,,,,,,,,,,,,,,,4,,,,,,,,,,,,,,,,,,,,,,,,,,,Etha,001,2021-12-05_20h17.45.333,jm_natural_scene_simialrity_2-12-2021,2021.2.3,Win32,59.58410296,613b86dafc386be5570e1178,61ad71e11ddd29ccf7a27d5b,61ad72757df3282a4f98578a,,,,,,47,98,1,0,0,response1disk,0.8142,-17,-3,1,0,0,rectangle,-17,-3,1,0,0,1,2,"[113,121,158,132,96,110,124,90,141,18]",-17,-3,1,0,0,1,78,159,42,1,Pink,Pink.jpg,Pink,Pink.jpg,,
,,,,,,,,,,,,,,,,,,1,,,,,,,,,,,,,,,,,,,,,,,,,,,Etha,001,2021-12-05_20h17.45.333,jm_natural_scene_simialrity_2-12-2021,2021.2.3,Win32,59.58410296,613b86dafc386be5570e1178,61ad71e11ddd29ccf7a27d5b,61ad72757df3282a4f98578a,,,,,,58,-80,1,0,0,response3disk,1.9277,10,-8,1,0,0,rectangle,10,-8,1,0,0,1,-2,"[113,121,158,132,96,110,124,90,141,18]",10,-8,1,0,0,1,79,160,41,1,DarkBlue,DarkBlue.jpg,Purple,Purple.jpg,,
,,,,,,,,,,,,,,,,,,-1,,,,,,,,,,,,,,,,,,,,,,,,,,,Etha,001,2021-12-05_20h17.45.333,jm_natural_scene_simialrity_2-12-2021,2021.2.3,Win32,59.58410296,613b86dafc386be5570e1178,61ad71e11ddd29ccf7a27d5b,61ad72757df3282a4f98578a,,,,,,-62,-79,1,0,0,response5disk,1.068,-2,-4,1,0,0,rectangle,-2,-4,1,0,0,1,-3,"[113,121,158,132,96,110,124,90,141,18]",-2,-4,1,0,0,1,80,161,78,1,Pink,Pink.jpg,DarkBlue,DarkBlue.jpg,,
