key_resp.keys,key_resp.rt,key_resp_16.keys,key_resp_16.rt,key_resp_2.keys,key_resp_2.rt,key_resp_3.keys,key_resp_3.rt,key_resp_19.keys,key_resp_19.rt,key_resp_10.keys,key_resp_10.rt,mouse_prac.x,mouse_prac.y,mouse_prac.leftButton,mouse_prac.midButton,mouse_prac.rightButton,mouse_prac.clicked_name,similarity,mouse_10.x,mouse_10.y,mouse_10.leftButton,mouse_10.midButton,mouse_10.rightButton,mouse_10.clicked_name,mouse_catch_prac.x,mouse_catch_prac.y,mouse_catch_prac.leftButton,mouse_catch_prac.midButton,mouse_catch_prac.rightButton,mouse_catch_prac.clicked_name,catchprac,catchnumberprac,mouse_6.x,mouse_6.y,mouse_6.leftButton,mouse_6.midButton,mouse_6.rightButton,mouse_6.clicked_name,during_prac.thisRepN,during_prac.thisTrialN,during_prac.thisN,during_prac.thisIndex,during_prac.ran,trailimage1,trial1adress,trailimage2,trial2adress,participant,session,date,expName,psychopyVersion,OS,frameRate,PROLIFIC_PID,STUDY_ID,SESSION_ID,key_resp_22.keys,key_resp_22.rt,mouse.x,mouse.y,mouse.leftButton,mouse.midButton,mouse.rightButton,mouse.clicked_name,response_time,mouse_2.x,mouse_2.y,mouse_2.leftButton,mouse_2.midButton,mouse_2.rightButton,mouse_2.clicked_name,mouse_3.x,mouse_3.y,mouse_3.leftButton,mouse_3.midButton,mouse_3.rightButton,catchresponse,catchnumber,catchtrialorder,mouse_11.x,mouse_11.y,mouse_11.leftButton,mouse_11.midButton,mouse_11.rightButton,trials_2.thisRepN,trials_2.thisTrialN,trials_2.thisN,trials_2.thisIndex,trials_2.ran,image1,image1adress,image2,image2adress,mouse_3.clicked_name,mouse_11.clicked_name
space,1.614,space,6.191,space,4.058,space,6.328,space,28.704,space,2.947,73,38,1,0,0,response1disk_5,3,4,-2,1,0,0,rectangle_8,33,-108,1,0,0,response3disk_7,1,1,-7,-6,1,0,0,rectangle_4,0,0,0,3,1,trail2,trail2.jpg,trail2,trail2.jpg,ismo,001,2021-12-06_04h17.11,jm_natural_scene_simialrity_2-12-2021,2021.2.3,MacIntel,62.5,60ff2b881b69fe44acefde87,61ad71e11ddd29ccf7a27d5b,61ad725385d624d5cc162d57,,,,,,,,,,,,,,,,,,,,,,,,,,,,,,,,,,,,,,,
,,,,,,,,,,,,80,-39,1,0,0,response3disk_5,2,-19,2,1,0,0,rectangle_8,-19,2,1,0,0,,,1,-19,2,1,0,0,,0,1,1,2,1,trail1,trail1.jpg,trail3,trail3.jpg,ismo,001,2021-12-06_04h17.11,jm_natural_scene_simialrity_2-12-2021,2021.2.3,MacIntel,62.5,60ff2b881b69fe44acefde87,61ad71e11ddd29ccf7a27d5b,61ad725385d624d5cc162d57,,,,,,,,,,,,,,,,,,,,,,,,,,,,,,,,,,,,,,,
,,,,,,,,,,,,-37,-75,1,0,0,response5disk_5,-1,3,-3,1,0,0,rectangle_8,3,-3,1,0,0,,,1,3,-3,1,0,0,,0,2,2,4,1,trail2,trail2.jpg,trail3,trail3.jpg,ismo,001,2021-12-06_04h17.11,jm_natural_scene_simialrity_2-12-2021,2021.2.3,MacIntel,62.5,60ff2b881b69fe44acefde87,61ad71e11ddd29ccf7a27d5b,61ad725385d624d5cc162d57,,,,,,,,,,,,,,,,,,,,,,,,,,,,,,,,,,,,,,,
,,,,,,,,,,,,40,113,1,0,0,response1disk_5,4,-6,-16,1,0,0,rectangle_8,28,-81,1,0,0,response3disk_7,1,1,0,-1,1,0,0,rectangle_4,0,3,3,0,1,trail1,trail1.jpg,trail1,trail1.jpg,ismo,001,2021-12-06_04h17.11,jm_natural_scene_simialrity_2-12-2021,2021.2.3,MacIntel,62.5,60ff2b881b69fe44acefde87,61ad71e11ddd29ccf7a27d5b,61ad725385d624d5cc162d57,,,,,,,,,,,,,,,,,,,,,,,,,,,,,,,,,,,,,,,
,,,,,,,,,,,,45,112,1,0,0,response1disk_5,4,-4,10,1,0,0,rectangle_8,-4,10,1,0,0,,,1,-4,10,1,0,0,,0,4,4,5,1,trail3,trail3.jpg,trail3,trail3.jpg,ismo,001,2021-12-06_04h17.11,jm_natural_scene_simialrity_2-12-2021,2021.2.3,MacIntel,62.5,60ff2b881b69fe44acefde87,61ad71e11ddd29ccf7a27d5b,61ad725385d624d5cc162d57,,,,,,,,,,,,,,,,,,,,,,,,,,,,,,,,,,,,,,,
,,,,,,,,,,,,-62,102,1,0,0,response7disk_5,-4,2,18,1,0,0,rectangle_8,2,18,1,0,0,,,1,2,18,1,0,0,,0,5,5,1,1,trail1,trail1.jpg,trail2,trail2.jpg,ismo,001,2021-12-06_04h17.11,jm_natural_scene_simialrity_2-12-2021,2021.2.3,MacIntel,62.5,60ff2b881b69fe44acefde87,61ad71e11ddd29ccf7a27d5b,61ad725385d624d5cc162d57,,,,,,,,,,,,,,,,,,,,,,,,,,,,,,,,,,,,,,,
,,,,,,,,,,,,,,,,,,-3,,,,,,,,,,,,,,,,,,,,,,,,,,,,,,ismo,001,2021-12-06_04h17.11,jm_natural_scene_simialrity_2-12-2021,2021.2.3,MacIntel,62.5,60ff2b881b69fe44acefde87,61ad71e11ddd29ccf7a27d5b,61ad725385d624d5cc162d57,space,0.737,-86,63,1,0,0,response7disk,2.051,-6,1,1,0,0,rectangle,-6,1,1,0,0,,-4,"[110,64,67,109,19,144,36,78,107,67]",-6,1,1,0,0,0,0,0,23,1,LightGreen,LightGreen.jpg,Purple,Purple.jpg,,
,,,,,,,,,,,,,,,,,,-4,,,,,,,,,,,,,,,,,,,,,,,,,,,,,,ismo,001,2021-12-06_04h17.11,jm_natural_scene_simialrity_2-12-2021,2021.2.3,MacIntel,62.5,60ff2b881b69fe44acefde87,61ad71e11ddd29ccf7a27d5b,61ad725385d624d5cc162d57,,,-67,123,1,0,0,response7disk,1.168,3,5,1,0,0,rectangle,3,5,1,0,0,,-2,"[110,64,67,109,19,144,36,78,107,67]",3,5,1,0,0,0,1,1,10,1,Yellow,Yellow.jpg,LightGreen,LightGreen.jpg,,
,,,,,,,,,,,,,,,,,,2,,,,,,,,,,,,,,,,,,,,,,,,,,,,,,ismo,001,2021-12-06_04h17.11,jm_natural_scene_simialrity_2-12-2021,2021.2.3,MacIntel,62.5,60ff2b881b69fe44acefde87,61ad71e11ddd29ccf7a27d5b,61ad725385d624d5cc162d57,,,115,-36,1,0,0,response3disk,1.333,-13,8,1,0,0,rectangle,-13,8,1,0,0,,2,"[110,64,67,109,19,144,36,78,107,67]",-13,8,1,0,0,0,2,2,1,1,Red,Red.jpg,Yellow,Yellow.jpg,,
,,,,,,,,,,,,,,,,,,-4,,,,,,,,,,,,,,,,,,,,,,,,,,,,,,ismo,001,2021-12-06_04h17.11,jm_natural_scene_simialrity_2-12-2021,2021.2.3,MacIntel,62.5,60ff2b881b69fe44acefde87,61ad71e11ddd29ccf7a27d5b,61ad725385d624d5cc162d57,,,-55,102,1,0,0,response7disk,0.884,-1,-8,1,0,0,rectangle,-1,-8,1,0,0,,2,"[110,64,67,109,19,144,36,78,107,67]",-1,-8,1,0,0,0,3,3,28,1,DarkGreen,DarkGreen.jpg,Pink,Pink.jpg,,
,,,,,,,,,,,,,,,,,,-2,,,,,,,,,,,,,,,,,,,,,,,,,,,,,,ismo,001,2021-12-06_04h17.11,jm_natural_scene_simialrity_2-12-2021,2021.2.3,MacIntel,62.5,60ff2b881b69fe44acefde87,61ad71e11ddd29ccf7a27d5b,61ad725385d624d5cc162d57,,,-77,-38,1,0,0,response5disk,1.767,-1,-14,1,0,0,rectangle,-1,-14,1,0,0,,2,"[110,64,67,109,19,144,36,78,107,67]",-1,-14,1,0,0,0,4,4,4,1,Red,Red.jpg,Turquiose,Turquiose.jpg,,
,,,,,,,,,,,,,,,,,,-1,,,,,,,,,,,,,,,,,,,,,,,,,,,,,,ismo,001,2021-12-06_04h17.11,jm_natural_scene_simialrity_2-12-2021,2021.2.3,MacIntel,62.5,60ff2b881b69fe44acefde87,61ad71e11ddd29ccf7a27d5b,61ad725385d624d5cc162d57,,,-54,-95,1,0,0,response5disk,2.515,-8,6,1,0,0,rectangle,-8,6,1,0,0,,1,"[110,64,67,109,19,144,36,78,107,67]",-8,6,1,0,0,0,5,5,25,1,DarkGreen,DarkGreen.jpg,Turquiose,Turquiose.jpg,,
,,,,,,,,,,,,,,,,,,-4,,,,,,,,,,,,,,,,,,,,,,,,,,,,,,ismo,001,2021-12-06_04h17.11,jm_natural_scene_simialrity_2-12-2021,2021.2.3,MacIntel,62.5,60ff2b881b69fe44acefde87,61ad71e11ddd29ccf7a27d5b,61ad725385d624d5cc162d57,,,-80,102,1,0,0,response7disk,0.832,-12,10,1,0,0,rectangle,-12,10,1,0,0,,1,"[110,64,67,109,19,144,36,78,107,67]",-12,10,1,0,0,0,6,6,41,1,DarkBlue,DarkBlue.jpg,Purple,Purple.jpg,,
,,,,,,,,,,,,,,,,,,4,,,,,,,,,,,,,,,,,,,,,,,,,,,,,,ismo,001,2021-12-06_04h17.11,jm_natural_scene_simialrity_2-12-2021,2021.2.3,MacIntel,62.5,60ff2b881b69fe44acefde87,61ad71e11ddd29ccf7a27d5b,61ad725385d624d5cc162d57,,,58,114,1,0,0,response1disk,0.783,-11,-12,1,0,0,rectangle,-11,-12,1,0,0,,-3,"[110,64,67,109,19,144,36,78,107,67]",-11,-12,1,0,0,0,7,7,39,1,DarkBlue,DarkBlue.jpg,DarkBlue,DarkBlue.jpg,,
,,,,,,,,,,,,,,,,,,2,,,,,,,,,,,,,,,,,,,,,,,,,,,,,,ismo,001,2021-12-06_04h17.11,jm_natural_scene_simialrity_2-12-2021,2021.2.3,MacIntel,62.5,60ff2b881b69fe44acefde87,61ad71e11ddd29ccf7a27d5b,61ad725385d624d5cc162d57,,,64,-33,1,0,0,response3disk,1.299,-15,12,1,0,0,rectangle,-15,12,1,0,0,,1,"[110,64,67,109,19,144,36,78,107,67]",-15,12,1,0,0,0,8,8,38,1,LightBlue,LightBlue.jpg,Purple,Purple.jpg,,
,,,,,,,,,,,,,,,,,,4,,,,,,,,,,,,,,,,,,,,,,,,,,,,,,ismo,001,2021-12-06_04h17.11,jm_natural_scene_simialrity_2-12-2021,2021.2.3,MacIntel,62.5,60ff2b881b69fe44acefde87,61ad71e11ddd29ccf7a27d5b,61ad725385d624d5cc162d57,,,55,76,1,0,0,response1disk,0.667,-10,-5,1,0,0,rectangle,-10,-5,1,0,0,,-3,"[110,64,67,109,19,144,36,78,107,67]",-10,-5,1,0,0,0,9,9,42,1,Pink,Pink.jpg,Pink,Pink.jpg,,
,,,,,,,,,,,,,,,,,,4,,,,,,,,,,,,,,,,,,,,,,,,,,,,,,ismo,001,2021-12-06_04h17.11,jm_natural_scene_simialrity_2-12-2021,2021.2.3,MacIntel,62.5,60ff2b881b69fe44acefde87,61ad71e11ddd29ccf7a27d5b,61ad725385d624d5cc162d57,,,40,108,1,0,0,response1disk,0.6,-2,6,1,0,0,rectangle,-2,6,1,0,0,,-3,"[110,64,67,109,19,144,36,78,107,67]",-2,6,1,0,0,0,10,10,17,1,LightGreen,LightGreen.jpg,LightGreen,LightGreen.jpg,,
,,,,,,,,,,,,,,,,,,-2,,,,,,,,,,,,,,,,,,,,,,,,,,,,,,ismo,001,2021-12-06_04h17.11,jm_natural_scene_simialrity_2-12-2021,2021.2.3,MacIntel,62.5,60ff2b881b69fe44acefde87,61ad71e11ddd29ccf7a27d5b,61ad725385d624d5cc162d57,,,-97,-33,1,0,0,response5disk,2.25,8,18,1,0,0,rectangle,8,18,1,0,0,,-2,"[110,64,67,109,19,144,36,78,107,67]",8,18,1,0,0,0,11,11,67,1,LightBlue,LightBlue.jpg,DarkGreen,DarkGreen.jpg,,
,,,,,,,,,,,,,,,,,,-4,,,,,,,,,,,,,,,,,,,,,,,,,,,,,,ismo,001,2021-12-06_04h17.11,jm_natural_scene_simialrity_2-12-2021,2021.2.3,MacIntel,62.5,60ff2b881b69fe44acefde87,61ad71e11ddd29ccf7a27d5b,61ad725385d624d5cc162d57,,,-50,91,1,0,0,response7disk,0.766,-15,4,1,0,0,rectangle,-15,4,1,0,0,,-2,"[110,64,67,109,19,144,36,78,107,67]",-15,4,1,0,0,0,12,12,22,1,LightGreen,LightGreen.jpg,Pink,Pink.jpg,,
,,,,,,,,,,,,,,,,,,-1,,,,,,,,,,,,,,,,,,,,,,,,,,,,,,ismo,001,2021-12-06_04h17.11,jm_natural_scene_simialrity_2-12-2021,2021.2.3,MacIntel,62.5,60ff2b881b69fe44acefde87,61ad71e11ddd29ccf7a27d5b,61ad725385d624d5cc162d57,,,-39,-83,1,0,0,response5disk,1.549,13,2,1,0,0,rectangle,13,2,1,0,0,,2,"[110,64,67,109,19,144,36,78,107,67]",13,2,1,0,0,0,13,13,13,1,Yellow,Yellow.jpg,LightBlue,LightBlue.jpg,,
,,,,,,,,,,,,,,,,,,1,,,,,,,,,,,,,,,,,,,,,,,,,,,,,,ismo,001,2021-12-06_04h17.11,jm_natural_scene_simialrity_2-12-2021,2021.2.3,MacIntel,62.5,60ff2b881b69fe44acefde87,61ad71e11ddd29ccf7a27d5b,61ad725385d624d5cc162d57,,,27,-51,1,0,0,response3disk,1.016,9,-4,1,0,0,rectangle,9,-4,1,0,0,,-2,"[110,64,67,109,19,144,36,78,107,67]",9,-4,1,0,0,0,14,14,77,1,Purple,Purple.jpg,LightBlue,LightBlue.jpg,,
,,,,,,,,,,,,,,,,,,-3,,,,,,,,,,,,,,,,,,,,,,,,,,,,,,ismo,001,2021-12-06_04h17.11,jm_natural_scene_simialrity_2-12-2021,2021.2.3,MacIntel,62.5,60ff2b881b69fe44acefde87,61ad71e11ddd29ccf7a27d5b,61ad725385d624d5cc162d57,,,-65,26,1,0,0,response7disk,1.133,-22,1,1,0,0,rectangle,-22,1,1,0,0,,2,"[110,64,67,109,19,144,36,78,107,67]",-22,1,1,0,0,0,15,15,61,1,Turquiose,Turquiose.jpg,LightGreen,LightGreen.jpg,,
,,,,,,,,,,,,,,,,,,-2,,,,,,,,,,,,,,,,,,,,,,,,,,,,,,ismo,001,2021-12-06_04h17.11,jm_natural_scene_simialrity_2-12-2021,2021.2.3,MacIntel,62.5,60ff2b881b69fe44acefde87,61ad71e11ddd29ccf7a27d5b,61ad725385d624d5cc162d57,,,-61,-26,1,0,0,response5disk,0.815,17,0,1,0,0,rectangle,17,0,1,0,0,,-2,"[110,64,67,109,19,144,36,78,107,67]",17,0,1,0,0,0,16,16,66,1,Turquiose,Turquiose.jpg,DarkGreen,DarkGreen.jpg,,
,,,,,,,,,,,,,,,,,,4,,,,,,,,,,,,,,,,,,,,,,,,,,,,,,ismo,001,2021-12-06_04h17.11,jm_natural_scene_simialrity_2-12-2021,2021.2.3,MacIntel,62.5,60ff2b881b69fe44acefde87,61ad71e11ddd29ccf7a27d5b,61ad725385d624d5cc162d57,,,24,74,1,0,0,response1disk,0.766,-23,-15,1,0,0,rectangle,-23,-15,1,0,0,,-4,"[110,64,67,109,19,144,36,78,107,67]",-23,-15,1,0,0,0,17,17,35,1,LightBlue,LightBlue.jpg,LightBlue,LightBlue.jpg,,
,,,,,,,,,,,,,,,,,,-2,,,,,,,,,,,,,,,,,,,,,,,,,,,,,,ismo,001,2021-12-06_04h17.11,jm_natural_scene_simialrity_2-12-2021,2021.2.3,MacIntel,62.5,60ff2b881b69fe44acefde87,61ad71e11ddd29ccf7a27d5b,61ad725385d624d5cc162d57,,,-73,-35,1,0,0,response5disk,1.683,-11,-7,1,0,0,rectangle,-68,33,1,0,0,-3,-3,"[110,64,67,109,19,144,36,78,107,67]",6,14,1,0,0,0,18,18,34,1,Turquiose,Turquiose.jpg,Purple,Purple.jpg,response7disk_3,rectangle
,,,,,,,,,,,,,,,,,,2,,,,,,,,,,,,,,,,,,,,,,,,,,,,,,ismo,001,2021-12-06_04h17.11,jm_natural_scene_simialrity_2-12-2021,2021.2.3,MacIntel,62.5,60ff2b881b69fe44acefde87,61ad71e11ddd29ccf7a27d5b,61ad725385d624d5cc162d57,,,86,-46,1,0,0,response3disk,0.999,-13,15,1,0,0,rectangle,-13,15,1,0,0,-3,1,"[110,64,67,109,19,144,36,78,107,67]",-13,15,1,0,0,0,19,19,45,1,Yellow,Yellow.jpg,Red,Red.jpg,,
,,,,,,,,,,,,,,,,,,-2,,,,,,,,,,,,,,,,,,,,,,,,,,,,,,ismo,001,2021-12-06_04h17.11,jm_natural_scene_simialrity_2-12-2021,2021.2.3,MacIntel,62.5,60ff2b881b69fe44acefde87,61ad71e11ddd29ccf7a27d5b,61ad725385d624d5cc162d57,,,-87,-21,1,0,0,response5disk,1.184,-10,7,1,0,0,rectangle,-10,7,1,0,0,-3,-3,"[110,64,67,109,19,144,36,78,107,67]",-10,7,1,0,0,0,20,20,26,1,DarkGreen,DarkGreen.jpg,LightBlue,LightBlue.jpg,,
,,,,,,,,,,,,,,,,,,2,,,,,,,,,,,,,,,,,,,,,,,,,,,,,,ismo,001,2021-12-06_04h17.11,jm_natural_scene_simialrity_2-12-2021,2021.2.3,MacIntel,62.5,60ff2b881b69fe44acefde87,61ad71e11ddd29ccf7a27d5b,61ad725385d624d5cc162d57,,,75,-57,1,0,0,response3disk,1.4,3,14,1,0,0,rectangle,3,14,1,0,0,-3,-4,"[110,64,67,109,19,144,36,78,107,67]",3,14,1,0,0,0,21,21,15,1,Yellow,Yellow.jpg,Pink,Pink.jpg,,
,,,,,,,,,,,,,,,,,,-1,,,,,,,,,,,,,,,,,,,,,,,,,,,,,,ismo,001,2021-12-06_04h17.11,jm_natural_scene_simialrity_2-12-2021,2021.2.3,MacIntel,62.5,60ff2b881b69fe44acefde87,61ad71e11ddd29ccf7a27d5b,61ad725385d624d5cc162d57,,,-53,-74,1,0,0,response5disk,1.134,-24,18,1,0,0,rectangle,-24,18,1,0,0,-3,-3,"[110,64,67,109,19,144,36,78,107,67]",-24,18,1,0,0,0,22,22,46,1,LightGreen,LightGreen.jpg,Red,Red.jpg,,
,,,,,,,,,,,,,,,,,,-3,,,,,,,,,,,,,,,,,,,,,,,,,,,,,,ismo,001,2021-12-06_04h17.11,jm_natural_scene_simialrity_2-12-2021,2021.2.3,MacIntel,62.5,60ff2b881b69fe44acefde87,61ad71e11ddd29ccf7a27d5b,61ad725385d624d5cc162d57,,,-87,37,1,0,0,response7disk,1.552,-3,1,1,0,0,rectangle,-3,1,1,0,0,-3,-2,"[110,64,67,109,19,144,36,78,107,67]",-3,1,1,0,0,0,23,23,78,1,Pink,Pink.jpg,DarkBlue,DarkBlue.jpg,,
,,,,,,,,,,,,,,,,,,1,,,,,,,,,,,,,,,,,,,,,,,,,,,,,,ismo,001,2021-12-06_04h17.11,jm_natural_scene_simialrity_2-12-2021,2021.2.3,MacIntel,62.5,60ff2b881b69fe44acefde87,61ad71e11ddd29ccf7a27d5b,61ad725385d624d5cc162d57,,,55,-79,1,0,0,response3disk,1.45,5,11,1,0,0,rectangle,5,11,1,0,0,-3,-1,"[110,64,67,109,19,144,36,78,107,67]",5,11,1,0,0,0,24,24,72,1,DarkBlue,DarkBlue.jpg,Turquiose,Turquiose.jpg,,
,,,,,,,,,,,,,,,,,,4,,,,,,,,,,,,,,,,,,,,,,,,,,,,,,ismo,001,2021-12-06_04h17.11,jm_natural_scene_simialrity_2-12-2021,2021.2.3,MacIntel,62.5,60ff2b881b69fe44acefde87,61ad71e11ddd29ccf7a27d5b,61ad725385d624d5cc162d57,,,55,104,1,0,0,response1disk,0.532,-15,2,1,0,0,rectangle,-15,2,1,0,0,-3,3,"[110,64,67,109,19,144,36,78,107,67]",-15,2,1,0,0,0,25,25,9,1,Yellow,Yellow.jpg,Yellow,Yellow.jpg,,
,,,,,,,,,,,,,,,,,,-2,,,,,,,,,,,,,,,,,,,,,,,,,,,,,,ismo,001,2021-12-06_04h17.11,jm_natural_scene_simialrity_2-12-2021,2021.2.3,MacIntel,62.5,60ff2b881b69fe44acefde87,61ad71e11ddd29ccf7a27d5b,61ad725385d624d5cc162d57,,,-71,-29,1,0,0,response5disk,0.799,-4,9,1,0,0,rectangle,-4,9,1,0,0,-3,-2,"[110,64,67,109,19,144,36,78,107,67]",-4,9,1,0,0,0,26,26,48,1,Turquiose,Turquiose.jpg,Red,Red.jpg,,
,,,,,,,,,,,,,,,,,,-1,,,,,,,,,,,,,,,,,,,,,,,,,,,,,,ismo,001,2021-12-06_04h17.11,jm_natural_scene_simialrity_2-12-2021,2021.2.3,MacIntel,62.5,60ff2b881b69fe44acefde87,61ad71e11ddd29ccf7a27d5b,61ad725385d624d5cc162d57,,,-43,-90,1,0,0,response5disk,1.117,-17,5,1,0,0,rectangle,-17,5,1,0,0,-3,1,"[110,64,67,109,19,144,36,78,107,67]",-17,5,1,0,0,0,27,27,29,1,DarkGreen,DarkGreen.jpg,Purple,Purple.jpg,,
,,,,,,,,,,,,,,,,,,-3,,,,,,,,,,,,,,,,,,,,,,,,,,,,,,ismo,001,2021-12-06_04h17.11,jm_natural_scene_simialrity_2-12-2021,2021.2.3,MacIntel,62.5,60ff2b881b69fe44acefde87,61ad71e11ddd29ccf7a27d5b,61ad725385d624d5cc162d57,,,-88,47,1,0,0,response7disk,3.883,-13,13,1,0,0,rectangle,-13,13,1,0,0,-3,3,"[110,64,67,109,19,144,36,78,107,67]",-13,13,1,0,0,0,28,28,31,1,Turquiose,Turquiose.jpg,LightBlue,LightBlue.jpg,,
,,,,,,,,,,,,,,,,,,-4,,,,,,,,,,,,,,,,,,,,,,,,,,,,,,ismo,001,2021-12-06_04h17.11,jm_natural_scene_simialrity_2-12-2021,2021.2.3,MacIntel,62.5,60ff2b881b69fe44acefde87,61ad71e11ddd29ccf7a27d5b,61ad725385d624d5cc162d57,,,-51,73,1,0,0,response7disk,1.298,-21,8,1,0,0,rectangle,-21,8,1,0,0,-3,1,"[110,64,67,109,19,144,36,78,107,67]",-21,8,1,0,0,0,29,29,40,1,DarkBlue,DarkBlue.jpg,Pink,Pink.jpg,,
,,,,,,,,,,,,,,,,,,-3,,,,,,,,,,,,,,,,,,,,,,,,,,,,,,ismo,001,2021-12-06_04h17.11,jm_natural_scene_simialrity_2-12-2021,2021.2.3,MacIntel,62.5,60ff2b881b69fe44acefde87,61ad71e11ddd29ccf7a27d5b,61ad725385d624d5cc162d57,,,-73,41,1,0,0,response7disk,0.883,-23,18,1,0,0,rectangle,-23,18,1,0,0,-3,-2,"[110,64,67,109,19,144,36,78,107,67]",-23,18,1,0,0,0,30,30,79,1,Purple,Purple.jpg,DarkBlue,DarkBlue.jpg,,
,,,,,,,,,,,,,,,,,,-4,,,,,,,,,,,,,,,,,,,,,,,,,,,,,,ismo,001,2021-12-06_04h17.11,jm_natural_scene_simialrity_2-12-2021,2021.2.3,MacIntel,62.5,60ff2b881b69fe44acefde87,61ad71e11ddd29ccf7a27d5b,61ad725385d624d5cc162d57,,,-52,97,1,0,0,response7disk,1.034,-5,13,1,0,0,rectangle,-5,13,1,0,0,-3,-3,"[110,64,67,109,19,144,36,78,107,67]",-5,13,1,0,0,0,31,31,47,1,DarkGreen,DarkGreen.jpg,Red,Red.jpg,,
,,,,,,,,,,,,,,,,,,-2,,,,,,,,,,,,,,,,,,,,,,,,,,,,,,ismo,001,2021-12-06_04h17.11,jm_natural_scene_simialrity_2-12-2021,2021.2.3,MacIntel,62.5,60ff2b881b69fe44acefde87,61ad71e11ddd29ccf7a27d5b,61ad725385d624d5cc162d57,,,-61,-48,1,0,0,response5disk,0.733,21,-4,1,0,0,rectangle,21,-4,1,0,0,-3,-1,"[110,64,67,109,19,144,36,78,107,67]",21,-4,1,0,0,0,32,32,3,1,Red,Red.jpg,DarkGreen,DarkGreen.jpg,,
,,,,,,,,,,,,,,,,,,-4,,,,,,,,,,,,,,,,,,,,,,,,,,,,,,ismo,001,2021-12-06_04h17.11,jm_natural_scene_simialrity_2-12-2021,2021.2.3,MacIntel,62.5,60ff2b881b69fe44acefde87,61ad71e11ddd29ccf7a27d5b,61ad725385d624d5cc162d57,,,-41,79,1,0,0,response7disk,0.683,-8,-4,1,0,0,rectangle,-8,-4,1,0,0,-3,-2,"[110,64,67,109,19,144,36,78,107,67]",-8,-4,1,0,0,0,33,33,64,1,Pink,Pink.jpg,LightGreen,LightGreen.jpg,,
,,,,,,,,,,,,,,,,,,4,,,,,,,,,,,,,,,,,,,,,,,,,,,,,,ismo,001,2021-12-06_04h17.11,jm_natural_scene_simialrity_2-12-2021,2021.2.3,MacIntel,62.5,60ff2b881b69fe44acefde87,61ad71e11ddd29ccf7a27d5b,61ad725385d624d5cc162d57,,,47,87,1,0,0,response1disk,0.552,-4,10,1,0,0,rectangle,-4,10,1,0,0,-3,2,"[110,64,67,109,19,144,36,78,107,67]",-4,10,1,0,0,0,34,34,44,1,Purple,Purple.jpg,Purple,Purple.jpg,,
,,,,,,,,,,,,,,,,,,-3,,,,,,,,,,,,,,,,,,,,,,,,,,,,,,ismo,001,2021-12-06_04h17.11,jm_natural_scene_simialrity_2-12-2021,2021.2.3,MacIntel,62.5,60ff2b881b69fe44acefde87,61ad71e11ddd29ccf7a27d5b,61ad725385d624d5cc162d57,,,-106,44,1,0,0,response7disk,1.051,-1,17,1,0,0,rectangle,52,-100,1,0,0,1,1,"[110,64,67,109,19,144,36,78,107,67]",-2,1,1,0,0,0,35,35,2,1,Red,Red.jpg,LightGreen,LightGreen.jpg,response3disk_3,rectangle
,,,,,,,,,,,,,,,,,,-3,,,,,,,,,,,,,,,,,,,,,,,,,,,,,,ismo,001,2021-12-06_04h17.11,jm_natural_scene_simialrity_2-12-2021,2021.2.3,MacIntel,62.5,60ff2b881b69fe44acefde87,61ad71e11ddd29ccf7a27d5b,61ad725385d624d5cc162d57,,,-83,40,1,0,0,response7disk,0.917,-12,11,1,0,0,rectangle,-12,11,1,0,0,1,-1,"[110,64,67,109,19,144,36,78,107,67]",-12,11,1,0,0,0,36,36,56,1,LightBlue,LightBlue.jpg,Yellow,Yellow.jpg,,
,,,,,,,,,,,,,,,,,,-3,,,,,,,,,,,,,,,,,,,,,,,,,,,,,,ismo,001,2021-12-06_04h17.11,jm_natural_scene_simialrity_2-12-2021,2021.2.3,MacIntel,62.5,60ff2b881b69fe44acefde87,61ad71e11ddd29ccf7a27d5b,61ad725385d624d5cc162d57,,,-71,32,1,0,0,response7disk,1.116,-11,-10,1,0,0,rectangle,-11,-10,1,0,0,1,-3,"[110,64,67,109,19,144,36,78,107,67]",-11,-10,1,0,0,0,37,37,37,1,LightBlue,LightBlue.jpg,Pink,Pink.jpg,,
,,,,,,,,,,,,,,,,,,-2,,,,,,,,,,,,,,,,,,,,,,,,,,,,,,ismo,001,2021-12-06_04h17.11,jm_natural_scene_simialrity_2-12-2021,2021.2.3,MacIntel,62.5,60ff2b881b69fe44acefde87,61ad71e11ddd29ccf7a27d5b,61ad725385d624d5cc162d57,,,-85,-52,1,0,0,response5disk,0.933,-12,-11,1,0,0,rectangle,-12,-11,1,0,0,1,-3,"[110,64,67,109,19,144,36,78,107,67]",-12,-11,1,0,0,0,38,38,19,1,LightGreen,LightGreen.jpg,Turquiose,Turquiose.jpg,,
,,,,,,,,,,,,,,,,,,1,,,,,,,,,,,,,,,,,,,,,,,,,,,,,,ismo,001,2021-12-06_04h17.11,jm_natural_scene_simialrity_2-12-2021,2021.2.3,MacIntel,62.5,60ff2b881b69fe44acefde87,61ad71e11ddd29ccf7a27d5b,61ad725385d624d5cc162d57,,,38,-66,1,0,0,response3disk,1.5,5,20,1,0,0,rectangle,5,20,1,0,0,1,-2,"[110,64,67,109,19,144,36,78,107,67]",5,20,1,0,0,0,39,39,58,1,Pink,Pink.jpg,Yellow,Yellow.jpg,,
,,,,,,,,,,,,,,,,,,-4,,,,,,,,,,,,,,,,,,,,,,,,,,,,,,ismo,001,2021-12-06_04h17.11,jm_natural_scene_simialrity_2-12-2021,2021.2.3,MacIntel,62.5,60ff2b881b69fe44acefde87,61ad71e11ddd29ccf7a27d5b,61ad725385d624d5cc162d57,,,-33,132,1,0,0,response7disk,1.417,-4,-3,1,0,0,rectangle,-4,-3,1,0,0,1,-3,"[110,64,67,109,19,144,36,78,107,67]",-4,-3,1,0,0,0,40,40,11,1,Yellow,Yellow.jpg,DarkGreen,DarkGreen.jpg,,
,,,,,,,,,,,,,,,,,,-3,,,,,,,,,,,,,,,,,,,,,,,,,,,,,,ismo,001,2021-12-06_04h17.11,jm_natural_scene_simialrity_2-12-2021,2021.2.3,MacIntel,62.5,60ff2b881b69fe44acefde87,61ad71e11ddd29ccf7a27d5b,61ad725385d624d5cc162d57,,,-92,32,1,0,0,response7disk,0.699,-5,14,1,0,0,rectangle,-5,14,1,0,0,1,-3,"[110,64,67,109,19,144,36,78,107,67]",-5,14,1,0,0,0,41,41,57,1,DarkBlue,DarkBlue.jpg,Yellow,Yellow.jpg,,
,,,,,,,,,,,,,,,,,,-4,,,,,,,,,,,,,,,,,,,,,,,,,,,,,,ismo,001,2021-12-06_04h17.11,jm_natural_scene_simialrity_2-12-2021,2021.2.3,MacIntel,62.5,60ff2b881b69fe44acefde87,61ad71e11ddd29ccf7a27d5b,61ad725385d624d5cc162d57,,,-48,72,1,0,0,response7disk,0.834,10,-12,1,0,0,rectangle,10,-12,1,0,0,1,2,"[110,64,67,109,19,144,36,78,107,67]",10,-12,1,0,0,0,42,42,63,1,DarkBlue,DarkBlue.jpg,LightGreen,LightGreen.jpg,,
,,,,,,,,,,,,,,,,,,2,,,,,,,,,,,,,,,,,,,,,,,,,,,,,,ismo,001,2021-12-06_04h17.11,jm_natural_scene_simialrity_2-12-2021,2021.2.3,MacIntel,62.5,60ff2b881b69fe44acefde87,61ad71e11ddd29ccf7a27d5b,61ad725385d624d5cc162d57,,,81,-52,1,0,0,response3disk,1.716,6,4,1,0,0,rectangle,6,4,1,0,0,1,1,"[110,64,67,109,19,144,36,78,107,67]",6,4,1,0,0,0,43,43,36,1,LightBlue,LightBlue.jpg,DarkBlue,DarkBlue.jpg,,
,,,,,,,,,,,,,,,,,,2,,,,,,,,,,,,,,,,,,,,,,,,,,,,,,ismo,001,2021-12-06_04h17.11,jm_natural_scene_simialrity_2-12-2021,2021.2.3,MacIntel,62.5,60ff2b881b69fe44acefde87,61ad71e11ddd29ccf7a27d5b,61ad725385d624d5cc162d57,,,94,-31,1,0,0,response3disk,1.151,9,9,1,0,0,rectangle,9,9,1,0,0,1,-2,"[110,64,67,109,19,144,36,78,107,67]",9,9,1,0,0,0,44,44,60,1,DarkGreen,DarkGreen.jpg,LightGreen,LightGreen.jpg,,
,,,,,,,,,,,,,,,,,,-3,,,,,,,,,,,,,,,,,,,,,,,,,,,,,,ismo,001,2021-12-06_04h17.11,jm_natural_scene_simialrity_2-12-2021,2021.2.3,MacIntel,62.5,60ff2b881b69fe44acefde87,61ad71e11ddd29ccf7a27d5b,61ad725385d624d5cc162d57,,,-90,49,1,0,0,response7disk,1.316,12,11,1,0,0,rectangle,12,11,1,0,0,1,-1,"[110,64,67,109,19,144,36,78,107,67]",12,11,1,0,0,0,45,45,27,1,DarkGreen,DarkGreen.jpg,DarkBlue,DarkBlue.jpg,,
,,,,,,,,,,,,,,,,,,-4,,,,,,,,,,,,,,,,,,,,,,,,,,,,,,ismo,001,2021-12-06_04h17.11,jm_natural_scene_simialrity_2-12-2021,2021.2.3,MacIntel,62.5,60ff2b881b69fe44acefde87,61ad71e11ddd29ccf7a27d5b,61ad725385d624d5cc162d57,,,-39,75,1,0,0,response7disk,0.767,-14,-12,1,0,0,rectangle,-14,-12,1,0,0,1,1,"[110,64,67,109,19,144,36,78,107,67]",-14,-12,1,0,0,0,46,46,59,1,Purple,Purple.jpg,Yellow,Yellow.jpg,,
,,,,,,,,,,,,,,,,,,-4,,,,,,,,,,,,,,,,,,,,,,,,,,,,,,ismo,001,2021-12-06_04h17.11,jm_natural_scene_simialrity_2-12-2021,2021.2.3,MacIntel,62.5,60ff2b881b69fe44acefde87,61ad71e11ddd29ccf7a27d5b,61ad725385d624d5cc162d57,,,-45,81,1,0,0,response7disk,0.683,-16,9,1,0,0,rectangle,-16,9,1,0,0,1,-3,"[110,64,67,109,19,144,36,78,107,67]",-16,9,1,0,0,0,47,47,73,1,Pink,Pink.jpg,Turquiose,Turquiose.jpg,,
,,,,,,,,,,,,,,,,,,4,,,,,,,,,,,,,,,,,,,,,,,,,,,,,,ismo,001,2021-12-06_04h17.11,jm_natural_scene_simialrity_2-12-2021,2021.2.3,MacIntel,62.5,60ff2b881b69fe44acefde87,61ad71e11ddd29ccf7a27d5b,61ad725385d624d5cc162d57,,,28,101,1,0,0,response1disk,0.699,16,3,1,0,0,rectangle,16,3,1,0,0,1,2,"[110,64,67,109,19,144,36,78,107,67]",16,3,1,0,0,0,48,48,24,1,DarkGreen,DarkGreen.jpg,DarkGreen,DarkGreen.jpg,,
,,,,,,,,,,,,,,,,,,2,,,,,,,,,,,,,,,,,,,,,,,,,,,,,,ismo,001,2021-12-06_04h17.11,jm_natural_scene_simialrity_2-12-2021,2021.2.3,MacIntel,62.5,60ff2b881b69fe44acefde87,61ad71e11ddd29ccf7a27d5b,61ad725385d624d5cc162d57,,,79,-59,1,0,0,response3disk,1.699,-6,21,1,0,0,rectangle,-6,21,1,0,0,1,-4,"[110,64,67,109,19,144,36,78,107,67]",-6,21,1,0,0,0,49,49,68,1,DarkBlue,DarkBlue.jpg,DarkGreen,DarkGreen.jpg,,
,,,,,,,,,,,,,,,,,,2,,,,,,,,,,,,,,,,,,,,,,,,,,,,,,ismo,001,2021-12-06_04h17.11,jm_natural_scene_simialrity_2-12-2021,2021.2.3,MacIntel,62.5,60ff2b881b69fe44acefde87,61ad71e11ddd29ccf7a27d5b,61ad725385d624d5cc162d57,,,74,-65,1,0,0,response3disk,1.233,-3,-4,1,0,0,rectangle,-3,-4,1,0,0,1,3,"[110,64,67,109,19,144,36,78,107,67]",-3,-4,1,0,0,0,50,50,51,1,Pink,Pink.jpg,Red,Red.jpg,,
,,,,,,,,,,,,,,,,,,4,,,,,,,,,,,,,,,,,,,,,,,,,,,,,,ismo,001,2021-12-06_04h17.11,jm_natural_scene_simialrity_2-12-2021,2021.2.3,MacIntel,62.5,60ff2b881b69fe44acefde87,61ad71e11ddd29ccf7a27d5b,61ad725385d624d5cc162d57,,,26,113,1,0,0,response1disk,0.633,12,14,1,0,0,rectangle,12,14,1,0,0,1,-2,"[110,64,67,109,19,144,36,78,107,67]",12,14,1,0,0,0,51,51,30,1,Turquiose,Turquiose.jpg,Turquiose,Turquiose.jpg,,
,,,,,,,,,,,,,,,,,,2,,,,,,,,,,,,,,,,,,,,,,,,,,,,,,ismo,001,2021-12-06_04h17.11,jm_natural_scene_simialrity_2-12-2021,2021.2.3,MacIntel,62.5,60ff2b881b69fe44acefde87,61ad71e11ddd29ccf7a27d5b,61ad725385d624d5cc162d57,,,98,-42,1,0,0,response3disk,0.983,-13,6,1,0,0,rectangle,-13,6,1,0,0,1,-4,"[110,64,67,109,19,144,36,78,107,67]",-13,6,1,0,0,0,52,52,21,1,LightGreen,LightGreen.jpg,DarkBlue,DarkBlue.jpg,,
,,,,,,,,,,,,,,,,,,-4,,,,,,,,,,,,,,,,,,,,,,,,,,,,,,ismo,001,2021-12-06_04h17.11,jm_natural_scene_simialrity_2-12-2021,2021.2.3,MacIntel,62.5,60ff2b881b69fe44acefde87,61ad71e11ddd29ccf7a27d5b,61ad725385d624d5cc162d57,,,-55,96,1,0,0,response7disk,1.167,-16,7,1,0,0,rectangle,-16,7,1,0,0,1,-2,"[110,64,67,109,19,144,36,78,107,67]",-16,7,1,0,0,0,53,53,16,1,Yellow,Yellow.jpg,Purple,Purple.jpg,,
,,,,,,,,,,,,,,,,,,-3,,,,,,,,,,,,,,,,,,,,,,,,,,,,,,ismo,001,2021-12-06_04h17.11,jm_natural_scene_simialrity_2-12-2021,2021.2.3,MacIntel,62.5,60ff2b881b69fe44acefde87,61ad71e11ddd29ccf7a27d5b,61ad725385d624d5cc162d57,,,-76,33,1,0,0,response7disk,1.233,-16,6,1,0,0,rectangle,-16,6,1,0,0,1,-1,"[110,64,67,109,19,144,36,78,107,67]",-16,6,1,0,0,0,54,54,71,1,LightBlue,LightBlue.jpg,Turquiose,Turquiose.jpg,,
,,,,,,,,,,,,,,,,,,3,,,,,,,,,,,,,,,,,,,,,,,,,,,,,,ismo,001,2021-12-06_04h17.11,jm_natural_scene_simialrity_2-12-2021,2021.2.3,MacIntel,62.5,60ff2b881b69fe44acefde87,61ad71e11ddd29ccf7a27d5b,61ad725385d624d5cc162d57,,,83,22,1,0,0,response1disk,1.249,2,-11,1,0,0,rectangle,2,-11,1,0,0,1,-1,"[110,64,67,109,19,144,36,78,107,67]",2,-11,1,0,0,0,55,55,43,1,Pink,Pink.jpg,Purple,Purple.jpg,,
,,,,,,,,,,,,,,,,,,-4,,,,,,,,,,,,,,,,,,,,,,,,,,,,,,ismo,001,2021-12-06_04h17.11,jm_natural_scene_simialrity_2-12-2021,2021.2.3,MacIntel,62.5,60ff2b881b69fe44acefde87,61ad71e11ddd29ccf7a27d5b,61ad725385d624d5cc162d57,,,-38,126,1,0,0,response7disk,0.983,-11,1,1,0,0,rectangle,-11,1,1,0,0,1,1,"[110,64,67,109,19,144,36,78,107,67]",-11,1,1,0,0,0,56,56,69,1,Pink,Pink.jpg,DarkGreen,DarkGreen.jpg,,
,,,,,,,,,,,,,,,,,,2,,,,,,,,,,,,,,,,,,,,,,,,,,,,,,ismo,001,2021-12-06_04h17.11,jm_natural_scene_simialrity_2-12-2021,2021.2.3,MacIntel,62.5,60ff2b881b69fe44acefde87,61ad71e11ddd29ccf7a27d5b,61ad725385d624d5cc162d57,,,55,-47,1,0,0,response3disk,0.901,-2,8,1,0,0,rectangle,-2,8,1,0,0,1,3,"[110,64,67,109,19,144,36,78,107,67]",-2,8,1,0,0,0,57,57,75,1,DarkBlue,DarkBlue.jpg,LightBlue,LightBlue.jpg,,
,,,,,,,,,,,,,,,,,,2,,,,,,,,,,,,,,,,,,,,,,,,,,,,,,ismo,001,2021-12-06_04h17.11,jm_natural_scene_simialrity_2-12-2021,2021.2.3,MacIntel,62.5,60ff2b881b69fe44acefde87,61ad71e11ddd29ccf7a27d5b,61ad725385d624d5cc162d57,,,96,-42,1,0,0,response3disk,1.001,-25,14,1,0,0,rectangle,-25,14,1,0,0,1,-2,"[110,64,67,109,19,144,36,78,107,67]",-25,14,1,0,0,0,58,58,18,1,LightGreen,LightGreen.jpg,DarkGreen,DarkGreen.jpg,,
,,,,,,,,,,,,,,,,,,-4,,,,,,,,,,,,,,,,,,,,,,,,,,,,,,ismo,001,2021-12-06_04h17.11,jm_natural_scene_simialrity_2-12-2021,2021.2.3,MacIntel,62.5,60ff2b881b69fe44acefde87,61ad71e11ddd29ccf7a27d5b,61ad725385d624d5cc162d57,,,-51,85,1,0,0,response7disk,0.967,-5,16,1,0,0,rectangle,-5,16,1,0,0,1,1,"[110,64,67,109,19,144,36,78,107,67]",-5,16,1,0,0,0,59,59,50,1,DarkBlue,DarkBlue.jpg,Red,Red.jpg,,
,,,,,,,,,,,,,,,,,,-4,,,,,,,,,,,,,,,,,,,,,,,,,,,,,,ismo,001,2021-12-06_04h17.11,jm_natural_scene_simialrity_2-12-2021,2021.2.3,MacIntel,62.5,60ff2b881b69fe44acefde87,61ad71e11ddd29ccf7a27d5b,61ad725385d624d5cc162d57,,,-64,106,1,0,0,response7disk,1.4,-19,12,1,0,0,rectangle,-19,12,1,0,0,1,1,"[110,64,67,109,19,144,36,78,107,67]",-19,12,1,0,0,0,60,60,5,1,Red,Red.jpg,LightBlue,LightBlue.jpg,,
,,,,,,,,,,,,,,,,,,-4,,,,,,,,,,,,,,,,,,,,,,,,,,,,,,ismo,001,2021-12-06_04h17.11,jm_natural_scene_simialrity_2-12-2021,2021.2.3,MacIntel,62.5,60ff2b881b69fe44acefde87,61ad71e11ddd29ccf7a27d5b,61ad725385d624d5cc162d57,,,-42,86,1,0,0,response7disk,0.634,-10,12,1,0,0,rectangle,-10,12,1,0,0,1,-2,"[110,64,67,109,19,144,36,78,107,67]",-10,12,1,0,0,0,61,61,33,1,Turquiose,Turquiose.jpg,Pink,Pink.jpg,,
,,,,,,,,,,,,,,,,,,-4,,,,,,,,,,,,,,,,,,,,,,,,,,,,,,ismo,001,2021-12-06_04h17.11,jm_natural_scene_simialrity_2-12-2021,2021.2.3,MacIntel,62.5,60ff2b881b69fe44acefde87,61ad71e11ddd29ccf7a27d5b,61ad725385d624d5cc162d57,,,-39,45,1,0,0,response7disk,3.5,-15,-23,1,0,0,rectangle,-15,-23,1,0,0,1,1,"[110,64,67,109,19,144,36,78,107,67]",-15,-23,1,0,0,0,62,62,80,1,Purple,Purple.jpg,Pink,Pink.jpg,,
,,,,,,,,,,,,,,,,,,-4,,,,,,,,,,,,,,,,,,,,,,,,,,,,,,ismo,001,2021-12-06_04h17.11,jm_natural_scene_simialrity_2-12-2021,2021.2.3,MacIntel,62.5,60ff2b881b69fe44acefde87,61ad71e11ddd29ccf7a27d5b,61ad725385d624d5cc162d57,,,-45,77,1,0,0,response7disk,0.632,-17,2,1,0,0,rectangle,-80,43,1,0,0,-3,-3,"[110,64,67,109,19,144,36,78,107,67]",3,-15,1,0,0,0,63,63,14,1,Yellow,Yellow.jpg,DarkBlue,DarkBlue.jpg,response7disk_3,rectangle
,,,,,,,,,,,,,,,,,,-1,,,,,,,,,,,,,,,,,,,,,,,,,,,,,,ismo,001,2021-12-06_04h17.11,jm_natural_scene_simialrity_2-12-2021,2021.2.3,MacIntel,62.5,60ff2b881b69fe44acefde87,61ad71e11ddd29ccf7a27d5b,61ad725385d624d5cc162d57,,,-39,-89,1,0,0,response5disk,2.349,-9,-3,1,0,0,rectangle,-9,-3,1,0,0,-3,-3,"[110,64,67,109,19,144,36,78,107,67]",-9,-3,1,0,0,0,64,64,8,1,Red,Red.jpg,Purple,Purple.jpg,,
,,,,,,,,,,,,,,,,,,-3,,,,,,,,,,,,,,,,,,,,,,,,,,,,,,ismo,001,2021-12-06_04h17.11,jm_natural_scene_simialrity_2-12-2021,2021.2.3,MacIntel,62.5,60ff2b881b69fe44acefde87,61ad71e11ddd29ccf7a27d5b,61ad725385d624d5cc162d57,,,-89,68,1,0,0,response7disk,1.901,3,-9,1,0,0,rectangle,3,-9,1,0,0,-3,-1,"[110,64,67,109,19,144,36,78,107,67]",3,-9,1,0,0,0,65,65,62,1,LightBlue,LightBlue.jpg,LightGreen,LightGreen.jpg,,
,,,,,,,,,,,,,,,,,,-4,,,,,,,,,,,,,,,,,,,,,,,,,,,,,,ismo,001,2021-12-06_04h17.11,jm_natural_scene_simialrity_2-12-2021,2021.2.3,MacIntel,62.5,60ff2b881b69fe44acefde87,61ad71e11ddd29ccf7a27d5b,61ad725385d624d5cc162d57,,,-48,97,1,0,0,response7disk,0.683,-1,-5,1,0,0,rectangle,-85,43,1,0,0,-3,-3,"[110,64,67,109,19,144,36,78,107,67]",1,-13,1,0,0,0,66,66,54,1,DarkGreen,DarkGreen.jpg,Yellow,Yellow.jpg,response7disk_3,rectangle
,,,,,,,,,,,,,,,,,,-4,,,,,,,,,,,,,,,,,,,,,,,,,,,,,,ismo,001,2021-12-06_04h17.11,jm_natural_scene_simialrity_2-12-2021,2021.2.3,MacIntel,62.5,60ff2b881b69fe44acefde87,61ad71e11ddd29ccf7a27d5b,61ad725385d624d5cc162d57,,,-38,67,1,0,0,response7disk,1.17,-1,3,1,0,0,rectangle,-1,3,1,0,0,-3,-2,"[110,64,67,109,19,144,36,78,107,67]",-1,3,1,0,0,0,67,67,76,1,Pink,Pink.jpg,LightBlue,LightBlue.jpg,,
,,,,,,,,,,,,,,,,,,-3,,,,,,,,,,,,,,,,,,,,,,,,,,,,,,ismo,001,2021-12-06_04h17.11,jm_natural_scene_simialrity_2-12-2021,2021.2.3,MacIntel,62.5,60ff2b881b69fe44acefde87,61ad71e11ddd29ccf7a27d5b,61ad725385d624d5cc162d57,,,-89,33,1,0,0,response7disk,0.85,0,-22,1,0,0,rectangle,0,-22,1,0,0,-3,3,"[110,64,67,109,19,144,36,78,107,67]",0,-22,1,0,0,0,68,68,20,1,LightGreen,LightGreen.jpg,LightBlue,LightBlue.jpg,,
,,,,,,,,,,,,,,,,,,-4,,,,,,,,,,,,,,,,,,,,,,,,,,,,,,ismo,001,2021-12-06_04h17.11,jm_natural_scene_simialrity_2-12-2021,2021.2.3,MacIntel,62.5,60ff2b881b69fe44acefde87,61ad71e11ddd29ccf7a27d5b,61ad725385d624d5cc162d57,,,-48,94,1,0,0,response7disk,0.967,4,11,1,0,0,rectangle,4,11,1,0,0,-3,2,"[110,64,67,109,19,144,36,78,107,67]",4,11,1,0,0,0,69,69,70,1,Purple,Purple.jpg,DarkGreen,DarkGreen.jpg,,
,,,,,,,,,,,,,,,,,,-2,,,,,,,,,,,,,,,,,,,,,,,,,,,,,,ismo,001,2021-12-06_04h17.11,jm_natural_scene_simialrity_2-12-2021,2021.2.3,MacIntel,62.5,60ff2b881b69fe44acefde87,61ad71e11ddd29ccf7a27d5b,61ad725385d624d5cc162d57,,,-92,-33,1,0,0,response5disk,3.349,2,-16,1,0,0,rectangle,2,-16,1,0,0,-3,2,"[110,64,67,109,19,144,36,78,107,67]",2,-16,1,0,0,0,70,70,49,1,LightBlue,LightBlue.jpg,Red,Red.jpg,,
,,,,,,,,,,,,,,,,,,-4,,,,,,,,,,,,,,,,,,,,,,,,,,,,,,ismo,001,2021-12-06_04h17.11,jm_natural_scene_simialrity_2-12-2021,2021.2.3,MacIntel,62.5,60ff2b881b69fe44acefde87,61ad71e11ddd29ccf7a27d5b,61ad725385d624d5cc162d57,,,-30,70,1,0,0,response7disk,0.684,-12,3,1,0,0,rectangle,-12,3,1,0,0,-3,3,"[110,64,67,109,19,144,36,78,107,67]",-12,3,1,0,0,0,71,71,53,1,LightGreen,LightGreen.jpg,Yellow,Yellow.jpg,,
,,,,,,,,,,,,,,,,,,2,,,,,,,,,,,,,,,,,,,,,,,,,,,,,,ismo,001,2021-12-06_04h17.11,jm_natural_scene_simialrity_2-12-2021,2021.2.3,MacIntel,62.5,60ff2b881b69fe44acefde87,61ad71e11ddd29ccf7a27d5b,61ad725385d624d5cc162d57,,,90,-44,1,0,0,response3disk,1.366,6,6,1,0,0,rectangle,6,6,1,0,0,-3,-4,"[110,64,67,109,19,144,36,78,107,67]",6,6,1,0,0,0,72,72,32,1,Turquiose,Turquiose.jpg,DarkBlue,DarkBlue.jpg,,
,,,,,,,,,,,,,,,,,,3,,,,,,,,,,,,,,,,,,,,,,,,,,,,,,ismo,001,2021-12-06_04h17.11,jm_natural_scene_simialrity_2-12-2021,2021.2.3,MacIntel,62.5,60ff2b881b69fe44acefde87,61ad71e11ddd29ccf7a27d5b,61ad725385d624d5cc162d57,,,100,36,1,0,0,response1disk,0.7,14,19,1,0,0,rectangle,14,19,1,0,0,-3,-4,"[110,64,67,109,19,144,36,78,107,67]",14,19,1,0,0,0,73,73,65,1,Purple,Purple.jpg,LightGreen,LightGreen.jpg,,
,,,,,,,,,,,,,,,,,,-4,,,,,,,,,,,,,,,,,,,,,,,,,,,,,,ismo,001,2021-12-06_04h17.11,jm_natural_scene_simialrity_2-12-2021,2021.2.3,MacIntel,62.5,60ff2b881b69fe44acefde87,61ad71e11ddd29ccf7a27d5b,61ad725385d624d5cc162d57,,,-35,62,1,0,0,response7disk,0.633,-6,-6,1,0,0,rectangle,-6,-6,1,0,0,-3,-3,"[110,64,67,109,19,144,36,78,107,67]",-6,-6,1,0,0,0,74,74,55,1,Turquiose,Turquiose.jpg,Yellow,Yellow.jpg,,
,,,,,,,,,,,,,,,,,,-4,,,,,,,,,,,,,,,,,,,,,,,,,,,,,,ismo,001,2021-12-06_04h17.11,jm_natural_scene_simialrity_2-12-2021,2021.2.3,MacIntel,62.5,60ff2b881b69fe44acefde87,61ad71e11ddd29ccf7a27d5b,61ad725385d624d5cc162d57,,,-34,87,1,0,0,response7disk,0.649,-19,8,1,0,0,rectangle,-19,8,1,0,0,-3,-3,"[110,64,67,109,19,144,36,78,107,67]",-19,8,1,0,0,0,75,75,6,1,Red,Red.jpg,DarkBlue,DarkBlue.jpg,,
,,,,,,,,,,,,,,,,,,-4,,,,,,,,,,,,,,,,,,,,,,,,,,,,,,ismo,001,2021-12-06_04h17.11,jm_natural_scene_simialrity_2-12-2021,2021.2.3,MacIntel,62.5,60ff2b881b69fe44acefde87,61ad71e11ddd29ccf7a27d5b,61ad725385d624d5cc162d57,,,-41,76,1,0,0,response7disk,1.25,-11,11,1,0,0,rectangle,-11,11,1,0,0,-3,-2,"[110,64,67,109,19,144,36,78,107,67]",-11,11,1,0,0,0,76,76,12,1,Yellow,Yellow.jpg,Turquiose,Turquiose.jpg,,
,,,,,,,,,,,,,,,,,,4,,,,,,,,,,,,,,,,,,,,,,,,,,,,,,ismo,001,2021-12-06_04h17.11,jm_natural_scene_simialrity_2-12-2021,2021.2.3,MacIntel,62.5,60ff2b881b69fe44acefde87,61ad71e11ddd29ccf7a27d5b,61ad725385d624d5cc162d57,,,43,106,1,0,0,response1disk,0.635,0,10,1,0,0,rectangle,98,27,1,0,0,3,3,"[110,64,67,109,19,144,36,78,107,67]",-11,3,1,0,0,0,77,77,0,1,Red,Red.jpg,Red,Red.jpg,response1disk_3,rectangle
,,,,,,,,,,,,,,,,,,2,,,,,,,,,,,,,,,,,,,,,,,,,,,,,,ismo,001,2021-12-06_04h17.11,jm_natural_scene_simialrity_2-12-2021,2021.2.3,MacIntel,62.5,60ff2b881b69fe44acefde87,61ad71e11ddd29ccf7a27d5b,61ad725385d624d5cc162d57,,,74,-32,1,0,0,response3disk,0.902,2,5,1,0,0,rectangle,2,5,1,0,0,3,-4,"[110,64,67,109,19,144,36,78,107,67]",2,5,1,0,0,0,78,78,7,1,Red,Red.jpg,Pink,Pink.jpg,,
,,,,,,,,,,,,,,,,,,1,,,,,,,,,,,,,,,,,,,,,,,,,,,,,,ismo,001,2021-12-06_04h17.11,jm_natural_scene_simialrity_2-12-2021,2021.2.3,MacIntel,62.5,60ff2b881b69fe44acefde87,61ad71e11ddd29ccf7a27d5b,61ad725385d624d5cc162d57,,,45,-72,1,0,0,response3disk,0.882,-20,8,1,0,0,rectangle,-20,8,1,0,0,3,-2,"[110,64,67,109,19,144,36,78,107,67]",-20,8,1,0,0,0,79,79,52,1,Purple,Purple.jpg,Red,Red.jpg,,
,,,,,,,,,,,,,,,,,,1,,,,,,,,,,,,,,,,,,,,,,,,,,,,,,ismo,001,2021-12-06_04h17.11,jm_natural_scene_simialrity_2-12-2021,2021.2.3,MacIntel,62.5,60ff2b881b69fe44acefde87,61ad71e11ddd29ccf7a27d5b,61ad725385d624d5cc162d57,,,66,-95,1,0,0,response3disk,2.333,-19,3,1,0,0,rectangle,-19,3,1,0,0,3,-1,"[110,64,67,109,19,144,36,78,107,67]",-19,3,1,0,0,0,80,80,74,1,Purple,Purple.jpg,Turquiose,Turquiose.jpg,,
,,,,,,,,,,,,,,,,,,-4,,,,,,,,,,,,,,,,,,,,,,,,,,,,,,ismo,001,2021-12-06_04h17.11,jm_natural_scene_simialrity_2-12-2021,2021.2.3,MacIntel,62.5,60ff2b881b69fe44acefde87,61ad71e11ddd29ccf7a27d5b,61ad725385d624d5cc162d57,,,-65,104,1,0,0,response7disk,0.799,-2,1,1,0,0,rectangle,-2,1,1,0,0,3,2,"[110,64,67,109,19,144,36,78,107,67]",-2,1,1,0,0,1,0,81,48,1,Turquiose,Turquiose.jpg,Red,Red.jpg,,
,,,,,,,,,,,,,,,,,,2,,,,,,,,,,,,,,,,,,,,,,,,,,,,,,ismo,001,2021-12-06_04h17.11,jm_natural_scene_simialrity_2-12-2021,2021.2.3,MacIntel,62.5,60ff2b881b69fe44acefde87,61ad71e11ddd29ccf7a27d5b,61ad725385d624d5cc162d57,,,79,-17,1,0,0,response3disk,1.433,-20,21,1,0,0,rectangle,-20,21,1,0,0,-4,-2,"[110,64,67,109,19,144,36,78,107,67]",-20,21,1,0,0,1,1,82,51,1,Pink,Pink.jpg,Red,Red.jpg,,
,,,,,,,,,,,,,,,,,,-4,,,,,,,,,,,,,,,,,,,,,,,,,,,,,,ismo,001,2021-12-06_04h17.11,jm_natural_scene_simialrity_2-12-2021,2021.2.3,MacIntel,62.5,60ff2b881b69fe44acefde87,61ad71e11ddd29ccf7a27d5b,61ad725385d624d5cc162d57,,,-38,91,1,0,0,response7disk,0.7,-10,24,1,0,0,rectangle,-10,24,1,0,0,-4,3,"[110,64,67,109,19,144,36,78,107,67]",-10,24,1,0,0,1,2,83,28,1,DarkGreen,DarkGreen.jpg,Pink,Pink.jpg,,
,,,,,,,,,,,,,,,,,,-4,,,,,,,,,,,,,,,,,,,,,,,,,,,,,,ismo,001,2021-12-06_04h17.11,jm_natural_scene_simialrity_2-12-2021,2021.2.3,MacIntel,62.5,60ff2b881b69fe44acefde87,61ad71e11ddd29ccf7a27d5b,61ad725385d624d5cc162d57,,,-44,98,1,0,0,response7disk,0.717,-8,4,1,0,0,rectangle,-8,4,1,0,0,-4,-1,"[110,64,67,109,19,144,36,78,107,67]",-8,4,1,0,0,1,3,84,11,1,Yellow,Yellow.jpg,DarkGreen,DarkGreen.jpg,,
,,,,,,,,,,,,,,,,,,-4,,,,,,,,,,,,,,,,,,,,,,,,,,,,,,ismo,001,2021-12-06_04h17.11,jm_natural_scene_simialrity_2-12-2021,2021.2.3,MacIntel,62.5,60ff2b881b69fe44acefde87,61ad71e11ddd29ccf7a27d5b,61ad725385d624d5cc162d57,,,-39,88,1,0,0,response7disk,0.683,-8,1,1,0,0,rectangle,-8,1,1,0,0,-4,-4,"[110,64,67,109,19,144,36,78,107,67]",-8,1,1,0,0,1,4,85,64,1,Pink,Pink.jpg,LightGreen,LightGreen.jpg,,
,,,,,,,,,,,,,,,,,,4,,,,,,,,,,,,,,,,,,,,,,,,,,,,,,ismo,001,2021-12-06_04h17.11,jm_natural_scene_simialrity_2-12-2021,2021.2.3,MacIntel,62.5,60ff2b881b69fe44acefde87,61ad71e11ddd29ccf7a27d5b,61ad725385d624d5cc162d57,,,40,104,1,0,0,response1disk,0.784,16,3,1,0,0,rectangle,16,3,1,0,0,-4,2,"[110,64,67,109,19,144,36,78,107,67]",16,3,1,0,0,1,5,86,35,1,LightBlue,LightBlue.jpg,LightBlue,LightBlue.jpg,,
,,,,,,,,,,,,,,,,,,2,,,,,,,,,,,,,,,,,,,,,,,,,,,,,,ismo,001,2021-12-06_04h17.11,jm_natural_scene_simialrity_2-12-2021,2021.2.3,MacIntel,62.5,60ff2b881b69fe44acefde87,61ad71e11ddd29ccf7a27d5b,61ad725385d624d5cc162d57,,,74,-40,1,0,0,response3disk,1.199,-2,15,1,0,0,rectangle,-2,15,1,0,0,-4,-1,"[110,64,67,109,19,144,36,78,107,67]",-2,15,1,0,0,1,6,87,31,1,Turquiose,Turquiose.jpg,LightBlue,LightBlue.jpg,,
,,,,,,,,,,,,,,,,,,-4,,,,,,,,,,,,,,,,,,,,,,,,,,,,,,ismo,001,2021-12-06_04h17.11,jm_natural_scene_simialrity_2-12-2021,2021.2.3,MacIntel,62.5,60ff2b881b69fe44acefde87,61ad71e11ddd29ccf7a27d5b,61ad725385d624d5cc162d57,,,-46,111,1,0,0,response7disk,0.55,-15,11,1,0,0,rectangle,-15,11,1,0,0,-4,-4,"[110,64,67,109,19,144,36,78,107,67]",-15,11,1,0,0,1,7,88,21,1,LightGreen,LightGreen.jpg,DarkBlue,DarkBlue.jpg,,
,,,,,,,,,,,,,,,,,,-4,,,,,,,,,,,,,,,,,,,,,,,,,,,,,,ismo,001,2021-12-06_04h17.11,jm_natural_scene_simialrity_2-12-2021,2021.2.3,MacIntel,62.5,60ff2b881b69fe44acefde87,61ad71e11ddd29ccf7a27d5b,61ad725385d624d5cc162d57,,,-52,79,1,0,0,response7disk,0.8,-12,-12,1,0,0,rectangle,-12,-12,1,0,0,-4,2,"[110,64,67,109,19,144,36,78,107,67]",-12,-12,1,0,0,1,8,89,33,1,Turquiose,Turquiose.jpg,Pink,Pink.jpg,,
,,,,,,,,,,,,,,,,,,-4,,,,,,,,,,,,,,,,,,,,,,,,,,,,,,ismo,001,2021-12-06_04h17.11,jm_natural_scene_simialrity_2-12-2021,2021.2.3,MacIntel,62.5,60ff2b881b69fe44acefde87,61ad71e11ddd29ccf7a27d5b,61ad725385d624d5cc162d57,,,-55,98,1,0,0,response7disk,0.616,0,6,1,0,0,rectangle,0,6,1,0,0,-4,1,"[110,64,67,109,19,144,36,78,107,67]",0,6,1,0,0,1,9,90,5,1,Red,Red.jpg,LightBlue,LightBlue.jpg,,
,,,,,,,,,,,,,,,,,,-3,,,,,,,,,,,,,,,,,,,,,,,,,,,,,,ismo,001,2021-12-06_04h17.11,jm_natural_scene_simialrity_2-12-2021,2021.2.3,MacIntel,62.5,60ff2b881b69fe44acefde87,61ad71e11ddd29ccf7a27d5b,61ad725385d624d5cc162d57,,,-66,35,1,0,0,response7disk,0.867,-5,6,1,0,0,rectangle,-5,6,1,0,0,-4,-3,"[110,64,67,109,19,144,36,78,107,67]",-5,6,1,0,0,1,10,91,56,1,LightBlue,LightBlue.jpg,Yellow,Yellow.jpg,,
,,,,,,,,,,,,,,,,,,2,,,,,,,,,,,,,,,,,,,,,,,,,,,,,,ismo,001,2021-12-06_04h17.11,jm_natural_scene_simialrity_2-12-2021,2021.2.3,MacIntel,62.5,60ff2b881b69fe44acefde87,61ad71e11ddd29ccf7a27d5b,61ad725385d624d5cc162d57,,,62,-33,1,0,0,response3disk,1.534,-12,6,1,0,0,rectangle,-12,6,1,0,0,-4,3,"[110,64,67,109,19,144,36,78,107,67]",-12,6,1,0,0,1,11,92,76,1,Pink,Pink.jpg,LightBlue,LightBlue.jpg,,
,,,,,,,,,,,,,,,,,,4,,,,,,,,,,,,,,,,,,,,,,,,,,,,,,ismo,001,2021-12-06_04h17.11,jm_natural_scene_simialrity_2-12-2021,2021.2.3,MacIntel,62.5,60ff2b881b69fe44acefde87,61ad71e11ddd29ccf7a27d5b,61ad725385d624d5cc162d57,,,32,113,1,0,0,response1disk,0.616,-9,12,1,0,0,rectangle,-9,12,1,0,0,-4,-1,"[110,64,67,109,19,144,36,78,107,67]",-9,12,1,0,0,1,12,93,24,1,DarkGreen,DarkGreen.jpg,DarkGreen,DarkGreen.jpg,,
,,,,,,,,,,,,,,,,,,-1,,,,,,,,,,,,,,,,,,,,,,,,,,,,,,ismo,001,2021-12-06_04h17.11,jm_natural_scene_simialrity_2-12-2021,2021.2.3,MacIntel,62.5,60ff2b881b69fe44acefde87,61ad71e11ddd29ccf7a27d5b,61ad725385d624d5cc162d57,,,-44,-56,1,0,0,response5disk,1.617,-9,-7,1,0,0,rectangle,-9,-7,1,0,0,-4,-4,"[110,64,67,109,19,144,36,78,107,67]",-9,-7,1,0,0,1,13,94,8,1,Red,Red.jpg,Purple,Purple.jpg,,
,,,,,,,,,,,,,,,,,,4,,,,,,,,,,,,,,,,,,,,,,,,,,,,,,ismo,001,2021-12-06_04h17.11,jm_natural_scene_simialrity_2-12-2021,2021.2.3,MacIntel,62.5,60ff2b881b69fe44acefde87,61ad71e11ddd29ccf7a27d5b,61ad725385d624d5cc162d57,,,27,105,1,0,0,response1disk,0.567,17,-5,1,0,0,rectangle,17,-5,1,0,0,-4,1,"[110,64,67,109,19,144,36,78,107,67]",17,-5,1,0,0,1,14,95,44,1,Purple,Purple.jpg,Purple,Purple.jpg,,
,,,,,,,,,,,,,,,,,,-4,,,,,,,,,,,,,,,,,,,,,,,,,,,,,,ismo,001,2021-12-06_04h17.11,jm_natural_scene_simialrity_2-12-2021,2021.2.3,MacIntel,62.5,60ff2b881b69fe44acefde87,61ad71e11ddd29ccf7a27d5b,61ad725385d624d5cc162d57,,,-35,74,1,0,0,response7disk,1.883,10,2,1,0,0,rectangle,10,2,1,0,0,-4,-3,"[110,64,67,109,19,144,36,78,107,67]",10,2,1,0,0,1,15,96,25,1,DarkGreen,DarkGreen.jpg,Turquiose,Turquiose.jpg,,
,,,,,,,,,,,,,,,,,,2,,,,,,,,,,,,,,,,,,,,,,,,,,,,,,ismo,001,2021-12-06_04h17.11,jm_natural_scene_simialrity_2-12-2021,2021.2.3,MacIntel,62.5,60ff2b881b69fe44acefde87,61ad71e11ddd29ccf7a27d5b,61ad725385d624d5cc162d57,,,99,-39,1,0,0,response3disk,1.016,14,4,1,0,0,rectangle,14,4,1,0,0,-4,-2,"[110,64,67,109,19,144,36,78,107,67]",14,4,1,0,0,1,16,97,15,1,Yellow,Yellow.jpg,Pink,Pink.jpg,,
,,,,,,,,,,,,,,,,,,2,,,,,,,,,,,,,,,,,,,,,,,,,,,,,,ismo,001,2021-12-06_04h17.11,jm_natural_scene_simialrity_2-12-2021,2021.2.3,MacIntel,62.5,60ff2b881b69fe44acefde87,61ad71e11ddd29ccf7a27d5b,61ad725385d624d5cc162d57,,,80,-35,1,0,0,response3disk,0.933,4,-6,1,0,0,rectangle,4,-6,1,0,0,-4,3,"[110,64,67,109,19,144,36,78,107,67]",4,-6,1,0,0,1,17,98,80,1,Purple,Purple.jpg,Pink,Pink.jpg,,
,,,,,,,,,,,,,,,,,,-4,,,,,,,,,,,,,,,,,,,,,,,,,,,,,,ismo,001,2021-12-06_04h17.11,jm_natural_scene_simialrity_2-12-2021,2021.2.3,MacIntel,62.5,60ff2b881b69fe44acefde87,61ad71e11ddd29ccf7a27d5b,61ad725385d624d5cc162d57,,,-48,68,1,0,0,response7disk,1.334,-12,-1,1,0,0,rectangle,-12,-1,1,0,0,-4,-3,"[110,64,67,109,19,144,36,78,107,67]",-12,-1,1,0,0,1,18,99,70,1,Purple,Purple.jpg,DarkGreen,DarkGreen.jpg,,
,,,,,,,,,,,,,,,,,,4,,,,,,,,,,,,,,,,,,,,,,,,,,,,,,ismo,001,2021-12-06_04h17.11,jm_natural_scene_simialrity_2-12-2021,2021.2.3,MacIntel,62.5,60ff2b881b69fe44acefde87,61ad71e11ddd29ccf7a27d5b,61ad725385d624d5cc162d57,,,42,89,1,0,0,response1disk,0.598,5,12,1,0,0,rectangle,5,12,1,0,0,-4,-4,"[110,64,67,109,19,144,36,78,107,67]",5,12,1,0,0,1,19,100,9,1,Yellow,Yellow.jpg,Yellow,Yellow.jpg,,
,,,,,,,,,,,,,,,,,,-4,,,,,,,,,,,,,,,,,,,,,,,,,,,,,,ismo,001,2021-12-06_04h17.11,jm_natural_scene_simialrity_2-12-2021,2021.2.3,MacIntel,62.5,60ff2b881b69fe44acefde87,61ad71e11ddd29ccf7a27d5b,61ad725385d624d5cc162d57,,,-33,109,1,0,0,response7disk,0.782,-23,1,1,0,0,rectangle,-23,1,1,0,0,-4,3,"[110,64,67,109,19,144,36,78,107,67]",-23,1,1,0,0,1,20,101,12,1,Yellow,Yellow.jpg,Turquiose,Turquiose.jpg,,
,,,,,,,,,,,,,,,,,,2,,,,,,,,,,,,,,,,,,,,,,,,,,,,,,ismo,001,2021-12-06_04h17.11,jm_natural_scene_simialrity_2-12-2021,2021.2.3,MacIntel,62.5,60ff2b881b69fe44acefde87,61ad71e11ddd29ccf7a27d5b,61ad725385d624d5cc162d57,,,73,-31,1,0,0,response3disk,1.033,17,6,1,0,0,rectangle,17,6,1,0,0,-4,-2,"[110,64,67,109,19,144,36,78,107,67]",17,6,1,0,0,1,21,102,36,1,LightBlue,LightBlue.jpg,DarkBlue,DarkBlue.jpg,,
,,,,,,,,,,,,,,,,,,2,,,,,,,,,,,,,,,,,,,,,,,,,,,,,,ismo,001,2021-12-06_04h17.11,jm_natural_scene_simialrity_2-12-2021,2021.2.3,MacIntel,62.5,60ff2b881b69fe44acefde87,61ad71e11ddd29ccf7a27d5b,61ad725385d624d5cc162d57,,,76,-39,1,0,0,response3disk,0.667,-2,0,1,0,0,rectangle,-2,0,1,0,0,-4,-4,"[110,64,67,109,19,144,36,78,107,67]",-2,0,1,0,0,1,22,103,77,1,Purple,Purple.jpg,LightBlue,LightBlue.jpg,,
,,,,,,,,,,,,,,,,,,-4,,,,,,,,,,,,,,,,,,,,,,,,,,,,,,ismo,001,2021-12-06_04h17.11,jm_natural_scene_simialrity_2-12-2021,2021.2.3,MacIntel,62.5,60ff2b881b69fe44acefde87,61ad71e11ddd29ccf7a27d5b,61ad725385d624d5cc162d57,,,-41,93,1,0,0,response7disk,0.551,-17,20,1,0,0,rectangle,-17,20,1,0,0,-4,-2,"[110,64,67,109,19,144,36,78,107,67]",-17,20,1,0,0,1,23,104,2,1,Red,Red.jpg,LightGreen,LightGreen.jpg,,
,,,,,,,,,,,,,,,,,,2,,,,,,,,,,,,,,,,,,,,,,,,,,,,,,ismo,001,2021-12-06_04h17.11,jm_natural_scene_simialrity_2-12-2021,2021.2.3,MacIntel,62.5,60ff2b881b69fe44acefde87,61ad71e11ddd29ccf7a27d5b,61ad725385d624d5cc162d57,,,86,-35,1,0,0,response3disk,0.999,4,12,1,0,0,rectangle,4,12,1,0,0,-4,-1,"[110,64,67,109,19,144,36,78,107,67]",4,12,1,0,0,1,24,105,23,1,LightGreen,LightGreen.jpg,Purple,Purple.jpg,,
,,,,,,,,,,,,,,,,,,-4,,,,,,,,,,,,,,,,,,,,,,,,,,,,,,ismo,001,2021-12-06_04h17.11,jm_natural_scene_simialrity_2-12-2021,2021.2.3,MacIntel,62.5,60ff2b881b69fe44acefde87,61ad71e11ddd29ccf7a27d5b,61ad725385d624d5cc162d57,,,-44,90,1,0,0,response7disk,1.049,-11,1,1,0,0,rectangle,57,-97,1,0,0,1,1,"[110,64,67,109,19,144,36,78,107,67]",-11,1,1,0,0,1,25,106,37,1,LightBlue,LightBlue.jpg,Pink,Pink.jpg,response3disk_3,rectangle
,,,,,,,,,,,,,,,,,,2,,,,,,,,,,,,,,,,,,,,,,,,,,,,,,ismo,001,2021-12-06_04h17.11,jm_natural_scene_simialrity_2-12-2021,2021.2.3,MacIntel,62.5,60ff2b881b69fe44acefde87,61ad71e11ddd29ccf7a27d5b,61ad725385d624d5cc162d57,,,95,-68,1,0,0,response3disk,0.901,0,-18,1,0,0,rectangle,0,-18,1,0,0,1,3,"[110,64,67,109,19,144,36,78,107,67]",0,-18,1,0,0,1,26,107,18,1,LightGreen,LightGreen.jpg,DarkGreen,DarkGreen.jpg,,
,,,,,,,,,,,,,,,,,,4,,,,,,,,,,,,,,,,,,,,,,,,,,,,,,ismo,001,2021-12-06_04h17.11,jm_natural_scene_simialrity_2-12-2021,2021.2.3,MacIntel,62.5,60ff2b881b69fe44acefde87,61ad71e11ddd29ccf7a27d5b,61ad725385d624d5cc162d57,,,31,96,1,0,0,response1disk,0.566,21,10,1,0,0,rectangle,114,-84,1,0,0,2,2,"[110,64,67,109,19,144,36,78,107,67]",14,-17,1,0,0,1,27,108,0,1,Red,Red.jpg,Red,Red.jpg,response3disk_3,rectangle
,,,,,,,,,,,,,,,,,,2,,,,,,,,,,,,,,,,,,,,,,,,,,,,,,ismo,001,2021-12-06_04h17.11,jm_natural_scene_simialrity_2-12-2021,2021.2.3,MacIntel,62.5,60ff2b881b69fe44acefde87,61ad71e11ddd29ccf7a27d5b,61ad725385d624d5cc162d57,,,79,-32,1,0,0,response3disk,1.05,-13,5,1,0,0,rectangle,30,-80,1,0,0,1,1,"[110,64,67,109,19,144,36,78,107,67]",1,-19,1,0,0,1,28,109,58,1,Pink,Pink.jpg,Yellow,Yellow.jpg,response3disk_3,rectangle
,,,,,,,,,,,,,,,,,,-4,,,,,,,,,,,,,,,,,,,,,,,,,,,,,,ismo,001,2021-12-06_04h17.11,jm_natural_scene_simialrity_2-12-2021,2021.2.3,MacIntel,62.5,60ff2b881b69fe44acefde87,61ad71e11ddd29ccf7a27d5b,61ad725385d624d5cc162d57,,,-46,82,1,0,0,response7disk,1,-14,-12,1,0,0,rectangle,-14,-12,1,0,0,1,1,"[110,64,67,109,19,144,36,78,107,67]",-14,-12,1,0,0,1,29,110,29,1,DarkGreen,DarkGreen.jpg,Purple,Purple.jpg,,
,,,,,,,,,,,,,,,,,,2,,,,,,,,,,,,,,,,,,,,,,,,,,,,,,ismo,001,2021-12-06_04h17.11,jm_natural_scene_simialrity_2-12-2021,2021.2.3,MacIntel,62.5,60ff2b881b69fe44acefde87,61ad71e11ddd29ccf7a27d5b,61ad725385d624d5cc162d57,,,89,-43,1,0,0,response3disk,0.916,17,1,1,0,0,rectangle,17,1,1,0,0,1,2,"[110,64,67,109,19,144,36,78,107,67]",17,1,1,0,0,1,30,111,7,1,Red,Red.jpg,Pink,Pink.jpg,,
,,,,,,,,,,,,,,,,,,-4,,,,,,,,,,,,,,,,,,,,,,,,,,,,,,ismo,001,2021-12-06_04h17.11,jm_natural_scene_simialrity_2-12-2021,2021.2.3,MacIntel,62.5,60ff2b881b69fe44acefde87,61ad71e11ddd29ccf7a27d5b,61ad725385d624d5cc162d57,,,-35,80,1,0,0,response7disk,0.667,-1,-6,1,0,0,rectangle,-1,-6,1,0,0,1,2,"[110,64,67,109,19,144,36,78,107,67]",-1,-6,1,0,0,1,31,112,26,1,DarkGreen,DarkGreen.jpg,LightBlue,LightBlue.jpg,,
,,,,,,,,,,,,,,,,,,-4,,,,,,,,,,,,,,,,,,,,,,,,,,,,,,ismo,001,2021-12-06_04h17.11,jm_natural_scene_simialrity_2-12-2021,2021.2.3,MacIntel,62.5,60ff2b881b69fe44acefde87,61ad71e11ddd29ccf7a27d5b,61ad725385d624d5cc162d57,,,-41,90,1,0,0,response7disk,0.917,-11,8,1,0,0,rectangle,-11,8,1,0,0,1,-2,"[110,64,67,109,19,144,36,78,107,67]",-11,8,1,0,0,1,32,113,16,1,Yellow,Yellow.jpg,Purple,Purple.jpg,,
,,,,,,,,,,,,,,,,,,2,,,,,,,,,,,,,,,,,,,,,,,,,,,,,,ismo,001,2021-12-06_04h17.11,jm_natural_scene_simialrity_2-12-2021,2021.2.3,MacIntel,62.5,60ff2b881b69fe44acefde87,61ad71e11ddd29ccf7a27d5b,61ad725385d624d5cc162d57,,,95,-55,1,0,0,response3disk,0.85,3,7,1,0,0,rectangle,3,7,1,0,0,1,2,"[110,64,67,109,19,144,36,78,107,67]",3,7,1,0,0,1,33,114,60,1,DarkGreen,DarkGreen.jpg,LightGreen,LightGreen.jpg,,
,,,,,,,,,,,,,,,,,,2,,,,,,,,,,,,,,,,,,,,,,,,,,,,,,ismo,001,2021-12-06_04h17.11,jm_natural_scene_simialrity_2-12-2021,2021.2.3,MacIntel,62.5,60ff2b881b69fe44acefde87,61ad71e11ddd29ccf7a27d5b,61ad725385d624d5cc162d57,,,79,-29,1,0,0,response3disk,1.55,17,0,1,0,0,rectangle,17,0,1,0,0,1,3,"[110,64,67,109,19,144,36,78,107,67]",17,0,1,0,0,1,34,115,45,1,Yellow,Yellow.jpg,Red,Red.jpg,,
,,,,,,,,,,,,,,,,,,-4,,,,,,,,,,,,,,,,,,,,,,,,,,,,,,ismo,001,2021-12-06_04h17.11,jm_natural_scene_simialrity_2-12-2021,2021.2.3,MacIntel,62.5,60ff2b881b69fe44acefde87,61ad71e11ddd29ccf7a27d5b,61ad725385d624d5cc162d57,,,-36,75,1,0,0,response7disk,0.632,-5,10,1,0,0,rectangle,-5,10,1,0,0,1,-4,"[110,64,67,109,19,144,36,78,107,67]",-5,10,1,0,0,1,35,116,10,1,Yellow,Yellow.jpg,LightGreen,LightGreen.jpg,,
,,,,,,,,,,,,,,,,,,-4,,,,,,,,,,,,,,,,,,,,,,,,,,,,,,ismo,001,2021-12-06_04h17.11,jm_natural_scene_simialrity_2-12-2021,2021.2.3,MacIntel,62.5,60ff2b881b69fe44acefde87,61ad71e11ddd29ccf7a27d5b,61ad725385d624d5cc162d57,,,-33,56,1,0,0,response7disk,0.967,-6,-1,1,0,0,rectangle,-6,-1,1,0,0,1,-2,"[110,64,67,109,19,144,36,78,107,67]",-6,-1,1,0,0,1,36,117,61,1,Turquiose,Turquiose.jpg,LightGreen,LightGreen.jpg,,
,,,,,,,,,,,,,,,,,,-3,,,,,,,,,,,,,,,,,,,,,,,,,,,,,,ismo,001,2021-12-06_04h17.11,jm_natural_scene_simialrity_2-12-2021,2021.2.3,MacIntel,62.5,60ff2b881b69fe44acefde87,61ad71e11ddd29ccf7a27d5b,61ad725385d624d5cc162d57,,,-80,34,1,0,0,response7disk,0.583,-9,19,1,0,0,rectangle,-9,19,1,0,0,1,2,"[110,64,67,109,19,144,36,78,107,67]",-9,19,1,0,0,1,37,118,73,1,Pink,Pink.jpg,Turquiose,Turquiose.jpg,,
,,,,,,,,,,,,,,,,,,-4,,,,,,,,,,,,,,,,,,,,,,,,,,,,,,ismo,001,2021-12-06_04h17.11,jm_natural_scene_simialrity_2-12-2021,2021.2.3,MacIntel,62.5,60ff2b881b69fe44acefde87,61ad71e11ddd29ccf7a27d5b,61ad725385d624d5cc162d57,,,-42,83,1,0,0,response7disk,0.701,-16,11,1,0,0,rectangle,-16,11,1,0,0,1,-1,"[110,64,67,109,19,144,36,78,107,67]",-16,11,1,0,0,1,38,119,27,1,DarkGreen,DarkGreen.jpg,DarkBlue,DarkBlue.jpg,,
,,,,,,,,,,,,,,,,,,-4,,,,,,,,,,,,,,,,,,,,,,,,,,,,,,ismo,001,2021-12-06_04h17.11,jm_natural_scene_simialrity_2-12-2021,2021.2.3,MacIntel,62.5,60ff2b881b69fe44acefde87,61ad71e11ddd29ccf7a27d5b,61ad725385d624d5cc162d57,,,-32,111,1,0,0,response7disk,1.017,-6,20,1,0,0,rectangle,-6,20,1,0,0,1,2,"[110,64,67,109,19,144,36,78,107,67]",-6,20,1,0,0,1,39,120,41,1,DarkBlue,DarkBlue.jpg,Purple,Purple.jpg,,
,,,,,,,,,,,,,,,,,,-4,,,,,,,,,,,,,,,,,,,,,,,,,,,,,,ismo,001,2021-12-06_04h17.11,jm_natural_scene_simialrity_2-12-2021,2021.2.3,MacIntel,62.5,60ff2b881b69fe44acefde87,61ad71e11ddd29ccf7a27d5b,61ad725385d624d5cc162d57,,,-38,103,1,0,0,response7disk,0.683,-15,17,1,0,0,rectangle,-15,17,1,0,0,1,-1,"[110,64,67,109,19,144,36,78,107,67]",-15,17,1,0,0,1,40,121,20,1,LightGreen,LightGreen.jpg,LightBlue,LightBlue.jpg,,
,,,,,,,,,,,,,,,,,,-4,,,,,,,,,,,,,,,,,,,,,,,,,,,,,,ismo,001,2021-12-06_04h17.11,jm_natural_scene_simialrity_2-12-2021,2021.2.3,MacIntel,62.5,60ff2b881b69fe44acefde87,61ad71e11ddd29ccf7a27d5b,61ad725385d624d5cc162d57,,,-53,86,1,0,0,response7disk,0.633,-20,-12,1,0,0,rectangle,-20,-12,1,0,0,1,-3,"[110,64,67,109,19,144,36,78,107,67]",-20,-12,1,0,0,1,41,122,74,1,Purple,Purple.jpg,Turquiose,Turquiose.jpg,,
,,,,,,,,,,,,,,,,,,2,,,,,,,,,,,,,,,,,,,,,,,,,,,,,,ismo,001,2021-12-06_04h17.11,jm_natural_scene_simialrity_2-12-2021,2021.2.3,MacIntel,62.5,60ff2b881b69fe44acefde87,61ad71e11ddd29ccf7a27d5b,61ad725385d624d5cc162d57,,,86,-36,1,0,0,response3disk,0.966,11,-2,1,0,0,rectangle,11,-2,1,0,0,1,3,"[110,64,67,109,19,144,36,78,107,67]",11,-2,1,0,0,1,42,123,72,1,DarkBlue,DarkBlue.jpg,Turquiose,Turquiose.jpg,,
,,,,,,,,,,,,,,,,,,-4,,,,,,,,,,,,,,,,,,,,,,,,,,,,,,ismo,001,2021-12-06_04h17.11,jm_natural_scene_simialrity_2-12-2021,2021.2.3,MacIntel,62.5,60ff2b881b69fe44acefde87,61ad71e11ddd29ccf7a27d5b,61ad725385d624d5cc162d57,,,-31,101,1,0,0,response7disk,0.651,2,20,1,0,0,rectangle,2,20,1,0,0,1,3,"[110,64,67,109,19,144,36,78,107,67]",2,20,1,0,0,1,43,124,78,1,Pink,Pink.jpg,DarkBlue,DarkBlue.jpg,,
,,,,,,,,,,,,,,,,,,4,,,,,,,,,,,,,,,,,,,,,,,,,,,,,,ismo,001,2021-12-06_04h17.11,jm_natural_scene_simialrity_2-12-2021,2021.2.3,MacIntel,62.5,60ff2b881b69fe44acefde87,61ad71e11ddd29ccf7a27d5b,61ad725385d624d5cc162d57,,,50,87,1,0,0,response1disk,0.6,3,7,1,0,0,rectangle,3,7,1,0,0,1,-3,"[110,64,67,109,19,144,36,78,107,67]",3,7,1,0,0,1,44,125,39,1,DarkBlue,DarkBlue.jpg,DarkBlue,DarkBlue.jpg,,
,,,,,,,,,,,,,,,,,,-4,,,,,,,,,,,,,,,,,,,,,,,,,,,,,,ismo,001,2021-12-06_04h17.11,jm_natural_scene_simialrity_2-12-2021,2021.2.3,MacIntel,62.5,60ff2b881b69fe44acefde87,61ad71e11ddd29ccf7a27d5b,61ad725385d624d5cc162d57,,,-49,84,1,0,0,response7disk,0.534,-7,-4,1,0,0,rectangle,-7,-4,1,0,0,1,-4,"[110,64,67,109,19,144,36,78,107,67]",-7,-4,1,0,0,1,45,126,38,1,LightBlue,LightBlue.jpg,Purple,Purple.jpg,,
,,,,,,,,,,,,,,,,,,-4,,,,,,,,,,,,,,,,,,,,,,,,,,,,,,ismo,001,2021-12-06_04h17.11,jm_natural_scene_simialrity_2-12-2021,2021.2.3,MacIntel,62.5,60ff2b881b69fe44acefde87,61ad71e11ddd29ccf7a27d5b,61ad725385d624d5cc162d57,,,-55,88,1,0,0,response7disk,0.901,-21,-7,1,0,0,rectangle,-21,-7,1,0,0,1,3,"[110,64,67,109,19,144,36,78,107,67]",-21,-7,1,0,0,1,46,127,46,1,LightGreen,LightGreen.jpg,Red,Red.jpg,,
,,,,,,,,,,,,,,,,,,4,,,,,,,,,,,,,,,,,,,,,,,,,,,,,,ismo,001,2021-12-06_04h17.11,jm_natural_scene_simialrity_2-12-2021,2021.2.3,MacIntel,62.5,60ff2b881b69fe44acefde87,61ad71e11ddd29ccf7a27d5b,61ad725385d624d5cc162d57,,,30,64,1,0,0,response1disk,0.534,11,3,1,0,0,rectangle,11,3,1,0,0,1,2,"[110,64,67,109,19,144,36,78,107,67]",11,3,1,0,0,1,47,128,17,1,LightGreen,LightGreen.jpg,LightGreen,LightGreen.jpg,,
,,,,,,,,,,,,,,,,,,4,,,,,,,,,,,,,,,,,,,,,,,,,,,,,,ismo,001,2021-12-06_04h17.11,jm_natural_scene_simialrity_2-12-2021,2021.2.3,MacIntel,62.5,60ff2b881b69fe44acefde87,61ad71e11ddd29ccf7a27d5b,61ad725385d624d5cc162d57,,,39,101,1,0,0,response1disk,0.583,8,14,1,0,0,rectangle,8,14,1,0,0,1,-1,"[110,64,67,109,19,144,36,78,107,67]",8,14,1,0,0,1,48,129,30,1,Turquiose,Turquiose.jpg,Turquiose,Turquiose.jpg,,
,,,,,,,,,,,,,,,,,,2,,,,,,,,,,,,,,,,,,,,,,,,,,,,,,ismo,001,2021-12-06_04h17.11,jm_natural_scene_simialrity_2-12-2021,2021.2.3,MacIntel,62.5,60ff2b881b69fe44acefde87,61ad71e11ddd29ccf7a27d5b,61ad725385d624d5cc162d57,,,82,-51,1,0,0,response3disk,0.699,-8,-3,1,0,0,rectangle,-8,-3,1,0,0,1,1,"[110,64,67,109,19,144,36,78,107,67]",-8,-3,1,0,0,1,49,130,1,1,Red,Red.jpg,Yellow,Yellow.jpg,,
,,,,,,,,,,,,,,,,,,2,,,,,,,,,,,,,,,,,,,,,,,,,,,,,,ismo,001,2021-12-06_04h17.11,jm_natural_scene_simialrity_2-12-2021,2021.2.3,MacIntel,62.5,60ff2b881b69fe44acefde87,61ad71e11ddd29ccf7a27d5b,61ad725385d624d5cc162d57,,,104,-66,1,0,0,response3disk,0.7,-10,-8,1,0,0,rectangle,-10,-8,1,0,0,1,-2,"[110,64,67,109,19,144,36,78,107,67]",-10,-8,1,0,0,1,50,131,65,1,Purple,Purple.jpg,LightGreen,LightGreen.jpg,,
,,,,,,,,,,,,,,,,,,2,,,,,,,,,,,,,,,,,,,,,,,,,,,,,,ismo,001,2021-12-06_04h17.11,jm_natural_scene_simialrity_2-12-2021,2021.2.3,MacIntel,62.5,60ff2b881b69fe44acefde87,61ad71e11ddd29ccf7a27d5b,61ad725385d624d5cc162d57,,,61,-28,1,0,0,response3disk,1.565,-3,8,1,0,0,rectangle,-3,8,1,0,0,1,2,"[110,64,67,109,19,144,36,78,107,67]",-3,8,1,0,0,1,51,132,19,1,LightGreen,LightGreen.jpg,Turquiose,Turquiose.jpg,,
,,,,,,,,,,,,,,,,,,3,,,,,,,,,,,,,,,,,,,,,,,,,,,,,,ismo,001,2021-12-06_04h17.11,jm_natural_scene_simialrity_2-12-2021,2021.2.3,MacIntel,62.5,60ff2b881b69fe44acefde87,61ad71e11ddd29ccf7a27d5b,61ad725385d624d5cc162d57,,,81,19,1,0,0,response1disk,0.883,12,7,1,0,0,rectangle,12,7,1,0,0,1,3,"[110,64,67,109,19,144,36,78,107,67]",12,7,1,0,0,1,52,133,32,1,Turquiose,Turquiose.jpg,DarkBlue,DarkBlue.jpg,,
,,,,,,,,,,,,,,,,,,-4,,,,,,,,,,,,,,,,,,,,,,,,,,,,,,ismo,001,2021-12-06_04h17.11,jm_natural_scene_simialrity_2-12-2021,2021.2.3,MacIntel,62.5,60ff2b881b69fe44acefde87,61ad71e11ddd29ccf7a27d5b,61ad725385d624d5cc162d57,,,-48,106,1,0,0,response7disk,1.067,-9,1,1,0,0,rectangle,-9,1,1,0,0,1,1,"[110,64,67,109,19,144,36,78,107,67]",-9,1,1,0,0,1,53,134,34,1,Turquiose,Turquiose.jpg,Purple,Purple.jpg,,
,,,,,,,,,,,,,,,,,,-4,,,,,,,,,,,,,,,,,,,,,,,,,,,,,,ismo,001,2021-12-06_04h17.11,jm_natural_scene_simialrity_2-12-2021,2021.2.3,MacIntel,62.5,60ff2b881b69fe44acefde87,61ad71e11ddd29ccf7a27d5b,61ad725385d624d5cc162d57,,,-50,84,1,0,0,response7disk,0.666,-13,9,1,0,0,rectangle,-13,9,1,0,0,1,-3,"[110,64,67,109,19,144,36,78,107,67]",-13,9,1,0,0,1,54,135,53,1,LightGreen,LightGreen.jpg,Yellow,Yellow.jpg,,
,,,,,,,,,,,,,,,,,,-4,,,,,,,,,,,,,,,,,,,,,,,,,,,,,,ismo,001,2021-12-06_04h17.11,jm_natural_scene_simialrity_2-12-2021,2021.2.3,MacIntel,62.5,60ff2b881b69fe44acefde87,61ad71e11ddd29ccf7a27d5b,61ad725385d624d5cc162d57,,,-39,79,1,0,0,response7disk,0.566,-13,16,1,0,0,rectangle,-13,16,1,0,0,1,1,"[110,64,67,109,19,144,36,78,107,67]",-13,16,1,0,0,1,55,136,3,1,Red,Red.jpg,DarkGreen,DarkGreen.jpg,,
,,,,,,,,,,,,,,,,,,-4,,,,,,,,,,,,,,,,,,,,,,,,,,,,,,ismo,001,2021-12-06_04h17.11,jm_natural_scene_simialrity_2-12-2021,2021.2.3,MacIntel,62.5,60ff2b881b69fe44acefde87,61ad71e11ddd29ccf7a27d5b,61ad725385d624d5cc162d57,,,-44,89,1,0,0,response7disk,0.568,-7,18,1,0,0,rectangle,-7,18,1,0,0,1,3,"[110,64,67,109,19,144,36,78,107,67]",-7,18,1,0,0,1,56,137,66,1,Turquiose,Turquiose.jpg,DarkGreen,DarkGreen.jpg,,
,,,,,,,,,,,,,,,,,,-4,,,,,,,,,,,,,,,,,,,,,,,,,,,,,,ismo,001,2021-12-06_04h17.11,jm_natural_scene_simialrity_2-12-2021,2021.2.3,MacIntel,62.5,60ff2b881b69fe44acefde87,61ad71e11ddd29ccf7a27d5b,61ad725385d624d5cc162d57,,,-30,77,1,0,0,response7disk,0.583,-10,7,1,0,0,rectangle,-10,7,1,0,0,1,2,"[110,64,67,109,19,144,36,78,107,67]",-10,7,1,0,0,1,57,138,67,1,LightBlue,LightBlue.jpg,DarkGreen,DarkGreen.jpg,,
,,,,,,,,,,,,,,,,,,-4,,,,,,,,,,,,,,,,,,,,,,,,,,,,,,ismo,001,2021-12-06_04h17.11,jm_natural_scene_simialrity_2-12-2021,2021.2.3,MacIntel,62.5,60ff2b881b69fe44acefde87,61ad71e11ddd29ccf7a27d5b,61ad725385d624d5cc162d57,,,-47,87,1,0,0,response7disk,0.466,-3,10,1,0,0,rectangle,-3,10,1,0,0,1,-2,"[110,64,67,109,19,144,36,78,107,67]",-3,10,1,0,0,1,58,139,4,1,Red,Red.jpg,Turquiose,Turquiose.jpg,,
,,,,,,,,,,,,,,,,,,2,,,,,,,,,,,,,,,,,,,,,,,,,,,,,,ismo,001,2021-12-06_04h17.11,jm_natural_scene_simialrity_2-12-2021,2021.2.3,MacIntel,62.5,60ff2b881b69fe44acefde87,61ad71e11ddd29ccf7a27d5b,61ad725385d624d5cc162d57,,,76,-57,1,0,0,response3disk,0.95,17,8,1,0,0,rectangle,17,8,1,0,0,1,3,"[110,64,67,109,19,144,36,78,107,67]",17,8,1,0,0,1,59,140,43,1,Pink,Pink.jpg,Purple,Purple.jpg,,
,,,,,,,,,,,,,,,,,,-4,,,,,,,,,,,,,,,,,,,,,,,,,,,,,,ismo,001,2021-12-06_04h17.11,jm_natural_scene_simialrity_2-12-2021,2021.2.3,MacIntel,62.5,60ff2b881b69fe44acefde87,61ad71e11ddd29ccf7a27d5b,61ad725385d624d5cc162d57,,,-19,71,1,0,0,response7disk,0.467,-17,14,1,0,0,rectangle,-17,14,1,0,0,1,2,"[110,64,67,109,19,144,36,78,107,67]",-17,14,1,0,0,1,60,141,49,1,LightBlue,LightBlue.jpg,Red,Red.jpg,,
,,,,,,,,,,,,,,,,,,-3,,,,,,,,,,,,,,,,,,,,,,,,,,,,,,ismo,001,2021-12-06_04h17.11,jm_natural_scene_simialrity_2-12-2021,2021.2.3,MacIntel,62.5,60ff2b881b69fe44acefde87,61ad71e11ddd29ccf7a27d5b,61ad725385d624d5cc162d57,,,-55,29,1,0,0,response7disk,0.432,-3,-1,1,0,0,rectangle,-3,-1,1,0,0,1,-4,"[110,64,67,109,19,144,36,78,107,67]",-3,-1,1,0,0,1,61,142,6,1,Red,Red.jpg,DarkBlue,DarkBlue.jpg,,
,,,,,,,,,,,,,,,,,,-2,,,,,,,,,,,,,,,,,,,,,,,,,,,,,,ismo,001,2021-12-06_04h17.11,jm_natural_scene_simialrity_2-12-2021,2021.2.3,MacIntel,62.5,60ff2b881b69fe44acefde87,61ad71e11ddd29ccf7a27d5b,61ad725385d624d5cc162d57,,,-59,-31,1,0,0,response5disk,1.166,-16,-24,1,0,0,rectangle,55,-96,1,0,0,1,1,"[110,64,67,109,19,144,36,78,107,67]",4,-5,1,0,0,1,62,143,63,1,DarkBlue,DarkBlue.jpg,LightGreen,LightGreen.jpg,response3disk_3,rectangle
,,,,,,,,,,,,,,,,,,-4,,,,,,,,,,,,,,,,,,,,,,,,,,,,,,ismo,001,2021-12-06_04h17.11,jm_natural_scene_simialrity_2-12-2021,2021.2.3,MacIntel,62.5,60ff2b881b69fe44acefde87,61ad71e11ddd29ccf7a27d5b,61ad725385d624d5cc162d57,,,-61,83,1,0,0,response7disk,0.767,-14,12,1,0,0,rectangle,-14,12,1,0,0,1,-1,"[110,64,67,109,19,144,36,78,107,67]",-14,12,1,0,0,1,63,144,59,1,Purple,Purple.jpg,Yellow,Yellow.jpg,,
,,,,,,,,,,,,,,,,,,-4,,,,,,,,,,,,,,,,,,,,,,,,,,,,,,ismo,001,2021-12-06_04h17.11,jm_natural_scene_simialrity_2-12-2021,2021.2.3,MacIntel,62.5,60ff2b881b69fe44acefde87,61ad71e11ddd29ccf7a27d5b,61ad725385d624d5cc162d57,,,-52,98,1,0,0,response7disk,0.45,-19,20,1,0,0,rectangle,-19,20,1,0,0,-4,-3,"[110,64,67,109,19,144,36,78,107,67]",-19,20,1,0,0,1,64,145,69,1,Pink,Pink.jpg,DarkGreen,DarkGreen.jpg,,
,,,,,,,,,,,,,,,,,,-4,,,,,,,,,,,,,,,,,,,,,,,,,,,,,,ismo,001,2021-12-06_04h17.11,jm_natural_scene_simialrity_2-12-2021,2021.2.3,MacIntel,62.5,60ff2b881b69fe44acefde87,61ad71e11ddd29ccf7a27d5b,61ad725385d624d5cc162d57,,,-59,61,1,0,0,response7disk,1.067,-15,5,1,0,0,rectangle,-15,5,1,0,0,-4,3,"[110,64,67,109,19,144,36,78,107,67]",-15,5,1,0,0,1,65,146,40,1,DarkBlue,DarkBlue.jpg,Pink,Pink.jpg,,
,,,,,,,,,,,,,,,,,,-4,,,,,,,,,,,,,,,,,,,,,,,,,,,,,,ismo,001,2021-12-06_04h17.11,jm_natural_scene_simialrity_2-12-2021,2021.2.3,MacIntel,62.5,60ff2b881b69fe44acefde87,61ad71e11ddd29ccf7a27d5b,61ad725385d624d5cc162d57,,,-55,107,1,0,0,response7disk,0.533,-16,20,1,0,0,rectangle,-16,20,1,0,0,-4,1,"[110,64,67,109,19,144,36,78,107,67]",-16,20,1,0,0,1,66,147,47,1,DarkGreen,DarkGreen.jpg,Red,Red.jpg,,
,,,,,,,,,,,,,,,,,,2,,,,,,,,,,,,,,,,,,,,,,,,,,,,,,ismo,001,2021-12-06_04h17.11,jm_natural_scene_simialrity_2-12-2021,2021.2.3,MacIntel,62.5,60ff2b881b69fe44acefde87,61ad71e11ddd29ccf7a27d5b,61ad725385d624d5cc162d57,,,76,-31,1,0,0,response3disk,0.935,-6,7,1,0,0,rectangle,-6,7,1,0,0,-4,-2,"[110,64,67,109,19,144,36,78,107,67]",-6,7,1,0,0,1,67,148,71,1,LightBlue,LightBlue.jpg,Turquiose,Turquiose.jpg,,
,,,,,,,,,,,,,,,,,,-4,,,,,,,,,,,,,,,,,,,,,,,,,,,,,,ismo,001,2021-12-06_04h17.11,jm_natural_scene_simialrity_2-12-2021,2021.2.3,MacIntel,62.5,60ff2b881b69fe44acefde87,61ad71e11ddd29ccf7a27d5b,61ad725385d624d5cc162d57,,,-53,108,1,0,0,response7disk,0.633,-6,5,1,0,0,rectangle,-6,5,1,0,0,-4,-3,"[110,64,67,109,19,144,36,78,107,67]",-6,5,1,0,0,1,68,149,79,1,Purple,Purple.jpg,DarkBlue,DarkBlue.jpg,,
,,,,,,,,,,,,,,,,,,-3,,,,,,,,,,,,,,,,,,,,,,,,,,,,,,ismo,001,2021-12-06_04h17.11,jm_natural_scene_simialrity_2-12-2021,2021.2.3,MacIntel,62.5,60ff2b881b69fe44acefde87,61ad71e11ddd29ccf7a27d5b,61ad725385d624d5cc162d57,,,-79,55,1,0,0,response7disk,0.833,-11,3,1,0,0,rectangle,-11,3,1,0,0,-4,1,"[110,64,67,109,19,144,36,78,107,67]",-11,3,1,0,0,1,69,150,13,1,Yellow,Yellow.jpg,LightBlue,LightBlue.jpg,,
,,,,,,,,,,,,,,,,,,-2,,,,,,,,,,,,,,,,,,,,,,,,,,,,,,ismo,001,2021-12-06_04h17.11,jm_natural_scene_simialrity_2-12-2021,2021.2.3,MacIntel,62.5,60ff2b881b69fe44acefde87,61ad71e11ddd29ccf7a27d5b,61ad725385d624d5cc162d57,,,-60,-26,1,0,0,response5disk,1.066,-6,-17,1,0,0,rectangle,-6,-17,1,0,0,-4,-2,"[110,64,67,109,19,144,36,78,107,67]",-6,-17,1,0,0,1,70,151,68,1,DarkBlue,DarkBlue.jpg,DarkGreen,DarkGreen.jpg,,
,,,,,,,,,,,,,,,,,,-4,,,,,,,,,,,,,,,,,,,,,,,,,,,,,,ismo,001,2021-12-06_04h17.11,jm_natural_scene_simialrity_2-12-2021,2021.2.3,MacIntel,62.5,60ff2b881b69fe44acefde87,61ad71e11ddd29ccf7a27d5b,61ad725385d624d5cc162d57,,,-49,85,1,0,0,response7disk,0.6,8,-10,1,0,0,rectangle,8,-10,1,0,0,-4,-4,"[110,64,67,109,19,144,36,78,107,67]",8,-10,1,0,0,1,71,152,55,1,Turquiose,Turquiose.jpg,Yellow,Yellow.jpg,,
,,,,,,,,,,,,,,,,,,-4,,,,,,,,,,,,,,,,,,,,,,,,,,,,,,ismo,001,2021-12-06_04h17.11,jm_natural_scene_simialrity_2-12-2021,2021.2.3,MacIntel,62.5,60ff2b881b69fe44acefde87,61ad71e11ddd29ccf7a27d5b,61ad725385d624d5cc162d57,,,-38,79,1,0,0,response7disk,0.599,1,1,1,0,0,rectangle,1,1,1,0,0,-4,-1,"[110,64,67,109,19,144,36,78,107,67]",1,1,1,0,0,1,72,153,50,1,DarkBlue,DarkBlue.jpg,Red,Red.jpg,,
,,,,,,,,,,,,,,,,,,-4,,,,,,,,,,,,,,,,,,,,,,,,,,,,,,ismo,001,2021-12-06_04h17.11,jm_natural_scene_simialrity_2-12-2021,2021.2.3,MacIntel,62.5,60ff2b881b69fe44acefde87,61ad71e11ddd29ccf7a27d5b,61ad725385d624d5cc162d57,,,-51,103,1,0,0,response7disk,0.433,-15,8,1,0,0,rectangle,-15,8,1,0,0,-4,-2,"[110,64,67,109,19,144,36,78,107,67]",-15,8,1,0,0,1,73,154,52,1,Purple,Purple.jpg,Red,Red.jpg,,
,,,,,,,,,,,,,,,,,,-4,,,,,,,,,,,,,,,,,,,,,,,,,,,,,,ismo,001,2021-12-06_04h17.11,jm_natural_scene_simialrity_2-12-2021,2021.2.3,MacIntel,62.5,60ff2b881b69fe44acefde87,61ad71e11ddd29ccf7a27d5b,61ad725385d624d5cc162d57,,,-58,94,1,0,0,response7disk,0.467,3,-13,1,0,0,rectangle,3,-13,1,0,0,-4,-2,"[110,64,67,109,19,144,36,78,107,67]",3,-13,1,0,0,1,74,155,54,1,DarkGreen,DarkGreen.jpg,Yellow,Yellow.jpg,,
,,,,,,,,,,,,,,,,,,-4,,,,,,,,,,,,,,,,,,,,,,,,,,,,,,ismo,001,2021-12-06_04h17.11,jm_natural_scene_simialrity_2-12-2021,2021.2.3,MacIntel,62.5,60ff2b881b69fe44acefde87,61ad71e11ddd29ccf7a27d5b,61ad725385d624d5cc162d57,,,-49,101,1,0,0,response7disk,0.5,-4,-2,1,0,0,rectangle,-4,-2,1,0,0,-4,-3,"[110,64,67,109,19,144,36,78,107,67]",-4,-2,1,0,0,1,75,156,62,1,LightBlue,LightBlue.jpg,LightGreen,LightGreen.jpg,,
,,,,,,,,,,,,,,,,,,-4,,,,,,,,,,,,,,,,,,,,,,,,,,,,,,ismo,001,2021-12-06_04h17.11,jm_natural_scene_simialrity_2-12-2021,2021.2.3,MacIntel,62.5,60ff2b881b69fe44acefde87,61ad71e11ddd29ccf7a27d5b,61ad725385d624d5cc162d57,,,-47,67,1,0,0,response7disk,0.533,6,0,1,0,0,rectangle,6,0,1,0,0,-4,3,"[110,64,67,109,19,144,36,78,107,67]",6,0,1,0,0,1,76,157,75,1,DarkBlue,DarkBlue.jpg,LightBlue,LightBlue.jpg,,
,,,,,,,,,,,,,,,,,,4,,,,,,,,,,,,,,,,,,,,,,,,,,,,,,ismo,001,2021-12-06_04h17.11,jm_natural_scene_simialrity_2-12-2021,2021.2.3,MacIntel,62.5,60ff2b881b69fe44acefde87,61ad71e11ddd29ccf7a27d5b,61ad725385d624d5cc162d57,,,37,68,1,0,0,response1disk,0.583,21,2,1,0,0,rectangle,21,2,1,0,0,-4,-2,"[110,64,67,109,19,144,36,78,107,67]",21,2,1,0,0,1,77,158,42,1,Pink,Pink.jpg,Pink,Pink.jpg,,
,,,,,,,,,,,,,,,,,,-4,,,,,,,,,,,,,,,,,,,,,,,,,,,,,,ismo,001,2021-12-06_04h17.11,jm_natural_scene_simialrity_2-12-2021,2021.2.3,MacIntel,62.5,60ff2b881b69fe44acefde87,61ad71e11ddd29ccf7a27d5b,61ad725385d624d5cc162d57,,,-31,87,1,0,0,response7disk,0.517,-7,1,1,0,0,rectangle,-7,1,1,0,0,-4,-3,"[110,64,67,109,19,144,36,78,107,67]",-7,1,1,0,0,1,78,159,57,1,DarkBlue,DarkBlue.jpg,Yellow,Yellow.jpg,,
,,,,,,,,,,,,,,,,,,-4,,,,,,,,,,,,,,,,,,,,,,,,,,,,,,ismo,001,2021-12-06_04h17.11,jm_natural_scene_simialrity_2-12-2021,2021.2.3,MacIntel,62.5,60ff2b881b69fe44acefde87,61ad71e11ddd29ccf7a27d5b,61ad725385d624d5cc162d57,,,-38,107,1,0,0,response7disk,0.532,-1,8,1,0,0,rectangle,-1,8,1,0,0,-4,-1,"[110,64,67,109,19,144,36,78,107,67]",-1,8,1,0,0,1,79,160,22,1,LightGreen,LightGreen.jpg,Pink,Pink.jpg,,
,,,,,,,,,,,,,,,,,,-4,,,,,,,,,,,,,,,,,,,,,,,,,,,,,,ismo,001,2021-12-06_04h17.11,jm_natural_scene_simialrity_2-12-2021,2021.2.3,MacIntel,62.5,60ff2b881b69fe44acefde87,61ad71e11ddd29ccf7a27d5b,61ad725385d624d5cc162d57,,,-46,88,1,0,0,response7disk,0.498,-16,11,1,0,0,rectangle,-16,11,1,0,0,-4,-3,"[110,64,67,109,19,144,36,78,107,67]",-16,11,1,0,0,1,80,161,14,1,Yellow,Yellow.jpg,DarkBlue,DarkBlue.jpg,,
