key_resp.keys,key_resp.rt,key_resp_16.keys,key_resp_16.rt,key_resp_2.keys,key_resp_2.rt,key_resp_3.keys,key_resp_3.rt,key_resp_19.keys,key_resp_19.rt,key_resp_10.keys,key_resp_10.rt,mouse_prac.x,mouse_prac.y,mouse_prac.leftButton,mouse_prac.midButton,mouse_prac.rightButton,mouse_prac.clicked_name,similarity,mouse_10.x,mouse_10.y,mouse_10.leftButton,mouse_10.midButton,mouse_10.rightButton,mouse_10.clicked_name,mouse_catch_prac.x,mouse_catch_prac.y,mouse_catch_prac.leftButton,mouse_catch_prac.midButton,mouse_catch_prac.rightButton,catchnumberprac,mouse_6.x,mouse_6.y,mouse_6.leftButton,mouse_6.midButton,mouse_6.rightButton,during_prac.thisRepN,during_prac.thisTrialN,during_prac.thisN,during_prac.thisIndex,during_prac.ran,trailimage1,trial1adress,trailimage2,trial2adress,participant,session,date,expName,psychopyVersion,OS,frameRate,PROLIFIC_PID,STUDY_ID,SESSION_ID,mouse_catch_prac.clicked_name,mouse_6.clicked_name,key_resp_22.keys,key_resp_22.rt,mouse.x,mouse.y,mouse.leftButton,mouse.midButton,mouse.rightButton,mouse.clicked_name,response_time,mouse_2.x,mouse_2.y,mouse_2.leftButton,mouse_2.midButton,mouse_2.rightButton,mouse_2.clicked_name,mouse_3.x,mouse_3.y,mouse_3.leftButton,mouse_3.midButton,mouse_3.rightButton,catchresponse,catchnumber,catchtrialorder,mouse_11.x,mouse_11.y,mouse_11.leftButton,mouse_11.midButton,mouse_11.rightButton,trials_2.thisRepN,trials_2.thisTrialN,trials_2.thisN,trials_2.thisIndex,trials_2.ran,image1,image1adress,image2,image2adress,mouse_3.clicked_name,mouse_11.clicked_name
space,1.766,space,25.068,space,5.761,space,6.399,space,25.491,space,5.288,62,96,1,0,0,response1disk_5,4,-2,-2,1,0,0,rectangle_8,-2,-2,1,0,0,-2,-2,-2,1,0,0,0,0,0,1,1,trail1,trail1.jpg,trail2,trail2.jpg,Joseph,001,2021-12-05_23h16.36.035,jm_natural_scene_simialrity_2-12-2021,2021.2.3,Win32,29.9940012,5e9e05878b2cf3198fe9dc1a,61ad71e11ddd29ccf7a27d5b,61ad7249130d4cd21c4e8f2f,,,,,,,,,,,,,,,,,,,,,,,,,,,,,,,,,,,,,,,,,
,,,,,,,,,,,,49,81,1,0,0,response1disk_5,4,2,6,1,0,0,rectangle_8,-98,-43,1,0,0,-2,5,-1,1,0,0,0,1,1,5,1,trail3,trail3.jpg,trail3,trail3.jpg,Joseph,001,2021-12-05_23h16.36.035,jm_natural_scene_simialrity_2-12-2021,2021.2.3,Win32,29.9940012,5e9e05878b2cf3198fe9dc1a,61ad71e11ddd29ccf7a27d5b,61ad7249130d4cd21c4e8f2f,response5disk_7,rectangle_4,,,,,,,,,,,,,,,,,,,,,,,,,,,,,,,,,,,,,,,
,,,,,,,,,,,,44,94,1,0,0,response1disk_5,4,-17,-8,1,0,0,rectangle_8,-17,-8,1,0,0,-2,-17,-8,1,0,0,0,2,2,3,1,trail2,trail2.jpg,trail2,trail2.jpg,Joseph,001,2021-12-05_23h16.36.035,jm_natural_scene_simialrity_2-12-2021,2021.2.3,Win32,29.9940012,5e9e05878b2cf3198fe9dc1a,61ad71e11ddd29ccf7a27d5b,61ad7249130d4cd21c4e8f2f,,,,,,,,,,,,,,,,,,,,,,,,,,,,,,,,,,,,,,,,,
,,,,,,,,,,,,58,105,1,0,0,response1disk_5,4,-9,-2,1,0,0,rectangle_8,-9,-2,1,0,0,-2,-9,-2,1,0,0,0,3,3,0,1,trail1,trail1.jpg,trail1,trail1.jpg,Joseph,001,2021-12-05_23h16.36.035,jm_natural_scene_simialrity_2-12-2021,2021.2.3,Win32,29.9940012,5e9e05878b2cf3198fe9dc1a,61ad71e11ddd29ccf7a27d5b,61ad7249130d4cd21c4e8f2f,,,,,,,,,,,,,,,,,,,,,,,,,,,,,,,,,,,,,,,,,
,,,,,,,,,,,,-86,36,1,0,0,response7disk_5,-3,-2,10,1,0,0,rectangle_8,-2,10,1,0,0,-2,-2,10,1,0,0,0,4,4,2,1,trail1,trail1.jpg,trail3,trail3.jpg,Joseph,001,2021-12-05_23h16.36.035,jm_natural_scene_simialrity_2-12-2021,2021.2.3,Win32,29.9940012,5e9e05878b2cf3198fe9dc1a,61ad71e11ddd29ccf7a27d5b,61ad7249130d4cd21c4e8f2f,,,,,,,,,,,,,,,,,,,,,,,,,,,,,,,,,,,,,,,,,
,,,,,,,,,,,,-64,-43,1,0,0,response5disk_5,-2,0,-6,1,0,0,rectangle_8,0,-6,1,0,0,-2,0,-6,1,0,0,0,5,5,4,1,trail2,trail2.jpg,trail3,trail3.jpg,Joseph,001,2021-12-05_23h16.36.035,jm_natural_scene_simialrity_2-12-2021,2021.2.3,Win32,29.9940012,5e9e05878b2cf3198fe9dc1a,61ad71e11ddd29ccf7a27d5b,61ad7249130d4cd21c4e8f2f,,,,,,,,,,,,,,,,,,,,,,,,,,,,,,,,,,,,,,,,,
,,,,,,,,,,,,,,,,,,-2,,,,,,,,,,,,,,,,,,,,,,,,,,,Joseph,001,2021-12-05_23h16.36.035,jm_natural_scene_simialrity_2-12-2021,2021.2.3,Win32,29.9940012,5e9e05878b2cf3198fe9dc1a,61ad71e11ddd29ccf7a27d5b,61ad7249130d4cd21c4e8f2f,,,space,0.916,-61,-37,1,0,0,response5disk,2.279,14,2,1,0,0,rectangle,14,2,1,0,0,,-2,"[67,149,146,12,61,97,123,39,76,99]",14,2,1,0,0,0,0,0,30,1,Turquiose,Turquiose.jpg,Turquiose,Turquiose.jpg,,
,,,,,,,,,,,,,,,,,,3,,,,,,,,,,,,,,,,,,,,,,,,,,,Joseph,001,2021-12-05_23h16.36.035,jm_natural_scene_simialrity_2-12-2021,2021.2.3,Win32,29.9940012,5e9e05878b2cf3198fe9dc1a,61ad71e11ddd29ccf7a27d5b,61ad7249130d4cd21c4e8f2f,,,,,73,34,1,0,0,response1disk,2.138,2,-3,1,0,0,rectangle,2,-3,1,0,0,,1,"[67,149,146,12,61,97,123,39,76,99]",2,-3,1,0,0,0,1,1,56,1,LightBlue,LightBlue.jpg,Yellow,Yellow.jpg,,
,,,,,,,,,,,,,,,,,,-4,,,,,,,,,,,,,,,,,,,,,,,,,,,Joseph,001,2021-12-05_23h16.36.035,jm_natural_scene_simialrity_2-12-2021,2021.2.3,Win32,29.9940012,5e9e05878b2cf3198fe9dc1a,61ad71e11ddd29ccf7a27d5b,61ad7249130d4cd21c4e8f2f,,,,,-58,85,1,0,0,response7disk,1.816,-17,-9,1,0,0,rectangle,-17,-9,1,0,0,,-3,"[67,149,146,12,61,97,123,39,76,99]",-17,-9,1,0,0,0,2,2,5,1,Red,Red.jpg,LightBlue,LightBlue.jpg,,
,,,,,,,,,,,,,,,,,,-4,,,,,,,,,,,,,,,,,,,,,,,,,,,Joseph,001,2021-12-05_23h16.36.035,jm_natural_scene_simialrity_2-12-2021,2021.2.3,Win32,29.9940012,5e9e05878b2cf3198fe9dc1a,61ad71e11ddd29ccf7a27d5b,61ad7249130d4cd21c4e8f2f,,,,,-74,85,1,0,0,response7disk,1.197,-13,7,1,0,0,rectangle,-13,7,1,0,0,,1,"[67,149,146,12,61,97,123,39,76,99]",-13,7,1,0,0,0,3,3,37,1,LightBlue,LightBlue.jpg,Pink,Pink.jpg,,
,,,,,,,,,,,,,,,,,,-4,,,,,,,,,,,,,,,,,,,,,,,,,,,Joseph,001,2021-12-05_23h16.36.035,jm_natural_scene_simialrity_2-12-2021,2021.2.3,Win32,29.9940012,5e9e05878b2cf3198fe9dc1a,61ad71e11ddd29ccf7a27d5b,61ad7249130d4cd21c4e8f2f,,,,,-53,102,1,0,0,response7disk,1.42,-4,-8,1,0,0,rectangle,-4,-8,1,0,0,,-1,"[67,149,146,12,61,97,123,39,76,99]",-4,-8,1,0,0,0,4,4,11,1,Yellow,Yellow.jpg,DarkGreen,DarkGreen.jpg,,
,,,,,,,,,,,,,,,,,,-4,,,,,,,,,,,,,,,,,,,,,,,,,,,Joseph,001,2021-12-05_23h16.36.035,jm_natural_scene_simialrity_2-12-2021,2021.2.3,Win32,29.9940012,5e9e05878b2cf3198fe9dc1a,61ad71e11ddd29ccf7a27d5b,61ad7249130d4cd21c4e8f2f,,,,,-41,106,1,0,0,response7disk,1.057,-4,4,1,0,0,rectangle,-4,4,1,0,0,,1,"[67,149,146,12,61,97,123,39,76,99]",-4,4,1,0,0,0,5,5,46,1,LightGreen,LightGreen.jpg,Red,Red.jpg,,
,,,,,,,,,,,,,,,,,,-3,,,,,,,,,,,,,,,,,,,,,,,,,,,Joseph,001,2021-12-05_23h16.36.035,jm_natural_scene_simialrity_2-12-2021,2021.2.3,Win32,29.9940012,5e9e05878b2cf3198fe9dc1a,61ad71e11ddd29ccf7a27d5b,61ad7249130d4cd21c4e8f2f,,,,,-94,47,1,0,0,response7disk,2.068,-5,-1,1,0,0,rectangle,-5,-1,1,0,0,,-4,"[67,149,146,12,61,97,123,39,76,99]",-5,-1,1,0,0,0,6,6,8,1,Red,Red.jpg,Purple,Purple.jpg,,
,,,,,,,,,,,,,,,,,,3,,,,,,,,,,,,,,,,,,,,,,,,,,,Joseph,001,2021-12-05_23h16.36.035,jm_natural_scene_simialrity_2-12-2021,2021.2.3,Win32,29.9940012,5e9e05878b2cf3198fe9dc1a,61ad71e11ddd29ccf7a27d5b,61ad7249130d4cd21c4e8f2f,,,,,108,32,1,0,0,response1disk,2.118,-19,2,1,0,0,rectangle,-19,2,1,0,0,,-3,"[67,149,146,12,61,97,123,39,76,99]",-19,2,1,0,0,0,7,7,45,1,Yellow,Yellow.jpg,Red,Red.jpg,,
,,,,,,,,,,,,,,,,,,-3,,,,,,,,,,,,,,,,,,,,,,,,,,,Joseph,001,2021-12-05_23h16.36.035,jm_natural_scene_simialrity_2-12-2021,2021.2.3,Win32,29.9940012,5e9e05878b2cf3198fe9dc1a,61ad71e11ddd29ccf7a27d5b,61ad7249130d4cd21c4e8f2f,,,,,-70,61,1,0,0,response7disk,2.142,-2,-4,1,0,0,rectangle,-2,-4,1,0,0,,-2,"[67,149,146,12,61,97,123,39,76,99]",-2,-4,1,0,0,0,8,8,22,1,LightGreen,LightGreen.jpg,Pink,Pink.jpg,,
,,,,,,,,,,,,,,,,,,2,,,,,,,,,,,,,,,,,,,,,,,,,,,Joseph,001,2021-12-05_23h16.36.035,jm_natural_scene_simialrity_2-12-2021,2021.2.3,Win32,29.9940012,5e9e05878b2cf3198fe9dc1a,61ad71e11ddd29ccf7a27d5b,61ad7249130d4cd21c4e8f2f,,,,,93,-53,1,0,0,response3disk,1.53,-8,-1,1,0,0,rectangle,-8,-1,1,0,0,,-3,"[67,149,146,12,61,97,123,39,76,99]",-8,-1,1,0,0,0,9,9,34,1,Turquiose,Turquiose.jpg,Purple,Purple.jpg,,
,,,,,,,,,,,,,,,,,,-2,,,,,,,,,,,,,,,,,,,,,,,,,,,Joseph,001,2021-12-05_23h16.36.035,jm_natural_scene_simialrity_2-12-2021,2021.2.3,Win32,29.9940012,5e9e05878b2cf3198fe9dc1a,61ad71e11ddd29ccf7a27d5b,61ad7249130d4cd21c4e8f2f,,,,,-46,-30,1,0,0,response5disk,1.98,4,-20,1,0,0,rectangle,4,-20,1,0,0,,-1,"[67,149,146,12,61,97,123,39,76,99]",4,-20,1,0,0,0,10,10,43,1,Pink,Pink.jpg,Purple,Purple.jpg,,
,,,,,,,,,,,,,,,,,,-4,,,,,,,,,,,,,,,,,,,,,,,,,,,Joseph,001,2021-12-05_23h16.36.035,jm_natural_scene_simialrity_2-12-2021,2021.2.3,Win32,29.9940012,5e9e05878b2cf3198fe9dc1a,61ad71e11ddd29ccf7a27d5b,61ad7249130d4cd21c4e8f2f,,,,,-49,96,1,0,0,response7disk,1.12,0,10,1,0,0,rectangle,-103,41,1,0,0,-3,-3,"[67,149,146,12,61,97,123,39,76,99]",-4,-6,1,0,0,0,11,11,50,1,DarkBlue,DarkBlue.jpg,Red,Red.jpg,response7disk_3,rectangle
,,,,,,,,,,,,,,,,,,2,,,,,,,,,,,,,,,,,,,,,,,,,,,Joseph,001,2021-12-05_23h16.36.035,jm_natural_scene_simialrity_2-12-2021,2021.2.3,Win32,29.9940012,5e9e05878b2cf3198fe9dc1a,61ad71e11ddd29ccf7a27d5b,61ad7249130d4cd21c4e8f2f,,,,,78,-54,1,0,0,response3disk,1.806,9,-15,1,0,0,rectangle,9,-15,1,0,0,-3,-4,"[67,149,146,12,61,97,123,39,76,99]",9,-15,1,0,0,0,12,12,32,1,Turquiose,Turquiose.jpg,DarkBlue,DarkBlue.jpg,,
,,,,,,,,,,,,,,,,,,2,,,,,,,,,,,,,,,,,,,,,,,,,,,Joseph,001,2021-12-05_23h16.36.035,jm_natural_scene_simialrity_2-12-2021,2021.2.3,Win32,29.9940012,5e9e05878b2cf3198fe9dc1a,61ad71e11ddd29ccf7a27d5b,61ad7249130d4cd21c4e8f2f,,,,,90,-50,1,0,0,response3disk,1.479,4,-5,1,0,0,rectangle,4,-5,1,0,0,-3,-2,"[67,149,146,12,61,97,123,39,76,99]",4,-5,1,0,0,0,13,13,25,1,DarkGreen,DarkGreen.jpg,Turquiose,Turquiose.jpg,,
,,,,,,,,,,,,,,,,,,-2,,,,,,,,,,,,,,,,,,,,,,,,,,,Joseph,001,2021-12-05_23h16.36.035,jm_natural_scene_simialrity_2-12-2021,2021.2.3,Win32,29.9940012,5e9e05878b2cf3198fe9dc1a,61ad71e11ddd29ccf7a27d5b,61ad7249130d4cd21c4e8f2f,,,,,-80,-48,1,0,0,response5disk,2.198,-5,-11,1,0,0,rectangle,-5,-11,1,0,0,-3,3,"[67,149,146,12,61,97,123,39,76,99]",-5,-11,1,0,0,0,14,14,55,1,Turquiose,Turquiose.jpg,Yellow,Yellow.jpg,,
,,,,,,,,,,,,,,,,,,-3,,,,,,,,,,,,,,,,,,,,,,,,,,,Joseph,001,2021-12-05_23h16.36.035,jm_natural_scene_simialrity_2-12-2021,2021.2.3,Win32,29.9940012,5e9e05878b2cf3198fe9dc1a,61ad71e11ddd29ccf7a27d5b,61ad7249130d4cd21c4e8f2f,,,,,-63,60,1,0,0,response7disk,1.176,-2,7,1,0,0,rectangle,-2,7,1,0,0,-3,-3,"[67,149,146,12,61,97,123,39,76,99]",-2,7,1,0,0,0,15,15,40,1,DarkBlue,DarkBlue.jpg,Pink,Pink.jpg,,
,,,,,,,,,,,,,,,,,,-2,,,,,,,,,,,,,,,,,,,,,,,,,,,Joseph,001,2021-12-05_23h16.36.035,jm_natural_scene_simialrity_2-12-2021,2021.2.3,Win32,29.9940012,5e9e05878b2cf3198fe9dc1a,61ad71e11ddd29ccf7a27d5b,61ad7249130d4cd21c4e8f2f,,,,,-75,-43,1,0,0,response5disk,1.13,0,-15,1,0,0,rectangle,0,-15,1,0,0,-3,-2,"[67,149,146,12,61,97,123,39,76,99]",0,-15,1,0,0,0,16,16,3,1,Red,Red.jpg,DarkGreen,DarkGreen.jpg,,
,,,,,,,,,,,,,,,,,,2,,,,,,,,,,,,,,,,,,,,,,,,,,,Joseph,001,2021-12-05_23h16.36.035,jm_natural_scene_simialrity_2-12-2021,2021.2.3,Win32,29.9940012,5e9e05878b2cf3198fe9dc1a,61ad71e11ddd29ccf7a27d5b,61ad7249130d4cd21c4e8f2f,,,,,72,-28,1,0,0,response3disk,1.259,-4,5,1,0,0,rectangle,-4,5,1,0,0,-3,3,"[67,149,146,12,61,97,123,39,76,99]",-4,5,1,0,0,0,17,17,70,1,Purple,Purple.jpg,DarkGreen,DarkGreen.jpg,,
,,,,,,,,,,,,,,,,,,-4,,,,,,,,,,,,,,,,,,,,,,,,,,,Joseph,001,2021-12-05_23h16.36.035,jm_natural_scene_simialrity_2-12-2021,2021.2.3,Win32,29.9940012,5e9e05878b2cf3198fe9dc1a,61ad71e11ddd29ccf7a27d5b,61ad7249130d4cd21c4e8f2f,,,,,-61,67,1,0,0,response7disk,1.171,-10,-11,1,0,0,rectangle,-10,-11,1,0,0,-3,-4,"[67,149,146,12,61,97,123,39,76,99]",-10,-11,1,0,0,0,18,18,20,1,LightGreen,LightGreen.jpg,LightBlue,LightBlue.jpg,,
,,,,,,,,,,,,,,,,,,-4,,,,,,,,,,,,,,,,,,,,,,,,,,,Joseph,001,2021-12-05_23h16.36.035,jm_natural_scene_simialrity_2-12-2021,2021.2.3,Win32,29.9940012,5e9e05878b2cf3198fe9dc1a,61ad71e11ddd29ccf7a27d5b,61ad7249130d4cd21c4e8f2f,,,,,-38,58,1,0,0,response7disk,1.1,6,18,1,0,0,rectangle,6,18,1,0,0,-3,-4,"[67,149,146,12,61,97,123,39,76,99]",6,18,1,0,0,0,19,19,7,1,Red,Red.jpg,Pink,Pink.jpg,,
,,,,,,,,,,,,,,,,,,-4,,,,,,,,,,,,,,,,,,,,,,,,,,,Joseph,001,2021-12-05_23h16.36.035,jm_natural_scene_simialrity_2-12-2021,2021.2.3,Win32,29.9940012,5e9e05878b2cf3198fe9dc1a,61ad71e11ddd29ccf7a27d5b,61ad7249130d4cd21c4e8f2f,,,,,-46,101,1,0,0,response7disk,1.862,3,-2,1,0,0,rectangle,3,-2,1,0,0,-3,-2,"[67,149,146,12,61,97,123,39,76,99]",3,-2,1,0,0,0,20,20,21,1,LightGreen,LightGreen.jpg,DarkBlue,DarkBlue.jpg,,
,,,,,,,,,,,,,,,,,,-2,,,,,,,,,,,,,,,,,,,,,,,,,,,Joseph,001,2021-12-05_23h16.36.035,jm_natural_scene_simialrity_2-12-2021,2021.2.3,Win32,29.9940012,5e9e05878b2cf3198fe9dc1a,61ad71e11ddd29ccf7a27d5b,61ad7249130d4cd21c4e8f2f,,,,,-80,-26,1,0,0,response5disk,1.967,-17,-12,1,0,0,rectangle,-17,-12,1,0,0,-3,3,"[67,149,146,12,61,97,123,39,76,99]",-17,-12,1,0,0,0,21,21,67,1,LightBlue,LightBlue.jpg,DarkGreen,DarkGreen.jpg,,
,,,,,,,,,,,,,,,,,,-3,,,,,,,,,,,,,,,,,,,,,,,,,,,Joseph,001,2021-12-05_23h16.36.035,jm_natural_scene_simialrity_2-12-2021,2021.2.3,Win32,29.9940012,5e9e05878b2cf3198fe9dc1a,61ad71e11ddd29ccf7a27d5b,61ad7249130d4cd21c4e8f2f,,,,,-44,40,1,0,0,response7disk,14.383,-6,6,1,0,0,rectangle,-6,6,1,0,0,-3,3,"[67,149,146,12,61,97,123,39,76,99]",-6,6,1,0,0,0,22,22,63,1,DarkBlue,DarkBlue.jpg,LightGreen,LightGreen.jpg,,
,,,,,,,,,,,,,,,,,,-3,,,,,,,,,,,,,,,,,,,,,,,,,,,Joseph,001,2021-12-05_23h16.36.035,jm_natural_scene_simialrity_2-12-2021,2021.2.3,Win32,29.9940012,5e9e05878b2cf3198fe9dc1a,61ad71e11ddd29ccf7a27d5b,61ad7249130d4cd21c4e8f2f,,,,,-76,36,1,0,0,response7disk,1.362,-21,-3,1,0,0,rectangle,-21,-3,1,0,0,-3,-3,"[67,149,146,12,61,97,123,39,76,99]",-21,-3,1,0,0,0,23,23,76,1,Pink,Pink.jpg,LightBlue,LightBlue.jpg,,
,,,,,,,,,,,,,,,,,,4,,,,,,,,,,,,,,,,,,,,,,,,,,,Joseph,001,2021-12-05_23h16.36.035,jm_natural_scene_simialrity_2-12-2021,2021.2.3,Win32,29.9940012,5e9e05878b2cf3198fe9dc1a,61ad71e11ddd29ccf7a27d5b,61ad7249130d4cd21c4e8f2f,,,,,56,89,1,0,0,response1disk,1.946,5,-9,1,0,0,rectangle,5,-9,1,0,0,-3,2,"[67,149,146,12,61,97,123,39,76,99]",5,-9,1,0,0,0,24,24,36,1,LightBlue,LightBlue.jpg,DarkBlue,DarkBlue.jpg,,
,,,,,,,,,,,,,,,,,,4,,,,,,,,,,,,,,,,,,,,,,,,,,,Joseph,001,2021-12-05_23h16.36.035,jm_natural_scene_simialrity_2-12-2021,2021.2.3,Win32,29.9940012,5e9e05878b2cf3198fe9dc1a,61ad71e11ddd29ccf7a27d5b,61ad7249130d4cd21c4e8f2f,,,,,36,56,1,0,0,response1disk,1.265,5,-7,1,0,0,rectangle,5,-7,1,0,0,-3,-4,"[67,149,146,12,61,97,123,39,76,99]",5,-7,1,0,0,0,25,25,77,1,Purple,Purple.jpg,LightBlue,LightBlue.jpg,,
,,,,,,,,,,,,,,,,,,3,,,,,,,,,,,,,,,,,,,,,,,,,,,Joseph,001,2021-12-05_23h16.36.035,jm_natural_scene_simialrity_2-12-2021,2021.2.3,Win32,29.9940012,5e9e05878b2cf3198fe9dc1a,61ad71e11ddd29ccf7a27d5b,61ad7249130d4cd21c4e8f2f,,,,,107,20,1,0,0,response1disk,1.491,20,-16,1,0,0,rectangle,20,-16,1,0,0,-3,3,"[67,149,146,12,61,97,123,39,76,99]",20,-16,1,0,0,0,26,26,72,1,DarkBlue,DarkBlue.jpg,Turquiose,Turquiose.jpg,,
,,,,,,,,,,,,,,,,,,-2,,,,,,,,,,,,,,,,,,,,,,,,,,,Joseph,001,2021-12-05_23h16.36.035,jm_natural_scene_simialrity_2-12-2021,2021.2.3,Win32,29.9940012,5e9e05878b2cf3198fe9dc1a,61ad71e11ddd29ccf7a27d5b,61ad7249130d4cd21c4e8f2f,,,,,-60,-18,1,0,0,response5disk,1.007,-8,-12,1,0,0,rectangle,-8,-12,1,0,0,-3,3,"[67,149,146,12,61,97,123,39,76,99]",-8,-12,1,0,0,0,27,27,69,1,Pink,Pink.jpg,DarkGreen,DarkGreen.jpg,,
,,,,,,,,,,,,,,,,,,4,,,,,,,,,,,,,,,,,,,,,,,,,,,Joseph,001,2021-12-05_23h16.36.035,jm_natural_scene_simialrity_2-12-2021,2021.2.3,Win32,29.9940012,5e9e05878b2cf3198fe9dc1a,61ad71e11ddd29ccf7a27d5b,61ad7249130d4cd21c4e8f2f,,,,,46,84,1,0,0,response1disk,0.937,2,-18,1,0,0,rectangle,2,-18,1,0,0,-3,-3,"[67,149,146,12,61,97,123,39,76,99]",2,-18,1,0,0,0,28,28,24,1,DarkGreen,DarkGreen.jpg,DarkGreen,DarkGreen.jpg,,
,,,,,,,,,,,,,,,,,,-3,,,,,,,,,,,,,,,,,,,,,,,,,,,Joseph,001,2021-12-05_23h16.36.035,jm_natural_scene_simialrity_2-12-2021,2021.2.3,Win32,29.9940012,5e9e05878b2cf3198fe9dc1a,61ad71e11ddd29ccf7a27d5b,61ad7249130d4cd21c4e8f2f,,,,,-53,42,1,0,0,response7disk,0.774,-3,-10,1,0,0,rectangle,-3,-10,1,0,0,-3,-4,"[67,149,146,12,61,97,123,39,76,99]",-3,-10,1,0,0,0,29,29,64,1,Pink,Pink.jpg,LightGreen,LightGreen.jpg,,
,,,,,,,,,,,,,,,,,,4,,,,,,,,,,,,,,,,,,,,,,,,,,,Joseph,001,2021-12-05_23h16.36.035,jm_natural_scene_simialrity_2-12-2021,2021.2.3,Win32,29.9940012,5e9e05878b2cf3198fe9dc1a,61ad71e11ddd29ccf7a27d5b,61ad7249130d4cd21c4e8f2f,,,,,26,86,1,0,0,response1disk,0.696,5,20,1,0,0,rectangle,5,20,1,0,0,-3,-1,"[67,149,146,12,61,97,123,39,76,99]",5,20,1,0,0,0,30,30,35,1,LightBlue,LightBlue.jpg,LightBlue,LightBlue.jpg,,
,,,,,,,,,,,,,,,,,,4,,,,,,,,,,,,,,,,,,,,,,,,,,,Joseph,001,2021-12-05_23h16.36.035,jm_natural_scene_simialrity_2-12-2021,2021.2.3,Win32,29.9940012,5e9e05878b2cf3198fe9dc1a,61ad71e11ddd29ccf7a27d5b,61ad7249130d4cd21c4e8f2f,,,,,42,90,1,0,0,response1disk,0.7,-10,-11,1,0,0,rectangle,-10,-11,1,0,0,-3,1,"[67,149,146,12,61,97,123,39,76,99]",-10,-11,1,0,0,0,31,31,18,1,LightGreen,LightGreen.jpg,DarkGreen,DarkGreen.jpg,,
,,,,,,,,,,,,,,,,,,4,,,,,,,,,,,,,,,,,,,,,,,,,,,Joseph,001,2021-12-05_23h16.36.035,jm_natural_scene_simialrity_2-12-2021,2021.2.3,Win32,29.9940012,5e9e05878b2cf3198fe9dc1a,61ad71e11ddd29ccf7a27d5b,61ad7249130d4cd21c4e8f2f,,,,,35,98,1,0,0,response1disk,0.835,15,16,1,0,0,rectangle,15,16,1,0,0,-3,-4,"[67,149,146,12,61,97,123,39,76,99]",15,16,1,0,0,0,32,32,38,1,LightBlue,LightBlue.jpg,Purple,Purple.jpg,,
,,,,,,,,,,,,,,,,,,-3,,,,,,,,,,,,,,,,,,,,,,,,,,,Joseph,001,2021-12-05_23h16.36.035,jm_natural_scene_simialrity_2-12-2021,2021.2.3,Win32,29.9940012,5e9e05878b2cf3198fe9dc1a,61ad71e11ddd29ccf7a27d5b,61ad7249130d4cd21c4e8f2f,,,,,-75,35,1,0,0,response7disk,1.373,8,-16,1,0,0,rectangle,8,-16,1,0,0,-3,2,"[67,149,146,12,61,97,123,39,76,99]",8,-16,1,0,0,0,33,33,19,1,LightGreen,LightGreen.jpg,Turquiose,Turquiose.jpg,,
,,,,,,,,,,,,,,,,,,3,,,,,,,,,,,,,,,,,,,,,,,,,,,Joseph,001,2021-12-05_23h16.36.035,jm_natural_scene_simialrity_2-12-2021,2021.2.3,Win32,29.9940012,5e9e05878b2cf3198fe9dc1a,61ad71e11ddd29ccf7a27d5b,61ad7249130d4cd21c4e8f2f,,,,,117,39,1,0,0,response1disk,1.266,-7,2,1,0,0,rectangle,-7,2,1,0,0,-3,-2,"[67,149,146,12,61,97,123,39,76,99]",-7,2,1,0,0,0,34,34,58,1,Pink,Pink.jpg,Yellow,Yellow.jpg,,
,,,,,,,,,,,,,,,,,,4,,,,,,,,,,,,,,,,,,,,,,,,,,,Joseph,001,2021-12-05_23h16.36.035,jm_natural_scene_simialrity_2-12-2021,2021.2.3,Win32,29.9940012,5e9e05878b2cf3198fe9dc1a,61ad71e11ddd29ccf7a27d5b,61ad7249130d4cd21c4e8f2f,,,,,61,75,1,0,0,response1disk,0.684,15,4,1,0,0,rectangle,15,4,1,0,0,-3,1,"[67,149,146,12,61,97,123,39,76,99]",15,4,1,0,0,0,35,35,9,1,Yellow,Yellow.jpg,Yellow,Yellow.jpg,,
,,,,,,,,,,,,,,,,,,-3,,,,,,,,,,,,,,,,,,,,,,,,,,,Joseph,001,2021-12-05_23h16.36.035,jm_natural_scene_simialrity_2-12-2021,2021.2.3,Win32,29.9940012,5e9e05878b2cf3198fe9dc1a,61ad71e11ddd29ccf7a27d5b,61ad7249130d4cd21c4e8f2f,,,,,-58,58,1,0,0,response7disk,1.017,-13,-16,1,0,0,rectangle,-13,-16,1,0,0,-3,3,"[67,149,146,12,61,97,123,39,76,99]",-13,-16,1,0,0,0,36,36,14,1,Yellow,Yellow.jpg,DarkBlue,DarkBlue.jpg,,
,,,,,,,,,,,,,,,,,,-2,,,,,,,,,,,,,,,,,,,,,,,,,,,Joseph,001,2021-12-05_23h16.36.035,jm_natural_scene_simialrity_2-12-2021,2021.2.3,Win32,29.9940012,5e9e05878b2cf3198fe9dc1a,61ad71e11ddd29ccf7a27d5b,61ad7249130d4cd21c4e8f2f,,,,,-48,-44,1,0,0,response5disk,1.307,0,-11,1,0,0,rectangle,0,-11,1,0,0,-3,1,"[67,149,146,12,61,97,123,39,76,99]",0,-11,1,0,0,0,37,37,53,1,LightGreen,LightGreen.jpg,Yellow,Yellow.jpg,,
,,,,,,,,,,,,,,,,,,3,,,,,,,,,,,,,,,,,,,,,,,,,,,Joseph,001,2021-12-05_23h16.36.035,jm_natural_scene_simialrity_2-12-2021,2021.2.3,Win32,29.9940012,5e9e05878b2cf3198fe9dc1a,61ad71e11ddd29ccf7a27d5b,61ad7249130d4cd21c4e8f2f,,,,,119,35,1,0,0,response1disk,1.29,4,-3,1,0,0,rectangle,112,45,1,0,0,3,3,"[67,149,146,12,61,97,123,39,76,99]",-3,9,1,0,0,0,38,38,60,1,DarkGreen,DarkGreen.jpg,LightGreen,LightGreen.jpg,response1disk_3,rectangle
,,,,,,,,,,,,,,,,,,2,,,,,,,,,,,,,,,,,,,,,,,,,,,Joseph,001,2021-12-05_23h16.36.035,jm_natural_scene_simialrity_2-12-2021,2021.2.3,Win32,29.9940012,5e9e05878b2cf3198fe9dc1a,61ad71e11ddd29ccf7a27d5b,61ad7249130d4cd21c4e8f2f,,,,,84,-18,1,0,0,response3disk,1.139,-5,-6,1,0,0,rectangle,-5,-6,1,0,0,3,1,"[67,149,146,12,61,97,123,39,76,99]",-5,-6,1,0,0,0,39,39,27,1,DarkGreen,DarkGreen.jpg,DarkBlue,DarkBlue.jpg,,
,,,,,,,,,,,,,,,,,,-2,,,,,,,,,,,,,,,,,,,,,,,,,,,Joseph,001,2021-12-05_23h16.36.035,jm_natural_scene_simialrity_2-12-2021,2021.2.3,Win32,29.9940012,5e9e05878b2cf3198fe9dc1a,61ad71e11ddd29ccf7a27d5b,61ad7249130d4cd21c4e8f2f,,,,,-48,-27,1,0,0,response5disk,0.852,-4,-7,1,0,0,rectangle,-4,-7,1,0,0,3,-2,"[67,149,146,12,61,97,123,39,76,99]",-4,-7,1,0,0,0,40,40,59,1,Purple,Purple.jpg,Yellow,Yellow.jpg,,
,,,,,,,,,,,,,,,,,,4,,,,,,,,,,,,,,,,,,,,,,,,,,,Joseph,001,2021-12-05_23h16.36.035,jm_natural_scene_simialrity_2-12-2021,2021.2.3,Win32,29.9940012,5e9e05878b2cf3198fe9dc1a,61ad71e11ddd29ccf7a27d5b,61ad7249130d4cd21c4e8f2f,,,,,67,99,1,0,0,response1disk,0.809,6,-5,1,0,0,rectangle,6,-5,1,0,0,3,-3,"[67,149,146,12,61,97,123,39,76,99]",6,-5,1,0,0,0,41,41,39,1,DarkBlue,DarkBlue.jpg,DarkBlue,DarkBlue.jpg,,
,,,,,,,,,,,,,,,,,,-2,,,,,,,,,,,,,,,,,,,,,,,,,,,Joseph,001,2021-12-05_23h16.36.035,jm_natural_scene_simialrity_2-12-2021,2021.2.3,Win32,29.9940012,5e9e05878b2cf3198fe9dc1a,61ad71e11ddd29ccf7a27d5b,61ad7249130d4cd21c4e8f2f,,,,,-56,-25,1,0,0,response5disk,0.852,-19,-16,1,0,0,rectangle,-19,-16,1,0,0,3,-2,"[67,149,146,12,61,97,123,39,76,99]",-19,-16,1,0,0,0,42,42,61,1,Turquiose,Turquiose.jpg,LightGreen,LightGreen.jpg,,
,,,,,,,,,,,,,,,,,,-2,,,,,,,,,,,,,,,,,,,,,,,,,,,Joseph,001,2021-12-05_23h16.36.035,jm_natural_scene_simialrity_2-12-2021,2021.2.3,Win32,29.9940012,5e9e05878b2cf3198fe9dc1a,61ad71e11ddd29ccf7a27d5b,61ad7249130d4cd21c4e8f2f,,,,,-48,-21,1,0,0,response5disk,0.815,-5,-22,1,0,0,rectangle,-5,-22,1,0,0,3,1,"[67,149,146,12,61,97,123,39,76,99]",-5,-22,1,0,0,0,43,43,33,1,Turquiose,Turquiose.jpg,Pink,Pink.jpg,,
,,,,,,,,,,,,,,,,,,-2,,,,,,,,,,,,,,,,,,,,,,,,,,,Joseph,001,2021-12-05_23h16.36.035,jm_natural_scene_simialrity_2-12-2021,2021.2.3,Win32,29.9940012,5e9e05878b2cf3198fe9dc1a,61ad71e11ddd29ccf7a27d5b,61ad7249130d4cd21c4e8f2f,,,,,-44,-19,1,0,0,response5disk,0.83,-22,-18,1,0,0,rectangle,-22,-18,1,0,0,3,3,"[67,149,146,12,61,97,123,39,76,99]",-22,-18,1,0,0,0,44,44,80,1,Purple,Purple.jpg,Pink,Pink.jpg,,
,,,,,,,,,,,,,,,,,,2,,,,,,,,,,,,,,,,,,,,,,,,,,,Joseph,001,2021-12-05_23h16.36.035,jm_natural_scene_simialrity_2-12-2021,2021.2.3,Win32,29.9940012,5e9e05878b2cf3198fe9dc1a,61ad71e11ddd29ccf7a27d5b,61ad7249130d4cd21c4e8f2f,,,,,67,-22,1,0,0,response3disk,0.92,18,6,1,0,0,rectangle,18,6,1,0,0,3,1,"[67,149,146,12,61,97,123,39,76,99]",18,6,1,0,0,0,45,45,68,1,DarkBlue,DarkBlue.jpg,DarkGreen,DarkGreen.jpg,,
,,,,,,,,,,,,,,,,,,2,,,,,,,,,,,,,,,,,,,,,,,,,,,Joseph,001,2021-12-05_23h16.36.035,jm_natural_scene_simialrity_2-12-2021,2021.2.3,Win32,29.9940012,5e9e05878b2cf3198fe9dc1a,61ad71e11ddd29ccf7a27d5b,61ad7249130d4cd21c4e8f2f,,,,,79,-33,1,0,0,response3disk,1.265,0,-9,1,0,0,rectangle,0,-9,1,0,0,3,-1,"[67,149,146,12,61,97,123,39,76,99]",0,-9,1,0,0,0,46,46,75,1,DarkBlue,DarkBlue.jpg,LightBlue,LightBlue.jpg,,
,,,,,,,,,,,,,,,,,,2,,,,,,,,,,,,,,,,,,,,,,,,,,,Joseph,001,2021-12-05_23h16.36.035,jm_natural_scene_simialrity_2-12-2021,2021.2.3,Win32,29.9940012,5e9e05878b2cf3198fe9dc1a,61ad71e11ddd29ccf7a27d5b,61ad7249130d4cd21c4e8f2f,,,,,76,-47,1,0,0,response3disk,0.67,5,-24,1,0,0,rectangle,5,-24,1,0,0,3,1,"[67,149,146,12,61,97,123,39,76,99]",5,-24,1,0,0,0,47,47,79,1,Purple,Purple.jpg,DarkBlue,DarkBlue.jpg,,
,,,,,,,,,,,,,,,,,,-2,,,,,,,,,,,,,,,,,,,,,,,,,,,Joseph,001,2021-12-05_23h16.36.035,jm_natural_scene_simialrity_2-12-2021,2021.2.3,Win32,29.9940012,5e9e05878b2cf3198fe9dc1a,61ad71e11ddd29ccf7a27d5b,61ad7249130d4cd21c4e8f2f,,,,,-31,-24,1,0,0,response5disk,0.855,-2,-11,1,0,0,rectangle,-2,-11,1,0,0,3,1,"[67,149,146,12,61,97,123,39,76,99]",-2,-11,1,0,0,0,48,48,23,1,LightGreen,LightGreen.jpg,Purple,Purple.jpg,,
,,,,,,,,,,,,,,,,,,2,,,,,,,,,,,,,,,,,,,,,,,,,,,Joseph,001,2021-12-05_23h16.36.035,jm_natural_scene_simialrity_2-12-2021,2021.2.3,Win32,29.9940012,5e9e05878b2cf3198fe9dc1a,61ad71e11ddd29ccf7a27d5b,61ad7249130d4cd21c4e8f2f,,,,,69,-65,1,0,0,response3disk,1.533,11,10,1,0,0,rectangle,11,10,1,0,0,3,3,"[67,149,146,12,61,97,123,39,76,99]",11,10,1,0,0,0,49,49,49,1,LightBlue,LightBlue.jpg,Red,Red.jpg,,
,,,,,,,,,,,,,,,,,,-4,,,,,,,,,,,,,,,,,,,,,,,,,,,Joseph,001,2021-12-05_23h16.36.035,jm_natural_scene_simialrity_2-12-2021,2021.2.3,Win32,29.9940012,5e9e05878b2cf3198fe9dc1a,61ad71e11ddd29ccf7a27d5b,61ad7249130d4cd21c4e8f2f,,,,,-60,76,1,0,0,response7disk,1.441,-12,-11,1,0,0,rectangle,-12,-11,1,0,0,3,-3,"[67,149,146,12,61,97,123,39,76,99]",-12,-11,1,0,0,0,50,50,57,1,DarkBlue,DarkBlue.jpg,Yellow,Yellow.jpg,,
,,,,,,,,,,,,,,,,,,2,,,,,,,,,,,,,,,,,,,,,,,,,,,Joseph,001,2021-12-05_23h16.36.035,jm_natural_scene_simialrity_2-12-2021,2021.2.3,Win32,29.9940012,5e9e05878b2cf3198fe9dc1a,61ad71e11ddd29ccf7a27d5b,61ad7249130d4cd21c4e8f2f,,,,,58,-47,1,0,0,response3disk,1.668,-9,-3,1,0,0,rectangle,-9,-3,1,0,0,3,3,"[67,149,146,12,61,97,123,39,76,99]",-9,-3,1,0,0,0,51,51,48,1,Turquiose,Turquiose.jpg,Red,Red.jpg,,
,,,,,,,,,,,,,,,,,,4,,,,,,,,,,,,,,,,,,,,,,,,,,,Joseph,001,2021-12-05_23h16.36.035,jm_natural_scene_simialrity_2-12-2021,2021.2.3,Win32,29.9940012,5e9e05878b2cf3198fe9dc1a,61ad71e11ddd29ccf7a27d5b,61ad7249130d4cd21c4e8f2f,,,,,48,66,1,0,0,response1disk,0.739,-3,-2,1,0,0,rectangle,-3,-2,1,0,0,3,1,"[67,149,146,12,61,97,123,39,76,99]",-3,-2,1,0,0,0,52,52,51,1,Pink,Pink.jpg,Red,Red.jpg,,
,,,,,,,,,,,,,,,,,,-3,,,,,,,,,,,,,,,,,,,,,,,,,,,Joseph,001,2021-12-05_23h16.36.035,jm_natural_scene_simialrity_2-12-2021,2021.2.3,Win32,29.9940012,5e9e05878b2cf3198fe9dc1a,61ad71e11ddd29ccf7a27d5b,61ad7249130d4cd21c4e8f2f,,,,,-61,39,1,0,0,response7disk,1.297,-18,0,1,0,0,rectangle,-18,0,1,0,0,3,-3,"[67,149,146,12,61,97,123,39,76,99]",-18,0,1,0,0,0,53,53,16,1,Yellow,Yellow.jpg,Purple,Purple.jpg,,
,,,,,,,,,,,,,,,,,,-4,,,,,,,,,,,,,,,,,,,,,,,,,,,Joseph,001,2021-12-05_23h16.36.035,jm_natural_scene_simialrity_2-12-2021,2021.2.3,Win32,29.9940012,5e9e05878b2cf3198fe9dc1a,61ad71e11ddd29ccf7a27d5b,61ad7249130d4cd21c4e8f2f,,,,,-50,66,1,0,0,response7disk,1.328,-5,9,1,0,0,rectangle,-5,9,1,0,0,3,-4,"[67,149,146,12,61,97,123,39,76,99]",-5,9,1,0,0,0,54,54,62,1,LightBlue,LightBlue.jpg,LightGreen,LightGreen.jpg,,
,,,,,,,,,,,,,,,,,,1,,,,,,,,,,,,,,,,,,,,,,,,,,,Joseph,001,2021-12-05_23h16.36.035,jm_natural_scene_simialrity_2-12-2021,2021.2.3,Win32,29.9940012,5e9e05878b2cf3198fe9dc1a,61ad71e11ddd29ccf7a27d5b,61ad7249130d4cd21c4e8f2f,,,,,39,-81,1,0,0,response3disk,1.921,-18,-12,1,0,0,rectangle,-18,-12,1,0,0,3,-1,"[67,149,146,12,61,97,123,39,76,99]",-18,-12,1,0,0,0,55,55,1,1,Red,Red.jpg,Yellow,Yellow.jpg,,
,,,,,,,,,,,,,,,,,,-2,,,,,,,,,,,,,,,,,,,,,,,,,,,Joseph,001,2021-12-05_23h16.36.035,jm_natural_scene_simialrity_2-12-2021,2021.2.3,Win32,29.9940012,5e9e05878b2cf3198fe9dc1a,61ad71e11ddd29ccf7a27d5b,61ad7249130d4cd21c4e8f2f,,,,,-64,-42,1,0,0,response5disk,0.848,0,-3,1,0,0,rectangle,0,-3,1,0,0,3,3,"[67,149,146,12,61,97,123,39,76,99]",0,-3,1,0,0,0,56,56,10,1,Yellow,Yellow.jpg,LightGreen,LightGreen.jpg,,
,,,,,,,,,,,,,,,,,,-4,,,,,,,,,,,,,,,,,,,,,,,,,,,Joseph,001,2021-12-05_23h16.36.035,jm_natural_scene_simialrity_2-12-2021,2021.2.3,Win32,29.9940012,5e9e05878b2cf3198fe9dc1a,61ad71e11ddd29ccf7a27d5b,61ad7249130d4cd21c4e8f2f,,,,,-59,63,1,0,0,response7disk,1.11,-18,16,1,0,0,rectangle,-18,16,1,0,0,3,-1,"[67,149,146,12,61,97,123,39,76,99]",-18,16,1,0,0,0,57,57,78,1,Pink,Pink.jpg,DarkBlue,DarkBlue.jpg,,
,,,,,,,,,,,,,,,,,,4,,,,,,,,,,,,,,,,,,,,,,,,,,,Joseph,001,2021-12-05_23h16.36.035,jm_natural_scene_simialrity_2-12-2021,2021.2.3,Win32,29.9940012,5e9e05878b2cf3198fe9dc1a,61ad71e11ddd29ccf7a27d5b,61ad7249130d4cd21c4e8f2f,,,,,39,66,1,0,0,response1disk,0.662,-8,-21,1,0,0,rectangle,-8,-21,1,0,0,3,-1,"[67,149,146,12,61,97,123,39,76,99]",-8,-21,1,0,0,0,58,58,17,1,LightGreen,LightGreen.jpg,LightGreen,LightGreen.jpg,,
,,,,,,,,,,,,,,,,,,2,,,,,,,,,,,,,,,,,,,,,,,,,,,Joseph,001,2021-12-05_23h16.36.035,jm_natural_scene_simialrity_2-12-2021,2021.2.3,Win32,29.9940012,5e9e05878b2cf3198fe9dc1a,61ad71e11ddd29ccf7a27d5b,61ad7249130d4cd21c4e8f2f,,,,,111,-72,1,0,0,response3disk,1.096,-8,-12,1,0,0,rectangle,-8,-12,1,0,0,3,3,"[67,149,146,12,61,97,123,39,76,99]",-8,-12,1,0,0,0,59,59,74,1,Purple,Purple.jpg,Turquiose,Turquiose.jpg,,
,,,,,,,,,,,,,,,,,,3,,,,,,,,,,,,,,,,,,,,,,,,,,,Joseph,001,2021-12-05_23h16.36.035,jm_natural_scene_simialrity_2-12-2021,2021.2.3,Win32,29.9940012,5e9e05878b2cf3198fe9dc1a,61ad71e11ddd29ccf7a27d5b,61ad7249130d4cd21c4e8f2f,,,,,84,56,1,0,0,response1disk,0.733,-7,-3,1,0,0,rectangle,-90,34,1,0,0,-3,-3,"[67,149,146,12,61,97,123,39,76,99]",-16,-3,1,0,0,0,60,60,71,1,LightBlue,LightBlue.jpg,Turquiose,Turquiose.jpg,response7disk_3,rectangle
,,,,,,,,,,,,,,,,,,-3,,,,,,,,,,,,,,,,,,,,,,,,,,,Joseph,001,2021-12-05_23h16.36.035,jm_natural_scene_simialrity_2-12-2021,2021.2.3,Win32,29.9940012,5e9e05878b2cf3198fe9dc1a,61ad71e11ddd29ccf7a27d5b,61ad7249130d4cd21c4e8f2f,,,,,-69,31,1,0,0,response7disk,0.993,-1,-12,1,0,0,rectangle,-1,-12,1,0,0,-3,-2,"[67,149,146,12,61,97,123,39,76,99]",-1,-12,1,0,0,0,61,61,29,1,DarkGreen,DarkGreen.jpg,Purple,Purple.jpg,,
,,,,,,,,,,,,,,,,,,-3,,,,,,,,,,,,,,,,,,,,,,,,,,,Joseph,001,2021-12-05_23h16.36.035,jm_natural_scene_simialrity_2-12-2021,2021.2.3,Win32,29.9940012,5e9e05878b2cf3198fe9dc1a,61ad71e11ddd29ccf7a27d5b,61ad7249130d4cd21c4e8f2f,,,,,-68,32,1,0,0,response7disk,0.711,-18,-7,1,0,0,rectangle,-18,-7,1,0,0,-3,3,"[67,149,146,12,61,97,123,39,76,99]",-18,-7,1,0,0,0,62,62,6,1,Red,Red.jpg,DarkBlue,DarkBlue.jpg,,
,,,,,,,,,,,,,,,,,,-2,,,,,,,,,,,,,,,,,,,,,,,,,,,Joseph,001,2021-12-05_23h16.36.035,jm_natural_scene_simialrity_2-12-2021,2021.2.3,Win32,29.9940012,5e9e05878b2cf3198fe9dc1a,61ad71e11ddd29ccf7a27d5b,61ad7249130d4cd21c4e8f2f,,,,,-52,-43,1,0,0,response5disk,0.795,14,-16,1,0,0,rectangle,14,-16,1,0,0,-3,-2,"[67,149,146,12,61,97,123,39,76,99]",14,-16,1,0,0,0,63,63,52,1,Purple,Purple.jpg,Red,Red.jpg,,
,,,,,,,,,,,,,,,,,,4,,,,,,,,,,,,,,,,,,,,,,,,,,,Joseph,001,2021-12-05_23h16.36.035,jm_natural_scene_simialrity_2-12-2021,2021.2.3,Win32,29.9940012,5e9e05878b2cf3198fe9dc1a,61ad71e11ddd29ccf7a27d5b,61ad7249130d4cd21c4e8f2f,,,,,57,83,1,0,0,response1disk,0.911,19,17,1,0,0,rectangle,19,17,1,0,0,3,-1,"[67,149,146,12,61,97,123,39,76,99]",19,17,1,0,0,0,64,64,44,1,Purple,Purple.jpg,Purple,Purple.jpg,,
,,,,,,,,,,,,,,,,,,-4,,,,,,,,,,,,,,,,,,,,,,,,,,,Joseph,001,2021-12-05_23h16.36.035,jm_natural_scene_simialrity_2-12-2021,2021.2.3,Win32,29.9940012,5e9e05878b2cf3198fe9dc1a,61ad71e11ddd29ccf7a27d5b,61ad7249130d4cd21c4e8f2f,,,,,-42,77,1,0,0,response7disk,1.064,-5,7,1,0,0,rectangle,-5,7,1,0,0,3,1,"[67,149,146,12,61,97,123,39,76,99]",-5,7,1,0,0,0,65,65,13,1,Yellow,Yellow.jpg,LightBlue,LightBlue.jpg,,
,,,,,,,,,,,,,,,,,,3,,,,,,,,,,,,,,,,,,,,,,,,,,,Joseph,001,2021-12-05_23h16.36.035,jm_natural_scene_simialrity_2-12-2021,2021.2.3,Win32,29.9940012,5e9e05878b2cf3198fe9dc1a,61ad71e11ddd29ccf7a27d5b,61ad7249130d4cd21c4e8f2f,,,,,99,38,1,0,0,response1disk,1.081,19,1,1,0,0,rectangle,-86,50,1,0,0,-3,-3,"[67,149,146,12,61,97,123,39,76,99]",3,-1,1,0,0,0,66,66,31,1,Turquiose,Turquiose.jpg,LightBlue,LightBlue.jpg,response7disk_3,rectangle
,,,,,,,,,,,,,,,,,,-4,,,,,,,,,,,,,,,,,,,,,,,,,,,Joseph,001,2021-12-05_23h16.36.035,jm_natural_scene_simialrity_2-12-2021,2021.2.3,Win32,29.9940012,5e9e05878b2cf3198fe9dc1a,61ad71e11ddd29ccf7a27d5b,61ad7249130d4cd21c4e8f2f,,,,,-46,80,1,0,0,response7disk,1.215,-3,-16,1,0,0,rectangle,-3,-16,1,0,0,-3,-3,"[67,149,146,12,61,97,123,39,76,99]",-3,-16,1,0,0,0,67,67,2,1,Red,Red.jpg,LightGreen,LightGreen.jpg,,
,,,,,,,,,,,,,,,,,,4,,,,,,,,,,,,,,,,,,,,,,,,,,,Joseph,001,2021-12-05_23h16.36.035,jm_natural_scene_simialrity_2-12-2021,2021.2.3,Win32,29.9940012,5e9e05878b2cf3198fe9dc1a,61ad71e11ddd29ccf7a27d5b,61ad7249130d4cd21c4e8f2f,,,,,44,94,1,0,0,response1disk,0.883,7,19,1,0,0,rectangle,7,19,1,0,0,-3,2,"[67,149,146,12,61,97,123,39,76,99]",7,19,1,0,0,0,68,68,42,1,Pink,Pink.jpg,Pink,Pink.jpg,,
,,,,,,,,,,,,,,,,,,-4,,,,,,,,,,,,,,,,,,,,,,,,,,,Joseph,001,2021-12-05_23h16.36.035,jm_natural_scene_simialrity_2-12-2021,2021.2.3,Win32,29.9940012,5e9e05878b2cf3198fe9dc1a,61ad71e11ddd29ccf7a27d5b,61ad7249130d4cd21c4e8f2f,,,,,-34,87,1,0,0,response7disk,1.187,-4,17,1,0,0,rectangle,-4,17,1,0,0,-3,-1,"[67,149,146,12,61,97,123,39,76,99]",-4,17,1,0,0,0,69,69,28,1,DarkGreen,DarkGreen.jpg,Pink,Pink.jpg,,
,,,,,,,,,,,,,,,,,,-2,,,,,,,,,,,,,,,,,,,,,,,,,,,Joseph,001,2021-12-05_23h16.36.035,jm_natural_scene_simialrity_2-12-2021,2021.2.3,Win32,29.9940012,5e9e05878b2cf3198fe9dc1a,61ad71e11ddd29ccf7a27d5b,61ad7249130d4cd21c4e8f2f,,,,,-85,-33,1,0,0,response5disk,1.342,-17,-25,1,0,0,rectangle,-17,-25,1,0,0,-1,2,"[67,149,146,12,61,97,123,39,76,99]",-17,-25,1,0,0,0,70,70,4,1,Red,Red.jpg,Turquiose,Turquiose.jpg,,
,,,,,,,,,,,,,,,,,,-4,,,,,,,,,,,,,,,,,,,,,,,,,,,Joseph,001,2021-12-05_23h16.36.035,jm_natural_scene_simialrity_2-12-2021,2021.2.3,Win32,29.9940012,5e9e05878b2cf3198fe9dc1a,61ad71e11ddd29ccf7a27d5b,61ad7249130d4cd21c4e8f2f,,,,,-26,79,1,0,0,response7disk,1.865,5,-15,1,0,0,rectangle,5,-15,1,0,0,-1,-2,"[67,149,146,12,61,97,123,39,76,99]",5,-15,1,0,0,0,71,71,47,1,DarkGreen,DarkGreen.jpg,Red,Red.jpg,,
,,,,,,,,,,,,,,,,,,-1,,,,,,,,,,,,,,,,,,,,,,,,,,,Joseph,001,2021-12-05_23h16.36.035,jm_natural_scene_simialrity_2-12-2021,2021.2.3,Win32,29.9940012,5e9e05878b2cf3198fe9dc1a,61ad71e11ddd29ccf7a27d5b,61ad7249130d4cd21c4e8f2f,,,,,-22,-89,1,0,0,response5disk,1.604,10,-17,1,0,0,rectangle,10,-17,1,0,0,-1,-1,"[67,149,146,12,61,97,123,39,76,99]",10,-17,1,0,0,0,72,72,65,1,Purple,Purple.jpg,LightGreen,LightGreen.jpg,,
,,,,,,,,,,,,,,,,,,-3,,,,,,,,,,,,,,,,,,,,,,,,,,,Joseph,001,2021-12-05_23h16.36.035,jm_natural_scene_simialrity_2-12-2021,2021.2.3,Win32,29.9940012,5e9e05878b2cf3198fe9dc1a,61ad71e11ddd29ccf7a27d5b,61ad7249130d4cd21c4e8f2f,,,,,-84,57,1,0,0,response7disk,1.635,-7,6,1,0,0,rectangle,-7,6,1,0,0,-1,-1,"[67,149,146,12,61,97,123,39,76,99]",-7,6,1,0,0,0,73,73,73,1,Pink,Pink.jpg,Turquiose,Turquiose.jpg,,
,,,,,,,,,,,,,,,,,,-3,,,,,,,,,,,,,,,,,,,,,,,,,,,Joseph,001,2021-12-05_23h16.36.035,jm_natural_scene_simialrity_2-12-2021,2021.2.3,Win32,29.9940012,5e9e05878b2cf3198fe9dc1a,61ad71e11ddd29ccf7a27d5b,61ad7249130d4cd21c4e8f2f,,,,,-87,61,1,0,0,response7disk,0.912,-8,9,1,0,0,rectangle,-8,9,1,0,0,-1,2,"[67,149,146,12,61,97,123,39,76,99]",-8,9,1,0,0,0,74,74,54,1,DarkGreen,DarkGreen.jpg,Yellow,Yellow.jpg,,
,,,,,,,,,,,,,,,,,,-3,,,,,,,,,,,,,,,,,,,,,,,,,,,Joseph,001,2021-12-05_23h16.36.035,jm_natural_scene_simialrity_2-12-2021,2021.2.3,Win32,29.9940012,5e9e05878b2cf3198fe9dc1a,61ad71e11ddd29ccf7a27d5b,61ad7249130d4cd21c4e8f2f,,,,,-62,43,1,0,0,response7disk,0.68,2,1,1,0,0,rectangle,-29,-91,1,0,0,-1,-1,"[67,149,146,12,61,97,123,39,76,99]",6,-19,1,0,0,0,75,75,66,1,Turquiose,Turquiose.jpg,DarkGreen,DarkGreen.jpg,response5disk_3,rectangle
,,,,,,,,,,,,,,,,,,3,,,,,,,,,,,,,,,,,,,,,,,,,,,Joseph,001,2021-12-05_23h16.36.035,jm_natural_scene_simialrity_2-12-2021,2021.2.3,Win32,29.9940012,5e9e05878b2cf3198fe9dc1a,61ad71e11ddd29ccf7a27d5b,61ad7249130d4cd21c4e8f2f,,,,,95,27,1,0,0,response1disk,1.419,-11,9,1,0,0,rectangle,-11,9,1,0,0,-1,1,"[67,149,146,12,61,97,123,39,76,99]",-11,9,1,0,0,0,76,76,41,1,DarkBlue,DarkBlue.jpg,Purple,Purple.jpg,,
,,,,,,,,,,,,,,,,,,4,,,,,,,,,,,,,,,,,,,,,,,,,,,Joseph,001,2021-12-05_23h16.36.035,jm_natural_scene_simialrity_2-12-2021,2021.2.3,Win32,29.9940012,5e9e05878b2cf3198fe9dc1a,61ad71e11ddd29ccf7a27d5b,61ad7249130d4cd21c4e8f2f,,,,,29,90,1,0,0,response1disk,0.782,-9,-4,1,0,0,rectangle,-9,-4,1,0,0,-1,3,"[67,149,146,12,61,97,123,39,76,99]",-9,-4,1,0,0,0,77,77,0,1,Red,Red.jpg,Red,Red.jpg,,
,,,,,,,,,,,,,,,,,,4,,,,,,,,,,,,,,,,,,,,,,,,,,,Joseph,001,2021-12-05_23h16.36.035,jm_natural_scene_simialrity_2-12-2021,2021.2.3,Win32,29.9940012,5e9e05878b2cf3198fe9dc1a,61ad71e11ddd29ccf7a27d5b,61ad7249130d4cd21c4e8f2f,,,,,39,74,1,0,0,response1disk,0.797,3,-10,1,0,0,rectangle,3,-10,1,0,0,-1,1,"[67,149,146,12,61,97,123,39,76,99]",3,-10,1,0,0,0,78,78,15,1,Yellow,Yellow.jpg,Pink,Pink.jpg,,
,,,,,,,,,,,,,,,,,,-3,,,,,,,,,,,,,,,,,,,,,,,,,,,Joseph,001,2021-12-05_23h16.36.035,jm_natural_scene_simialrity_2-12-2021,2021.2.3,Win32,29.9940012,5e9e05878b2cf3198fe9dc1a,61ad71e11ddd29ccf7a27d5b,61ad7249130d4cd21c4e8f2f,,,,,-62,61,1,0,0,response7disk,1.592,-3,19,1,0,0,rectangle,-3,19,1,0,0,-1,2,"[67,149,146,12,61,97,123,39,76,99]",-3,19,1,0,0,0,79,79,26,1,DarkGreen,DarkGreen.jpg,LightBlue,LightBlue.jpg,,
,,,,,,,,,,,,,,,,,,-4,,,,,,,,,,,,,,,,,,,,,,,,,,,Joseph,001,2021-12-05_23h16.36.035,jm_natural_scene_simialrity_2-12-2021,2021.2.3,Win32,29.9940012,5e9e05878b2cf3198fe9dc1a,61ad71e11ddd29ccf7a27d5b,61ad7249130d4cd21c4e8f2f,,,,,-58,79,1,0,0,response7disk,0.962,-23,21,1,0,0,rectangle,-23,21,1,0,0,-3,1,"[67,149,146,12,61,97,123,39,76,99]",-23,21,1,0,0,0,80,80,12,1,Yellow,Yellow.jpg,Turquiose,Turquiose.jpg,,
,,,,,,,,,,,,,,,,,,3,,,,,,,,,,,,,,,,,,,,,,,,,,,Joseph,001,2021-12-05_23h16.36.035,jm_natural_scene_simialrity_2-12-2021,2021.2.3,Win32,29.9940012,5e9e05878b2cf3198fe9dc1a,61ad71e11ddd29ccf7a27d5b,61ad7249130d4cd21c4e8f2f,,,,,97,54,1,0,0,response1disk,0.885,9,0,1,0,0,rectangle,9,0,1,0,0,-3,2,"[67,149,146,12,61,97,123,39,76,99]",9,0,1,0,0,1,0,81,60,1,DarkGreen,DarkGreen.jpg,LightGreen,LightGreen.jpg,,
,,,,,,,,,,,,,,,,,,-2,,,,,,,,,,,,,,,,,,,,,,,,,,,Joseph,001,2021-12-05_23h16.36.035,jm_natural_scene_simialrity_2-12-2021,2021.2.3,Win32,29.9940012,5e9e05878b2cf3198fe9dc1a,61ad71e11ddd29ccf7a27d5b,61ad7249130d4cd21c4e8f2f,,,,,-112,-46,1,0,0,response5disk,1.386,7,3,1,0,0,rectangle,7,3,1,0,0,-3,1,"[67,149,146,12,61,97,123,39,76,99]",7,3,1,0,0,1,1,82,48,1,Turquiose,Turquiose.jpg,Red,Red.jpg,,
,,,,,,,,,,,,,,,,,,-3,,,,,,,,,,,,,,,,,,,,,,,,,,,Joseph,001,2021-12-05_23h16.36.035,jm_natural_scene_simialrity_2-12-2021,2021.2.3,Win32,29.9940012,5e9e05878b2cf3198fe9dc1a,61ad71e11ddd29ccf7a27d5b,61ad7249130d4cd21c4e8f2f,,,,,-95,33,1,0,0,response7disk,1.519,0,-5,1,0,0,rectangle,0,-5,1,0,0,-3,1,"[67,149,146,12,61,97,123,39,76,99]",0,-5,1,0,0,1,2,83,46,1,LightGreen,LightGreen.jpg,Red,Red.jpg,,
,,,,,,,,,,,,,,,,,,4,,,,,,,,,,,,,,,,,,,,,,,,,,,Joseph,001,2021-12-05_23h16.36.035,jm_natural_scene_simialrity_2-12-2021,2021.2.3,Win32,29.9940012,5e9e05878b2cf3198fe9dc1a,61ad71e11ddd29ccf7a27d5b,61ad7249130d4cd21c4e8f2f,,,,,51,114,1,0,0,response1disk,0.752,4,20,1,0,0,rectangle,4,20,1,0,0,-3,-3,"[67,149,146,12,61,97,123,39,76,99]",4,20,1,0,0,1,3,84,42,1,Pink,Pink.jpg,Pink,Pink.jpg,,
,,,,,,,,,,,,,,,,,,-4,,,,,,,,,,,,,,,,,,,,,,,,,,,Joseph,001,2021-12-05_23h16.36.035,jm_natural_scene_simialrity_2-12-2021,2021.2.3,Win32,29.9940012,5e9e05878b2cf3198fe9dc1a,61ad71e11ddd29ccf7a27d5b,61ad7249130d4cd21c4e8f2f,,,,,-64,72,1,0,0,response7disk,1.107,2,10,1,0,0,rectangle,2,10,1,0,0,-3,1,"[67,149,146,12,61,97,123,39,76,99]",2,10,1,0,0,1,4,85,14,1,Yellow,Yellow.jpg,DarkBlue,DarkBlue.jpg,,
,,,,,,,,,,,,,,,,,,-4,,,,,,,,,,,,,,,,,,,,,,,,,,,Joseph,001,2021-12-05_23h16.36.035,jm_natural_scene_simialrity_2-12-2021,2021.2.3,Win32,29.9940012,5e9e05878b2cf3198fe9dc1a,61ad71e11ddd29ccf7a27d5b,61ad7249130d4cd21c4e8f2f,,,,,-64,69,1,0,0,response7disk,1.268,-14,6,1,0,0,rectangle,-14,6,1,0,0,-3,-1,"[67,149,146,12,61,97,123,39,76,99]",-14,6,1,0,0,1,5,86,23,1,LightGreen,LightGreen.jpg,Purple,Purple.jpg,,
,,,,,,,,,,,,,,,,,,-3,,,,,,,,,,,,,,,,,,,,,,,,,,,Joseph,001,2021-12-05_23h16.36.035,jm_natural_scene_simialrity_2-12-2021,2021.2.3,Win32,29.9940012,5e9e05878b2cf3198fe9dc1a,61ad71e11ddd29ccf7a27d5b,61ad7249130d4cd21c4e8f2f,,,,,-86,51,1,0,0,response7disk,0.866,2,-16,1,0,0,rectangle,2,-16,1,0,0,-3,2,"[67,149,146,12,61,97,123,39,76,99]",2,-16,1,0,0,1,6,87,66,1,Turquiose,Turquiose.jpg,DarkGreen,DarkGreen.jpg,,
,,,,,,,,,,,,,,,,,,3,,,,,,,,,,,,,,,,,,,,,,,,,,,Joseph,001,2021-12-05_23h16.36.035,jm_natural_scene_simialrity_2-12-2021,2021.2.3,Win32,29.9940012,5e9e05878b2cf3198fe9dc1a,61ad71e11ddd29ccf7a27d5b,61ad7249130d4cd21c4e8f2f,,,,,106,65,1,0,0,response1disk,1.184,20,-1,1,0,0,rectangle,20,-1,1,0,0,-3,3,"[67,149,146,12,61,97,123,39,76,99]",20,-1,1,0,0,1,7,88,58,1,Pink,Pink.jpg,Yellow,Yellow.jpg,,
,,,,,,,,,,,,,,,,,,3,,,,,,,,,,,,,,,,,,,,,,,,,,,Joseph,001,2021-12-05_23h16.36.035,jm_natural_scene_simialrity_2-12-2021,2021.2.3,Win32,29.9940012,5e9e05878b2cf3198fe9dc1a,61ad71e11ddd29ccf7a27d5b,61ad7249130d4cd21c4e8f2f,,,,,79,49,1,0,0,response1disk,1.182,-5,-4,1,0,0,rectangle,-5,-4,1,0,0,-3,-4,"[67,149,146,12,61,97,123,39,76,99]",-5,-4,1,0,0,1,8,89,72,1,DarkBlue,DarkBlue.jpg,Turquiose,Turquiose.jpg,,
,,,,,,,,,,,,,,,,,,-3,,,,,,,,,,,,,,,,,,,,,,,,,,,Joseph,001,2021-12-05_23h16.36.035,jm_natural_scene_simialrity_2-12-2021,2021.2.3,Win32,29.9940012,5e9e05878b2cf3198fe9dc1a,61ad71e11ddd29ccf7a27d5b,61ad7249130d4cd21c4e8f2f,,,,,-43,36,1,0,0,response7disk,2.492,-12,4,1,0,0,rectangle,-12,4,1,0,0,-3,-3,"[67,149,146,12,61,97,123,39,76,99]",-12,4,1,0,0,1,9,90,13,1,Yellow,Yellow.jpg,LightBlue,LightBlue.jpg,,
,,,,,,,,,,,,,,,,,,-4,,,,,,,,,,,,,,,,,,,,,,,,,,,Joseph,001,2021-12-05_23h16.36.035,jm_natural_scene_simialrity_2-12-2021,2021.2.3,Win32,29.9940012,5e9e05878b2cf3198fe9dc1a,61ad71e11ddd29ccf7a27d5b,61ad7249130d4cd21c4e8f2f,,,,,-57,92,1,0,0,response7disk,1.214,-4,2,1,0,0,rectangle,-4,2,1,0,0,-3,2,"[67,149,146,12,61,97,123,39,76,99]",-4,2,1,0,0,1,10,91,26,1,DarkGreen,DarkGreen.jpg,LightBlue,LightBlue.jpg,,
,,,,,,,,,,,,,,,,,,-3,,,,,,,,,,,,,,,,,,,,,,,,,,,Joseph,001,2021-12-05_23h16.36.035,jm_natural_scene_simialrity_2-12-2021,2021.2.3,Win32,29.9940012,5e9e05878b2cf3198fe9dc1a,61ad71e11ddd29ccf7a27d5b,61ad7249130d4cd21c4e8f2f,,,,,-64,30,1,0,0,response7disk,0.935,-13,-9,1,0,0,rectangle,-13,-9,1,0,0,-3,1,"[67,149,146,12,61,97,123,39,76,99]",-13,-9,1,0,0,1,11,92,4,1,Red,Red.jpg,Turquiose,Turquiose.jpg,,
,,,,,,,,,,,,,,,,,,-4,,,,,,,,,,,,,,,,,,,,,,,,,,,Joseph,001,2021-12-05_23h16.36.035,jm_natural_scene_simialrity_2-12-2021,2021.2.3,Win32,29.9940012,5e9e05878b2cf3198fe9dc1a,61ad71e11ddd29ccf7a27d5b,61ad7249130d4cd21c4e8f2f,,,,,-53,107,1,0,0,response7disk,1.908,-11,7,1,0,0,rectangle,-11,7,1,0,0,-3,3,"[67,149,146,12,61,97,123,39,76,99]",-11,7,1,0,0,1,12,93,53,1,LightGreen,LightGreen.jpg,Yellow,Yellow.jpg,,
,,,,,,,,,,,,,,,,,,3,,,,,,,,,,,,,,,,,,,,,,,,,,,Joseph,001,2021-12-05_23h16.36.035,jm_natural_scene_simialrity_2-12-2021,2021.2.3,Win32,29.9940012,5e9e05878b2cf3198fe9dc1a,61ad71e11ddd29ccf7a27d5b,61ad7249130d4cd21c4e8f2f,,,,,67,62,1,0,0,response1disk,0.578,18,20,1,0,0,rectangle,18,20,1,0,0,4,-2,"[67,149,146,12,61,97,123,39,76,99]",18,20,1,0,0,1,13,94,0,1,Red,Red.jpg,Red,Red.jpg,,
,,,,,,,,,,,,,,,,,,-3,,,,,,,,,,,,,,,,,,,,,,,,,,,Joseph,001,2021-12-05_23h16.36.035,jm_natural_scene_simialrity_2-12-2021,2021.2.3,Win32,29.9940012,5e9e05878b2cf3198fe9dc1a,61ad71e11ddd29ccf7a27d5b,61ad7249130d4cd21c4e8f2f,,,,,-71,19,1,0,0,response7disk,1.751,-8,-7,1,0,0,rectangle,-8,-7,1,0,0,4,-4,"[67,149,146,12,61,97,123,39,76,99]",-8,-7,1,0,0,1,14,95,69,1,Pink,Pink.jpg,DarkGreen,DarkGreen.jpg,,
,,,,,,,,,,,,,,,,,,-4,,,,,,,,,,,,,,,,,,,,,,,,,,,Joseph,001,2021-12-05_23h16.36.035,jm_natural_scene_simialrity_2-12-2021,2021.2.3,Win32,29.9940012,5e9e05878b2cf3198fe9dc1a,61ad71e11ddd29ccf7a27d5b,61ad7249130d4cd21c4e8f2f,,,,,-30,102,1,0,0,response7disk,1.138,1,11,1,0,0,rectangle,-85,30,1,0,0,-3,-3,"[67,149,146,12,61,97,123,39,76,99]",4,13,1,0,0,1,15,96,5,1,Red,Red.jpg,LightBlue,LightBlue.jpg,response7disk_3,rectangle
,,,,,,,,,,,,,,,,,,4,,,,,,,,,,,,,,,,,,,,,,,,,,,Joseph,001,2021-12-05_23h16.36.035,jm_natural_scene_simialrity_2-12-2021,2021.2.3,Win32,29.9940012,5e9e05878b2cf3198fe9dc1a,61ad71e11ddd29ccf7a27d5b,61ad7249130d4cd21c4e8f2f,,,,,38,75,1,0,0,response1disk,1.071,23,4,1,0,0,rectangle,23,4,1,0,0,-3,-2,"[67,149,146,12,61,97,123,39,76,99]",23,4,1,0,0,1,16,97,9,1,Yellow,Yellow.jpg,Yellow,Yellow.jpg,,
,,,,,,,,,,,,,,,,,,4,,,,,,,,,,,,,,,,,,,,,,,,,,,Joseph,001,2021-12-05_23h16.36.035,jm_natural_scene_simialrity_2-12-2021,2021.2.3,Win32,29.9940012,5e9e05878b2cf3198fe9dc1a,61ad71e11ddd29ccf7a27d5b,61ad7249130d4cd21c4e8f2f,,,,,43,89,1,0,0,response1disk,0.749,18,5,1,0,0,rectangle,-85,44,1,0,0,-3,-3,"[67,149,146,12,61,97,123,39,76,99]",-13,18,1,0,0,1,17,98,24,1,DarkGreen,DarkGreen.jpg,DarkGreen,DarkGreen.jpg,response7disk_3,rectangle
,,,,,,,,,,,,,,,,,,3,,,,,,,,,,,,,,,,,,,,,,,,,,,Joseph,001,2021-12-05_23h16.36.035,jm_natural_scene_simialrity_2-12-2021,2021.2.3,Win32,29.9940012,5e9e05878b2cf3198fe9dc1a,61ad71e11ddd29ccf7a27d5b,61ad7249130d4cd21c4e8f2f,,,,,33,30,1,0,0,response1disk,0.876,-8,-14,1,0,0,rectangle,-8,-14,1,0,0,-3,-2,"[67,149,146,12,61,97,123,39,76,99]",-8,-14,1,0,0,1,18,99,2,1,Red,Red.jpg,LightGreen,LightGreen.jpg,,
,,,,,,,,,,,,,,,,,,-4,,,,,,,,,,,,,,,,,,,,,,,,,,,Joseph,001,2021-12-05_23h16.36.035,jm_natural_scene_simialrity_2-12-2021,2021.2.3,Win32,29.9940012,5e9e05878b2cf3198fe9dc1a,61ad71e11ddd29ccf7a27d5b,61ad7249130d4cd21c4e8f2f,,,,,-56,84,1,0,0,response7disk,0.935,-2,-3,1,0,0,rectangle,-2,-3,1,0,0,-3,1,"[67,149,146,12,61,97,123,39,76,99]",-2,-3,1,0,0,1,19,100,61,1,Turquiose,Turquiose.jpg,LightGreen,LightGreen.jpg,,
,,,,,,,,,,,,,,,,,,-4,,,,,,,,,,,,,,,,,,,,,,,,,,,Joseph,001,2021-12-05_23h16.36.035,jm_natural_scene_simialrity_2-12-2021,2021.2.3,Win32,29.9940012,5e9e05878b2cf3198fe9dc1a,61ad71e11ddd29ccf7a27d5b,61ad7249130d4cd21c4e8f2f,,,,,-31,85,1,0,0,response7disk,0.773,12,17,1,0,0,rectangle,12,17,1,0,0,-3,2,"[67,149,146,12,61,97,123,39,76,99]",12,17,1,0,0,1,20,101,50,1,DarkBlue,DarkBlue.jpg,Red,Red.jpg,,
,,,,,,,,,,,,,,,,,,-4,,,,,,,,,,,,,,,,,,,,,,,,,,,Joseph,001,2021-12-05_23h16.36.035,jm_natural_scene_simialrity_2-12-2021,2021.2.3,Win32,29.9940012,5e9e05878b2cf3198fe9dc1a,61ad71e11ddd29ccf7a27d5b,61ad7249130d4cd21c4e8f2f,,,,,-38,85,1,0,0,response7disk,0.568,13,0,1,0,0,rectangle,13,0,1,0,0,-3,1,"[67,149,146,12,61,97,123,39,76,99]",13,0,1,0,0,1,21,102,57,1,DarkBlue,DarkBlue.jpg,Yellow,Yellow.jpg,,
,,,,,,,,,,,,,,,,,,-4,,,,,,,,,,,,,,,,,,,,,,,,,,,Joseph,001,2021-12-05_23h16.36.035,jm_natural_scene_simialrity_2-12-2021,2021.2.3,Win32,29.9940012,5e9e05878b2cf3198fe9dc1a,61ad71e11ddd29ccf7a27d5b,61ad7249130d4cd21c4e8f2f,,,,,-69,84,1,0,0,response7disk,0.752,-1,-5,1,0,0,rectangle,-1,-5,1,0,0,-3,2,"[67,149,146,12,61,97,123,39,76,99]",-1,-5,1,0,0,1,22,103,78,1,Pink,Pink.jpg,DarkBlue,DarkBlue.jpg,,
,,,,,,,,,,,,,,,,,,-3,,,,,,,,,,,,,,,,,,,,,,,,,,,Joseph,001,2021-12-05_23h16.36.035,jm_natural_scene_simialrity_2-12-2021,2021.2.3,Win32,29.9940012,5e9e05878b2cf3198fe9dc1a,61ad71e11ddd29ccf7a27d5b,61ad7249130d4cd21c4e8f2f,,,,,-68,46,1,0,0,response7disk,0.994,-4,-4,1,0,0,rectangle,-4,-4,1,0,0,-3,3,"[67,149,146,12,61,97,123,39,76,99]",-4,-4,1,0,0,1,23,104,16,1,Yellow,Yellow.jpg,Purple,Purple.jpg,,
,,,,,,,,,,,,,,,,,,-3,,,,,,,,,,,,,,,,,,,,,,,,,,,Joseph,001,2021-12-05_23h16.36.035,jm_natural_scene_simialrity_2-12-2021,2021.2.3,Win32,29.9940012,5e9e05878b2cf3198fe9dc1a,61ad71e11ddd29ccf7a27d5b,61ad7249130d4cd21c4e8f2f,,,,,-67,45,1,0,0,response7disk,0.868,15,-17,1,0,0,rectangle,15,-17,1,0,0,-3,2,"[67,149,146,12,61,97,123,39,76,99]",15,-17,1,0,0,1,24,105,54,1,DarkGreen,DarkGreen.jpg,Yellow,Yellow.jpg,,
,,,,,,,,,,,,,,,,,,4,,,,,,,,,,,,,,,,,,,,,,,,,,,Joseph,001,2021-12-05_23h16.36.035,jm_natural_scene_simialrity_2-12-2021,2021.2.3,Win32,29.9940012,5e9e05878b2cf3198fe9dc1a,61ad71e11ddd29ccf7a27d5b,61ad7249130d4cd21c4e8f2f,,,,,52,91,1,0,0,response1disk,0.607,6,0,1,0,0,rectangle,6,0,1,0,0,-3,1,"[67,149,146,12,61,97,123,39,76,99]",6,0,1,0,0,1,25,106,30,1,Turquiose,Turquiose.jpg,Turquiose,Turquiose.jpg,,
,,,,,,,,,,,,,,,,,,-4,,,,,,,,,,,,,,,,,,,,,,,,,,,Joseph,001,2021-12-05_23h16.36.035,jm_natural_scene_simialrity_2-12-2021,2021.2.3,Win32,29.9940012,5e9e05878b2cf3198fe9dc1a,61ad71e11ddd29ccf7a27d5b,61ad7249130d4cd21c4e8f2f,,,,,-62,67,1,0,0,response7disk,1.062,-8,-22,1,0,0,rectangle,-8,-22,1,0,0,-3,-3,"[67,149,146,12,61,97,123,39,76,99]",-8,-22,1,0,0,1,26,107,55,1,Turquiose,Turquiose.jpg,Yellow,Yellow.jpg,,
,,,,,,,,,,,,,,,,,,2,,,,,,,,,,,,,,,,,,,,,,,,,,,Joseph,001,2021-12-05_23h16.36.035,jm_natural_scene_simialrity_2-12-2021,2021.2.3,Win32,29.9940012,5e9e05878b2cf3198fe9dc1a,61ad71e11ddd29ccf7a27d5b,61ad7249130d4cd21c4e8f2f,,,,,83,-33,1,0,0,response3disk,1.854,-13,8,1,0,0,rectangle,-13,8,1,0,0,-3,-2,"[67,149,146,12,61,97,123,39,76,99]",-13,8,1,0,0,1,27,108,32,1,Turquiose,Turquiose.jpg,DarkBlue,DarkBlue.jpg,,
,,,,,,,,,,,,,,,,,,-3,,,,,,,,,,,,,,,,,,,,,,,,,,,Joseph,001,2021-12-05_23h16.36.035,jm_natural_scene_simialrity_2-12-2021,2021.2.3,Win32,29.9940012,5e9e05878b2cf3198fe9dc1a,61ad71e11ddd29ccf7a27d5b,61ad7249130d4cd21c4e8f2f,,,,,-60,47,1,0,0,response7disk,1.221,0,-1,1,0,0,rectangle,0,-1,1,0,0,-3,-3,"[67,149,146,12,61,97,123,39,76,99]",0,-1,1,0,0,1,28,109,62,1,LightBlue,LightBlue.jpg,LightGreen,LightGreen.jpg,,
,,,,,,,,,,,,,,,,,,3,,,,,,,,,,,,,,,,,,,,,,,,,,,Joseph,001,2021-12-05_23h16.36.035,jm_natural_scene_simialrity_2-12-2021,2021.2.3,Win32,29.9940012,5e9e05878b2cf3198fe9dc1a,61ad71e11ddd29ccf7a27d5b,61ad7249130d4cd21c4e8f2f,,,,,88,41,1,0,0,response1disk,1.063,-2,5,1,0,0,rectangle,-2,5,1,0,0,-3,3,"[67,149,146,12,61,97,123,39,76,99]",-2,5,1,0,0,1,29,110,51,1,Pink,Pink.jpg,Red,Red.jpg,,
,,,,,,,,,,,,,,,,,,3,,,,,,,,,,,,,,,,,,,,,,,,,,,Joseph,001,2021-12-05_23h16.36.035,jm_natural_scene_simialrity_2-12-2021,2021.2.3,Win32,29.9940012,5e9e05878b2cf3198fe9dc1a,61ad71e11ddd29ccf7a27d5b,61ad7249130d4cd21c4e8f2f,,,,,60,22,1,0,0,response1disk,0.928,4,-18,1,0,0,rectangle,4,-18,1,0,0,-3,-3,"[67,149,146,12,61,97,123,39,76,99]",4,-18,1,0,0,1,30,111,7,1,Red,Red.jpg,Pink,Pink.jpg,,
,,,,,,,,,,,,,,,,,,4,,,,,,,,,,,,,,,,,,,,,,,,,,,Joseph,001,2021-12-05_23h16.36.035,jm_natural_scene_simialrity_2-12-2021,2021.2.3,Win32,29.9940012,5e9e05878b2cf3198fe9dc1a,61ad71e11ddd29ccf7a27d5b,61ad7249130d4cd21c4e8f2f,,,,,42,81,1,0,0,response1disk,0.937,-3,12,1,0,0,rectangle,-3,12,1,0,0,-3,1,"[67,149,146,12,61,97,123,39,76,99]",-3,12,1,0,0,1,31,112,77,1,Purple,Purple.jpg,LightBlue,LightBlue.jpg,,
,,,,,,,,,,,,,,,,,,4,,,,,,,,,,,,,,,,,,,,,,,,,,,Joseph,001,2021-12-05_23h16.36.035,jm_natural_scene_simialrity_2-12-2021,2021.2.3,Win32,29.9940012,5e9e05878b2cf3198fe9dc1a,61ad71e11ddd29ccf7a27d5b,61ad7249130d4cd21c4e8f2f,,,,,28,57,1,0,0,response1disk,0.512,-11,-13,1,0,0,rectangle,-11,-13,1,0,0,-3,-2,"[67,149,146,12,61,97,123,39,76,99]",-11,-13,1,0,0,1,32,113,35,1,LightBlue,LightBlue.jpg,LightBlue,LightBlue.jpg,,
,,,,,,,,,,,,,,,,,,4,,,,,,,,,,,,,,,,,,,,,,,,,,,Joseph,001,2021-12-05_23h16.36.035,jm_natural_scene_simialrity_2-12-2021,2021.2.3,Win32,29.9940012,5e9e05878b2cf3198fe9dc1a,61ad71e11ddd29ccf7a27d5b,61ad7249130d4cd21c4e8f2f,,,,,37,67,1,0,0,response1disk,0.727,5,6,1,0,0,rectangle,5,6,1,0,0,-3,-3,"[67,149,146,12,61,97,123,39,76,99]",5,6,1,0,0,1,33,114,44,1,Purple,Purple.jpg,Purple,Purple.jpg,,
,,,,,,,,,,,,,,,,,,4,,,,,,,,,,,,,,,,,,,,,,,,,,,Joseph,001,2021-12-05_23h16.36.035,jm_natural_scene_simialrity_2-12-2021,2021.2.3,Win32,29.9940012,5e9e05878b2cf3198fe9dc1a,61ad71e11ddd29ccf7a27d5b,61ad7249130d4cd21c4e8f2f,,,,,42,78,1,0,0,response1disk,0.666,3,-21,1,0,0,rectangle,3,-21,1,0,0,-3,-2,"[67,149,146,12,61,97,123,39,76,99]",3,-21,1,0,0,1,34,115,39,1,DarkBlue,DarkBlue.jpg,DarkBlue,DarkBlue.jpg,,
,,,,,,,,,,,,,,,,,,-4,,,,,,,,,,,,,,,,,,,,,,,,,,,Joseph,001,2021-12-05_23h16.36.035,jm_natural_scene_simialrity_2-12-2021,2021.2.3,Win32,29.9940012,5e9e05878b2cf3198fe9dc1a,61ad71e11ddd29ccf7a27d5b,61ad7249130d4cd21c4e8f2f,,,,,-46,114,1,0,0,response7disk,1.324,11,-14,1,0,0,rectangle,11,-14,1,0,0,-3,2,"[67,149,146,12,61,97,123,39,76,99]",11,-14,1,0,0,1,35,116,10,1,Yellow,Yellow.jpg,LightGreen,LightGreen.jpg,,
,,,,,,,,,,,,,,,,,,-3,,,,,,,,,,,,,,,,,,,,,,,,,,,Joseph,001,2021-12-05_23h16.36.035,jm_natural_scene_simialrity_2-12-2021,2021.2.3,Win32,29.9940012,5e9e05878b2cf3198fe9dc1a,61ad71e11ddd29ccf7a27d5b,61ad7249130d4cd21c4e8f2f,,,,,-55,28,1,0,0,response7disk,1.126,-16,-10,1,0,0,rectangle,-16,-10,1,0,0,-3,-3,"[67,149,146,12,61,97,123,39,76,99]",-16,-10,1,0,0,1,36,117,25,1,DarkGreen,DarkGreen.jpg,Turquiose,Turquiose.jpg,,
,,,,,,,,,,,,,,,,,,-3,,,,,,,,,,,,,,,,,,,,,,,,,,,Joseph,001,2021-12-05_23h16.36.035,jm_natural_scene_simialrity_2-12-2021,2021.2.3,Win32,29.9940012,5e9e05878b2cf3198fe9dc1a,61ad71e11ddd29ccf7a27d5b,61ad7249130d4cd21c4e8f2f,,,,,-88,55,1,0,0,response7disk,1.909,-12,-1,1,0,0,rectangle,-12,-1,1,0,0,-3,-1,"[67,149,146,12,61,97,123,39,76,99]",-12,-1,1,0,0,1,37,118,63,1,DarkBlue,DarkBlue.jpg,LightGreen,LightGreen.jpg,,
,,,,,,,,,,,,,,,,,,-3,,,,,,,,,,,,,,,,,,,,,,,,,,,Joseph,001,2021-12-05_23h16.36.035,jm_natural_scene_simialrity_2-12-2021,2021.2.3,Win32,29.9940012,5e9e05878b2cf3198fe9dc1a,61ad71e11ddd29ccf7a27d5b,61ad7249130d4cd21c4e8f2f,,,,,-46,35,1,0,0,response7disk,0.809,-2,-5,1,0,0,rectangle,-2,-5,1,0,0,-3,-2,"[67,149,146,12,61,97,123,39,76,99]",-2,-5,1,0,0,1,38,119,68,1,DarkBlue,DarkBlue.jpg,DarkGreen,DarkGreen.jpg,,
,,,,,,,,,,,,,,,,,,-4,,,,,,,,,,,,,,,,,,,,,,,,,,,Joseph,001,2021-12-05_23h16.36.035,jm_natural_scene_simialrity_2-12-2021,2021.2.3,Win32,29.9940012,5e9e05878b2cf3198fe9dc1a,61ad71e11ddd29ccf7a27d5b,61ad7249130d4cd21c4e8f2f,,,,,-34,92,1,0,0,response7disk,0.994,-14,11,1,0,0,rectangle,-14,11,1,0,0,-3,-3,"[67,149,146,12,61,97,123,39,76,99]",-14,11,1,0,0,1,39,120,56,1,LightBlue,LightBlue.jpg,Yellow,Yellow.jpg,,
,,,,,,,,,,,,,,,,,,-4,,,,,,,,,,,,,,,,,,,,,,,,,,,Joseph,001,2021-12-05_23h16.36.035,jm_natural_scene_simialrity_2-12-2021,2021.2.3,Win32,29.9940012,5e9e05878b2cf3198fe9dc1a,61ad71e11ddd29ccf7a27d5b,61ad7249130d4cd21c4e8f2f,,,,,-53,71,1,0,0,response7disk,1.495,-17,3,1,0,0,rectangle,-17,3,1,0,0,-3,-2,"[67,149,146,12,61,97,123,39,76,99]",-17,3,1,0,0,1,40,121,6,1,Red,Red.jpg,DarkBlue,DarkBlue.jpg,,
,,,,,,,,,,,,,,,,,,-3,,,,,,,,,,,,,,,,,,,,,,,,,,,Joseph,001,2021-12-05_23h16.36.035,jm_natural_scene_simialrity_2-12-2021,2021.2.3,Win32,29.9940012,5e9e05878b2cf3198fe9dc1a,61ad71e11ddd29ccf7a27d5b,61ad7249130d4cd21c4e8f2f,,,,,-65,50,1,0,0,response7disk,0.809,-17,10,1,0,0,rectangle,-72,40,1,0,0,-3,-3,"[67,149,146,12,61,97,123,39,76,99]",-8,9,1,0,0,1,41,122,22,1,LightGreen,LightGreen.jpg,Pink,Pink.jpg,response7disk_3,rectangle
,,,,,,,,,,,,,,,,,,-4,,,,,,,,,,,,,,,,,,,,,,,,,,,Joseph,001,2021-12-05_23h16.36.035,jm_natural_scene_simialrity_2-12-2021,2021.2.3,Win32,29.9940012,5e9e05878b2cf3198fe9dc1a,61ad71e11ddd29ccf7a27d5b,61ad7249130d4cd21c4e8f2f,,,,,-40,75,1,0,0,response7disk,0.649,0,15,1,0,0,rectangle,0,15,1,0,0,-3,1,"[67,149,146,12,61,97,123,39,76,99]",0,15,1,0,0,1,42,123,64,1,Pink,Pink.jpg,LightGreen,LightGreen.jpg,,
,,,,,,,,,,,,,,,,,,-2,,,,,,,,,,,,,,,,,,,,,,,,,,,Joseph,001,2021-12-05_23h16.36.035,jm_natural_scene_simialrity_2-12-2021,2021.2.3,Win32,29.9940012,5e9e05878b2cf3198fe9dc1a,61ad71e11ddd29ccf7a27d5b,61ad7249130d4cd21c4e8f2f,,,,,-64,-32,1,0,0,response5disk,0.982,19,-5,1,0,0,rectangle,19,-5,1,0,0,-3,-4,"[67,149,146,12,61,97,123,39,76,99]",19,-5,1,0,0,1,43,124,19,1,LightGreen,LightGreen.jpg,Turquiose,Turquiose.jpg,,
,,,,,,,,,,,,,,,,,,-4,,,,,,,,,,,,,,,,,,,,,,,,,,,Joseph,001,2021-12-05_23h16.36.035,jm_natural_scene_simialrity_2-12-2021,2021.2.3,Win32,29.9940012,5e9e05878b2cf3198fe9dc1a,61ad71e11ddd29ccf7a27d5b,61ad7249130d4cd21c4e8f2f,,,,,-49,90,1,0,0,response7disk,0.895,-16,21,1,0,0,rectangle,-16,21,1,0,0,-3,1,"[67,149,146,12,61,97,123,39,76,99]",-16,21,1,0,0,1,44,125,40,1,DarkBlue,DarkBlue.jpg,Pink,Pink.jpg,,
,,,,,,,,,,,,,,,,,,-4,,,,,,,,,,,,,,,,,,,,,,,,,,,Joseph,001,2021-12-05_23h16.36.035,jm_natural_scene_simialrity_2-12-2021,2021.2.3,Win32,29.9940012,5e9e05878b2cf3198fe9dc1a,61ad71e11ddd29ccf7a27d5b,61ad7249130d4cd21c4e8f2f,,,,,-47,52,1,0,0,response7disk,0.76,-10,1,1,0,0,rectangle,-10,1,1,0,0,-3,2,"[67,149,146,12,61,97,123,39,76,99]",-10,1,1,0,0,1,45,126,12,1,Yellow,Yellow.jpg,Turquiose,Turquiose.jpg,,
,,,,,,,,,,,,,,,,,,-4,,,,,,,,,,,,,,,,,,,,,,,,,,,Joseph,001,2021-12-05_23h16.36.035,jm_natural_scene_simialrity_2-12-2021,2021.2.3,Win32,29.9940012,5e9e05878b2cf3198fe9dc1a,61ad71e11ddd29ccf7a27d5b,61ad7249130d4cd21c4e8f2f,,,,,-45,73,1,0,0,response7disk,3.024,-2,11,1,0,0,rectangle,-2,11,1,0,0,-3,-2,"[67,149,146,12,61,97,123,39,76,99]",-2,11,1,0,0,1,46,127,15,1,Yellow,Yellow.jpg,Pink,Pink.jpg,,
,,,,,,,,,,,,,,,,,,-3,,,,,,,,,,,,,,,,,,,,,,,,,,,Joseph,001,2021-12-05_23h16.36.035,jm_natural_scene_simialrity_2-12-2021,2021.2.3,Win32,29.9940012,5e9e05878b2cf3198fe9dc1a,61ad71e11ddd29ccf7a27d5b,61ad7249130d4cd21c4e8f2f,,,,,-69,41,1,0,0,response7disk,0.903,11,15,1,0,0,rectangle,11,15,1,0,0,-3,2,"[67,149,146,12,61,97,123,39,76,99]",11,15,1,0,0,1,47,128,43,1,Pink,Pink.jpg,Purple,Purple.jpg,,
,,,,,,,,,,,,,,,,,,3,,,,,,,,,,,,,,,,,,,,,,,,,,,Joseph,001,2021-12-05_23h16.36.035,jm_natural_scene_simialrity_2-12-2021,2021.2.3,Win32,29.9940012,5e9e05878b2cf3198fe9dc1a,61ad71e11ddd29ccf7a27d5b,61ad7249130d4cd21c4e8f2f,,,,,101,32,1,0,0,response1disk,0.985,0,13,1,0,0,rectangle,0,13,1,0,0,-3,-4,"[67,149,146,12,61,97,123,39,76,99]",0,13,1,0,0,1,48,129,31,1,Turquiose,Turquiose.jpg,LightBlue,LightBlue.jpg,,
,,,,,,,,,,,,,,,,,,1,,,,,,,,,,,,,,,,,,,,,,,,,,,Joseph,001,2021-12-05_23h16.36.035,jm_natural_scene_simialrity_2-12-2021,2021.2.3,Win32,29.9940012,5e9e05878b2cf3198fe9dc1a,61ad71e11ddd29ccf7a27d5b,61ad7249130d4cd21c4e8f2f,,,,,71,-80,1,0,0,response3disk,1.123,-17,-2,1,0,0,rectangle,-17,-2,1,0,0,-3,3,"[67,149,146,12,61,97,123,39,76,99]",-17,-2,1,0,0,1,49,130,67,1,LightBlue,LightBlue.jpg,DarkGreen,DarkGreen.jpg,,
,,,,,,,,,,,,,,,,,,-3,,,,,,,,,,,,,,,,,,,,,,,,,,,Joseph,001,2021-12-05_23h16.36.035,jm_natural_scene_simialrity_2-12-2021,2021.2.3,Win32,29.9940012,5e9e05878b2cf3198fe9dc1a,61ad71e11ddd29ccf7a27d5b,61ad7249130d4cd21c4e8f2f,,,,,-83,60,1,0,0,response7disk,1.102,-6,-14,1,0,0,rectangle,-6,-14,1,0,0,-3,2,"[67,149,146,12,61,97,123,39,76,99]",-6,-14,1,0,0,1,50,131,73,1,Pink,Pink.jpg,Turquiose,Turquiose.jpg,,
,,,,,,,,,,,,,,,,,,4,,,,,,,,,,,,,,,,,,,,,,,,,,,Joseph,001,2021-12-05_23h16.36.035,jm_natural_scene_simialrity_2-12-2021,2021.2.3,Win32,29.9940012,5e9e05878b2cf3198fe9dc1a,61ad71e11ddd29ccf7a27d5b,61ad7249130d4cd21c4e8f2f,,,,,43,113,1,0,0,response1disk,0.779,5,18,1,0,0,rectangle,5,18,1,0,0,-3,-2,"[67,149,146,12,61,97,123,39,76,99]",5,18,1,0,0,1,51,132,17,1,LightGreen,LightGreen.jpg,LightGreen,LightGreen.jpg,,
,,,,,,,,,,,,,,,,,,2,,,,,,,,,,,,,,,,,,,,,,,,,,,Joseph,001,2021-12-05_23h16.36.035,jm_natural_scene_simialrity_2-12-2021,2021.2.3,Win32,29.9940012,5e9e05878b2cf3198fe9dc1a,61ad71e11ddd29ccf7a27d5b,61ad7249130d4cd21c4e8f2f,,,,,108,-68,1,0,0,response3disk,1.096,3,-12,1,0,0,rectangle,3,-12,1,0,0,-3,1,"[67,149,146,12,61,97,123,39,76,99]",3,-12,1,0,0,1,52,133,27,1,DarkGreen,DarkGreen.jpg,DarkBlue,DarkBlue.jpg,,
,,,,,,,,,,,,,,,,,,1,,,,,,,,,,,,,,,,,,,,,,,,,,,Joseph,001,2021-12-05_23h16.36.035,jm_natural_scene_simialrity_2-12-2021,2021.2.3,Win32,29.9940012,5e9e05878b2cf3198fe9dc1a,61ad71e11ddd29ccf7a27d5b,61ad7249130d4cd21c4e8f2f,,,,,62,-90,1,0,0,response3disk,2.038,-16,-6,1,0,0,rectangle,-16,-6,1,0,0,-3,2,"[67,149,146,12,61,97,123,39,76,99]",-16,-6,1,0,0,1,53,134,28,1,DarkGreen,DarkGreen.jpg,Pink,Pink.jpg,,
,,,,,,,,,,,,,,,,,,3,,,,,,,,,,,,,,,,,,,,,,,,,,,Joseph,001,2021-12-05_23h16.36.035,jm_natural_scene_simialrity_2-12-2021,2021.2.3,Win32,29.9940012,5e9e05878b2cf3198fe9dc1a,61ad71e11ddd29ccf7a27d5b,61ad7249130d4cd21c4e8f2f,,,,,79,28,1,0,0,response1disk,0.783,7,2,1,0,0,rectangle,7,2,1,0,0,-3,2,"[67,149,146,12,61,97,123,39,76,99]",7,2,1,0,0,1,54,135,45,1,Yellow,Yellow.jpg,Red,Red.jpg,,
,,,,,,,,,,,,,,,,,,4,,,,,,,,,,,,,,,,,,,,,,,,,,,Joseph,001,2021-12-05_23h16.36.035,jm_natural_scene_simialrity_2-12-2021,2021.2.3,Win32,29.9940012,5e9e05878b2cf3198fe9dc1a,61ad71e11ddd29ccf7a27d5b,61ad7249130d4cd21c4e8f2f,,,,,63,101,1,0,0,response1disk,0.837,6,13,1,0,0,rectangle,6,13,1,0,0,-3,-2,"[67,149,146,12,61,97,123,39,76,99]",6,13,1,0,0,1,55,136,75,1,DarkBlue,DarkBlue.jpg,LightBlue,LightBlue.jpg,,
,,,,,,,,,,,,,,,,,,2,,,,,,,,,,,,,,,,,,,,,,,,,,,Joseph,001,2021-12-05_23h16.36.035,jm_natural_scene_simialrity_2-12-2021,2021.2.3,Win32,29.9940012,5e9e05878b2cf3198fe9dc1a,61ad71e11ddd29ccf7a27d5b,61ad7249130d4cd21c4e8f2f,,,,,72,-67,1,0,0,response3disk,1.326,9,4,1,0,0,rectangle,9,4,1,0,0,-3,-3,"[67,149,146,12,61,97,123,39,76,99]",9,4,1,0,0,1,56,137,21,1,LightGreen,LightGreen.jpg,DarkBlue,DarkBlue.jpg,,
,,,,,,,,,,,,,,,,,,3,,,,,,,,,,,,,,,,,,,,,,,,,,,Joseph,001,2021-12-05_23h16.36.035,jm_natural_scene_simialrity_2-12-2021,2021.2.3,Win32,29.9940012,5e9e05878b2cf3198fe9dc1a,61ad71e11ddd29ccf7a27d5b,61ad7249130d4cd21c4e8f2f,,,,,71,39,1,0,0,response1disk,0.849,5,12,1,0,0,rectangle,5,12,1,0,0,-3,-2,"[67,149,146,12,61,97,123,39,76,99]",5,12,1,0,0,1,57,138,38,1,LightBlue,LightBlue.jpg,Purple,Purple.jpg,,
,,,,,,,,,,,,,,,,,,4,,,,,,,,,,,,,,,,,,,,,,,,,,,Joseph,001,2021-12-05_23h16.36.035,jm_natural_scene_simialrity_2-12-2021,2021.2.3,Win32,29.9940012,5e9e05878b2cf3198fe9dc1a,61ad71e11ddd29ccf7a27d5b,61ad7249130d4cd21c4e8f2f,,,,,47,67,1,0,0,response1disk,1.165,8,4,1,0,0,rectangle,8,4,1,0,0,-3,-4,"[67,149,146,12,61,97,123,39,76,99]",8,4,1,0,0,1,58,139,41,1,DarkBlue,DarkBlue.jpg,Purple,Purple.jpg,,
,,,,,,,,,,,,,,,,,,-2,,,,,,,,,,,,,,,,,,,,,,,,,,,Joseph,001,2021-12-05_23h16.36.035,jm_natural_scene_simialrity_2-12-2021,2021.2.3,Win32,29.9940012,5e9e05878b2cf3198fe9dc1a,61ad71e11ddd29ccf7a27d5b,61ad7249130d4cd21c4e8f2f,,,,,-85,-34,1,0,0,response5disk,1.05,-17,-22,1,0,0,rectangle,-17,-22,1,0,0,-1,-3,"[67,149,146,12,61,97,123,39,76,99]",-17,-22,1,0,0,1,59,140,76,1,Pink,Pink.jpg,LightBlue,LightBlue.jpg,,
,,,,,,,,,,,,,,,,,,-2,,,,,,,,,,,,,,,,,,,,,,,,,,,Joseph,001,2021-12-05_23h16.36.035,jm_natural_scene_simialrity_2-12-2021,2021.2.3,Win32,29.9940012,5e9e05878b2cf3198fe9dc1a,61ad71e11ddd29ccf7a27d5b,61ad7249130d4cd21c4e8f2f,,,,,-64,-38,1,0,0,response5disk,1.11,0,13,1,0,0,rectangle,0,13,1,0,0,-1,-3,"[67,149,146,12,61,97,123,39,76,99]",0,13,1,0,0,1,60,141,52,1,Purple,Purple.jpg,Red,Red.jpg,,
,,,,,,,,,,,,,,,,,,-4,,,,,,,,,,,,,,,,,,,,,,,,,,,Joseph,001,2021-12-05_23h16.36.035,jm_natural_scene_simialrity_2-12-2021,2021.2.3,Win32,29.9940012,5e9e05878b2cf3198fe9dc1a,61ad71e11ddd29ccf7a27d5b,61ad7249130d4cd21c4e8f2f,,,,,-48,85,1,0,0,response7disk,2.153,2,8,1,0,0,rectangle,2,8,1,0,0,-1,3,"[67,149,146,12,61,97,123,39,76,99]",2,8,1,0,0,1,61,142,8,1,Red,Red.jpg,Purple,Purple.jpg,,
,,,,,,,,,,,,,,,,,,-2,,,,,,,,,,,,,,,,,,,,,,,,,,,Joseph,001,2021-12-05_23h16.36.035,jm_natural_scene_simialrity_2-12-2021,2021.2.3,Win32,29.9940012,5e9e05878b2cf3198fe9dc1a,61ad71e11ddd29ccf7a27d5b,61ad7249130d4cd21c4e8f2f,,,,,-94,-68,1,0,0,response5disk,1.114,-8,-24,1,0,0,rectangle,-8,-24,1,0,0,-1,-1,"[67,149,146,12,61,97,123,39,76,99]",-8,-24,1,0,0,1,62,143,65,1,Purple,Purple.jpg,LightGreen,LightGreen.jpg,,
,,,,,,,,,,,,,,,,,,3,,,,,,,,,,,,,,,,,,,,,,,,,,,Joseph,001,2021-12-05_23h16.36.035,jm_natural_scene_simialrity_2-12-2021,2021.2.3,Win32,29.9940012,5e9e05878b2cf3198fe9dc1a,61ad71e11ddd29ccf7a27d5b,61ad7249130d4cd21c4e8f2f,,,,,70,66,1,0,0,response1disk,1.06,0,-22,1,0,0,rectangle,0,-22,1,0,0,-1,3,"[67,149,146,12,61,97,123,39,76,99]",0,-22,1,0,0,1,63,144,1,1,Red,Red.jpg,Yellow,Yellow.jpg,,
,,,,,,,,,,,,,,,,,,3,,,,,,,,,,,,,,,,,,,,,,,,,,,Joseph,001,2021-12-05_23h16.36.035,jm_natural_scene_simialrity_2-12-2021,2021.2.3,Win32,29.9940012,5e9e05878b2cf3198fe9dc1a,61ad71e11ddd29ccf7a27d5b,61ad7249130d4cd21c4e8f2f,,,,,115,75,1,0,0,response1disk,0.95,2,9,1,0,0,rectangle,37,-98,1,0,0,1,1,"[67,149,146,12,61,97,123,39,76,99]",-7,-19,1,0,0,1,64,145,74,1,Purple,Purple.jpg,Turquiose,Turquiose.jpg,response3disk_3,rectangle
,,,,,,,,,,,,,,,,,,1,,,,,,,,,,,,,,,,,,,,,,,,,,,Joseph,001,2021-12-05_23h16.36.035,jm_natural_scene_simialrity_2-12-2021,2021.2.3,Win32,29.9940012,5e9e05878b2cf3198fe9dc1a,61ad71e11ddd29ccf7a27d5b,61ad7249130d4cd21c4e8f2f,,,,,20,-57,1,0,0,response3disk,0.799,-24,-15,1,0,0,rectangle,-24,-15,1,0,0,1,-2,"[67,149,146,12,61,97,123,39,76,99]",-24,-15,1,0,0,1,65,146,29,1,DarkGreen,DarkGreen.jpg,Purple,Purple.jpg,,
,,,,,,,,,,,,,,,,,,-2,,,,,,,,,,,,,,,,,,,,,,,,,,,Joseph,001,2021-12-05_23h16.36.035,jm_natural_scene_simialrity_2-12-2021,2021.2.3,Win32,29.9940012,5e9e05878b2cf3198fe9dc1a,61ad71e11ddd29ccf7a27d5b,61ad7249130d4cd21c4e8f2f,,,,,-66,-62,1,0,0,response5disk,0.679,1,0,1,0,0,rectangle,1,0,1,0,0,1,-4,"[67,149,146,12,61,97,123,39,76,99]",1,0,1,0,0,1,66,147,70,1,Purple,Purple.jpg,DarkGreen,DarkGreen.jpg,,
,,,,,,,,,,,,,,,,,,3,,,,,,,,,,,,,,,,,,,,,,,,,,,Joseph,001,2021-12-05_23h16.36.035,jm_natural_scene_simialrity_2-12-2021,2021.2.3,Win32,29.9940012,5e9e05878b2cf3198fe9dc1a,61ad71e11ddd29ccf7a27d5b,61ad7249130d4cd21c4e8f2f,,,,,76,35,1,0,0,response1disk,0.73,11,-7,1,0,0,rectangle,-64,-30,1,0,0,1,-2,"[67,149,146,12,61,97,123,39,76,99]",-20,-17,1,0,0,1,67,148,18,1,LightGreen,LightGreen.jpg,DarkGreen,DarkGreen.jpg,response5disk_3,rectangle
,,,,,,,,,,,,,,,,,,1,,,,,,,,,,,,,,,,,,,,,,,,,,,Joseph,001,2021-12-05_23h16.36.035,jm_natural_scene_simialrity_2-12-2021,2021.2.3,Win32,29.9940012,5e9e05878b2cf3198fe9dc1a,61ad71e11ddd29ccf7a27d5b,61ad7249130d4cd21c4e8f2f,,,,,36,-86,1,0,0,response3disk,0.81,-16,3,1,0,0,rectangle,-16,3,1,0,0,1,2,"[67,149,146,12,61,97,123,39,76,99]",-16,3,1,0,0,1,68,149,80,1,Purple,Purple.jpg,Pink,Pink.jpg,,
,,,,,,,,,,,,,,,,,,-2,,,,,,,,,,,,,,,,,,,,,,,,,,,Joseph,001,2021-12-05_23h16.36.035,jm_natural_scene_simialrity_2-12-2021,2021.2.3,Win32,29.9940012,5e9e05878b2cf3198fe9dc1a,61ad71e11ddd29ccf7a27d5b,61ad7249130d4cd21c4e8f2f,,,,,-85,-45,1,0,0,response5disk,0.635,11,15,1,0,0,rectangle,11,15,1,0,0,1,2,"[67,149,146,12,61,97,123,39,76,99]",11,15,1,0,0,1,69,150,33,1,Turquiose,Turquiose.jpg,Pink,Pink.jpg,,
,,,,,,,,,,,,,,,,,,3,,,,,,,,,,,,,,,,,,,,,,,,,,,Joseph,001,2021-12-05_23h16.36.035,jm_natural_scene_simialrity_2-12-2021,2021.2.3,Win32,29.9940012,5e9e05878b2cf3198fe9dc1a,61ad71e11ddd29ccf7a27d5b,61ad7249130d4cd21c4e8f2f,,,,,68,23,1,0,0,response1disk,0.936,15,2,1,0,0,rectangle,15,2,1,0,0,1,3,"[67,149,146,12,61,97,123,39,76,99]",15,2,1,0,0,1,70,151,71,1,LightBlue,LightBlue.jpg,Turquiose,Turquiose.jpg,,
,,,,,,,,,,,,,,,,,,3,,,,,,,,,,,,,,,,,,,,,,,,,,,Joseph,001,2021-12-05_23h16.36.035,jm_natural_scene_simialrity_2-12-2021,2021.2.3,Win32,29.9940012,5e9e05878b2cf3198fe9dc1a,61ad71e11ddd29ccf7a27d5b,61ad7249130d4cd21c4e8f2f,,,,,78,26,1,0,0,response1disk,1.283,13,-6,1,0,0,rectangle,13,-6,1,0,0,1,-1,"[67,149,146,12,61,97,123,39,76,99]",13,-6,1,0,0,1,71,152,36,1,LightBlue,LightBlue.jpg,DarkBlue,DarkBlue.jpg,,
,,,,,,,,,,,,,,,,,,2,,,,,,,,,,,,,,,,,,,,,,,,,,,Joseph,001,2021-12-05_23h16.36.035,jm_natural_scene_simialrity_2-12-2021,2021.2.3,Win32,29.9940012,5e9e05878b2cf3198fe9dc1a,61ad71e11ddd29ccf7a27d5b,61ad7249130d4cd21c4e8f2f,,,,,69,-34,1,0,0,response3disk,0.825,-21,-5,1,0,0,rectangle,-21,-5,1,0,0,1,-1,"[67,149,146,12,61,97,123,39,76,99]",-21,-5,1,0,0,1,72,153,37,1,LightBlue,LightBlue.jpg,Pink,Pink.jpg,,
,,,,,,,,,,,,,,,,,,-2,,,,,,,,,,,,,,,,,,,,,,,,,,,Joseph,001,2021-12-05_23h16.36.035,jm_natural_scene_simialrity_2-12-2021,2021.2.3,Win32,29.9940012,5e9e05878b2cf3198fe9dc1a,61ad71e11ddd29ccf7a27d5b,61ad7249130d4cd21c4e8f2f,,,,,-74,-25,1,0,0,response5disk,0.846,-13,-14,1,0,0,rectangle,-13,-14,1,0,0,1,2,"[67,149,146,12,61,97,123,39,76,99]",-13,-14,1,0,0,1,73,154,59,1,Purple,Purple.jpg,Yellow,Yellow.jpg,,
,,,,,,,,,,,,,,,,,,-3,,,,,,,,,,,,,,,,,,,,,,,,,,,Joseph,001,2021-12-05_23h16.36.035,jm_natural_scene_simialrity_2-12-2021,2021.2.3,Win32,29.9940012,5e9e05878b2cf3198fe9dc1a,61ad71e11ddd29ccf7a27d5b,61ad7249130d4cd21c4e8f2f,,,,,-90,49,1,0,0,response7disk,1.272,-5,2,1,0,0,rectangle,-5,2,1,0,0,1,-1,"[67,149,146,12,61,97,123,39,76,99]",-5,2,1,0,0,1,74,155,20,1,LightGreen,LightGreen.jpg,LightBlue,LightBlue.jpg,,
,,,,,,,,,,,,,,,,,,3,,,,,,,,,,,,,,,,,,,,,,,,,,,Joseph,001,2021-12-05_23h16.36.035,jm_natural_scene_simialrity_2-12-2021,2021.2.3,Win32,29.9940012,5e9e05878b2cf3198fe9dc1a,61ad71e11ddd29ccf7a27d5b,61ad7249130d4cd21c4e8f2f,,,,,68,37,1,0,0,response1disk,0.694,8,4,1,0,0,rectangle,8,4,1,0,0,1,3,"[67,149,146,12,61,97,123,39,76,99]",8,4,1,0,0,1,75,156,34,1,Turquiose,Turquiose.jpg,Purple,Purple.jpg,,
,,,,,,,,,,,,,,,,,,-4,,,,,,,,,,,,,,,,,,,,,,,,,,,Joseph,001,2021-12-05_23h16.36.035,jm_natural_scene_simialrity_2-12-2021,2021.2.3,Win32,29.9940012,5e9e05878b2cf3198fe9dc1a,61ad71e11ddd29ccf7a27d5b,61ad7249130d4cd21c4e8f2f,,,,,-67,79,1,0,0,response7disk,1.132,-21,-4,1,0,0,rectangle,-21,-4,1,0,0,1,-1,"[67,149,146,12,61,97,123,39,76,99]",-21,-4,1,0,0,1,76,157,3,1,Red,Red.jpg,DarkGreen,DarkGreen.jpg,,
,,,,,,,,,,,,,,,,,,3,,,,,,,,,,,,,,,,,,,,,,,,,,,Joseph,001,2021-12-05_23h16.36.035,jm_natural_scene_simialrity_2-12-2021,2021.2.3,Win32,29.9940012,5e9e05878b2cf3198fe9dc1a,61ad71e11ddd29ccf7a27d5b,61ad7249130d4cd21c4e8f2f,,,,,98,23,1,0,0,response1disk,1.072,6,-9,1,0,0,rectangle,6,-9,1,0,0,1,2,"[67,149,146,12,61,97,123,39,76,99]",6,-9,1,0,0,1,77,158,79,1,Purple,Purple.jpg,DarkBlue,DarkBlue.jpg,,
,,,,,,,,,,,,,,,,,,-4,,,,,,,,,,,,,,,,,,,,,,,,,,,Joseph,001,2021-12-05_23h16.36.035,jm_natural_scene_simialrity_2-12-2021,2021.2.3,Win32,29.9940012,5e9e05878b2cf3198fe9dc1a,61ad71e11ddd29ccf7a27d5b,61ad7249130d4cd21c4e8f2f,,,,,-29,98,1,0,0,response7disk,0.867,5,-5,1,0,0,rectangle,5,-5,1,0,0,1,1,"[67,149,146,12,61,97,123,39,76,99]",5,-5,1,0,0,1,78,159,47,1,DarkGreen,DarkGreen.jpg,Red,Red.jpg,,
,,,,,,,,,,,,,,,,,,-4,,,,,,,,,,,,,,,,,,,,,,,,,,,Joseph,001,2021-12-05_23h16.36.035,jm_natural_scene_simialrity_2-12-2021,2021.2.3,Win32,29.9940012,5e9e05878b2cf3198fe9dc1a,61ad71e11ddd29ccf7a27d5b,61ad7249130d4cd21c4e8f2f,,,,,-30,68,1,0,0,response7disk,0.735,4,-22,1,0,0,rectangle,4,-22,1,0,0,1,-4,"[67,149,146,12,61,97,123,39,76,99]",4,-22,1,0,0,1,79,160,49,1,LightBlue,LightBlue.jpg,Red,Red.jpg,,
,,,,,,,,,,,,,,,,,,-4,,,,,,,,,,,,,,,,,,,,,,,,,,,Joseph,001,2021-12-05_23h16.36.035,jm_natural_scene_simialrity_2-12-2021,2021.2.3,Win32,29.9940012,5e9e05878b2cf3198fe9dc1a,61ad71e11ddd29ccf7a27d5b,61ad7249130d4cd21c4e8f2f,,,,,-42,83,1,0,0,response7disk,0.926,-6,-13,1,0,0,rectangle,-6,-13,1,0,0,1,-3,"[67,149,146,12,61,97,123,39,76,99]",-6,-13,1,0,0,1,80,161,11,1,Yellow,Yellow.jpg,DarkGreen,DarkGreen.jpg,,
