key_resp.keys,key_resp.rt,key_resp_16.keys,key_resp_16.rt,key_resp_2.keys,key_resp_2.rt,key_resp_3.keys,key_resp_3.rt,key_resp_19.keys,key_resp_19.rt,key_resp_10.keys,key_resp_10.rt,mouse_prac.x,mouse_prac.y,mouse_prac.leftButton,mouse_prac.midButton,mouse_prac.rightButton,mouse_prac.clicked_name,similarity,mouse_10.x,mouse_10.y,mouse_10.leftButton,mouse_10.midButton,mouse_10.rightButton,mouse_10.clicked_name,mouse_catch_prac.x,mouse_catch_prac.y,mouse_catch_prac.leftButton,mouse_catch_prac.midButton,mouse_catch_prac.rightButton,catchnumberprac,mouse_6.x,mouse_6.y,mouse_6.leftButton,mouse_6.midButton,mouse_6.rightButton,during_prac.thisRepN,during_prac.thisTrialN,during_prac.thisN,during_prac.thisIndex,during_prac.ran,trailimage1,trial1adress,trailimage2,trial2adress,participant,session,date,expName,psychopyVersion,OS,frameRate,PROLIFIC_PID,STUDY_ID,SESSION_ID,mouse_catch_prac.clicked_name,catchprac,mouse_6.clicked_name,key_resp_22.keys,key_resp_22.rt,mouse.x,mouse.y,mouse.leftButton,mouse.midButton,mouse.rightButton,mouse.clicked_name,response_time,mouse_2.x,mouse_2.y,mouse_2.leftButton,mouse_2.midButton,mouse_2.rightButton,mouse_2.clicked_name,mouse_3.x,mouse_3.y,mouse_3.leftButton,mouse_3.midButton,mouse_3.rightButton,catchresponse,catchnumber,catchtrialorder,mouse_11.x,mouse_11.y,mouse_11.leftButton,mouse_11.midButton,mouse_11.rightButton,trials_2.thisRepN,trials_2.thisTrialN,trials_2.thisN,trials_2.thisIndex,trials_2.ran,image1,image1adress,image2,image2adress,mouse_3.clicked_name,mouse_11.clicked_name
space,3.4358,space,9.8745,space,8.748,space,17.6861,space,24.3052,space,9.9374,112,54,1,0,0,response1disk_5,3,-1,-12,1,0,0,rectangle_8,-1,-12,1,0,0,3,-1,-12,1,0,0,0,0,0,3,1,trail2,trail2.jpg,trail2,trail2.jpg,,001,2021-12-06_02h18.08.632,jm_natural_scene_simialrity_2-12-2021,2021.2.3,Win32,76.37668983,60afdd81d19d38d900cf5154,61ad71e11ddd29ccf7a27d5b,61ad72c7234a343b10e465e2,,,,,,,,,,,,,,,,,,,,,,,,,,,,,,,,,,,,,,,,,,
,,,,,,,,,,,,52,128,1,0,0,response1disk_5,4,21,2,1,0,0,rectangle_8,116,68,1,0,0,3,6,-3,1,0,0,0,1,1,0,1,trail1,trail1.jpg,trail1,trail1.jpg,,001,2021-12-06_02h18.08.632,jm_natural_scene_simialrity_2-12-2021,2021.2.3,Win32,76.37668983,60afdd81d19d38d900cf5154,61ad71e11ddd29ccf7a27d5b,61ad72c7234a343b10e465e2,response1disk_7,3,rectangle_4,,,,,,,,,,,,,,,,,,,,,,,,,,,,,,,,,,,,,,,
,,,,,,,,,,,,69,-92,1,0,0,response3disk_5,1,15,7,1,0,0,rectangle_8,15,7,1,0,0,3,15,7,1,0,0,0,2,2,1,1,trail1,trail1.jpg,trail2,trail2.jpg,,001,2021-12-06_02h18.08.632,jm_natural_scene_simialrity_2-12-2021,2021.2.3,Win32,76.37668983,60afdd81d19d38d900cf5154,61ad71e11ddd29ccf7a27d5b,61ad72c7234a343b10e465e2,,,,,,,,,,,,,,,,,,,,,,,,,,,,,,,,,,,,,,,,,,
,,,,,,,,,,,,-85,70,1,0,0,response7disk_5,-3,6,1,1,0,0,rectangle_8,110,46,1,0,0,3,14,-8,1,0,0,0,3,3,4,1,trail2,trail2.jpg,trail3,trail3.jpg,,001,2021-12-06_02h18.08.632,jm_natural_scene_simialrity_2-12-2021,2021.2.3,Win32,76.37668983,60afdd81d19d38d900cf5154,61ad71e11ddd29ccf7a27d5b,61ad72c7234a343b10e465e2,response1disk_7,3,rectangle_4,,,,,,,,,,,,,,,,,,,,,,,,,,,,,,,,,,,,,,,
,,,,,,,,,,,,21,103,1,0,0,response1disk_5,4,3,-1,1,0,0,rectangle_8,3,-1,1,0,0,3,3,-1,1,0,0,0,4,4,5,1,trail3,trail3.jpg,trail3,trail3.jpg,,001,2021-12-06_02h18.08.632,jm_natural_scene_simialrity_2-12-2021,2021.2.3,Win32,76.37668983,60afdd81d19d38d900cf5154,61ad71e11ddd29ccf7a27d5b,61ad72c7234a343b10e465e2,,,,,,,,,,,,,,,,,,,,,,,,,,,,,,,,,,,,,,,,,,
,,,,,,,,,,,,47,-117,1,0,0,response3disk_5,1,-10,-14,1,0,0,rectangle_8,-10,-14,1,0,0,3,-10,-14,1,0,0,0,5,5,2,1,trail1,trail1.jpg,trail3,trail3.jpg,,001,2021-12-06_02h18.08.632,jm_natural_scene_simialrity_2-12-2021,2021.2.3,Win32,76.37668983,60afdd81d19d38d900cf5154,61ad71e11ddd29ccf7a27d5b,61ad72c7234a343b10e465e2,,,,,,,,,,,,,,,,,,,,,,,,,,,,,,,,,,,,,,,,,,
,,,,,,,,,,,,,,,,,,-4,,,,,,,,,,,,,,,,,,,,,,,,,,,,001,2021-12-06_02h18.08.632,jm_natural_scene_simialrity_2-12-2021,2021.2.3,Win32,76.37668983,60afdd81d19d38d900cf5154,61ad71e11ddd29ccf7a27d5b,61ad72c7234a343b10e465e2,,,,space,3.4083,-51,87,1,0,0,response7disk,1.9742,-1,6,1,0,0,rectangle,-1,6,1,0,0,,3,"[76,138,139,97,84,73,55,11,110,147]",-1,6,1,0,0,0,0,0,6,1,Red,Red.jpg,DarkBlue,DarkBlue.jpg,,
,,,,,,,,,,,,,,,,,,2,,,,,,,,,,,,,,,,,,,,,,,,,,,,001,2021-12-06_02h18.08.632,jm_natural_scene_simialrity_2-12-2021,2021.2.3,Win32,76.37668983,60afdd81d19d38d900cf5154,61ad71e11ddd29ccf7a27d5b,61ad72c7234a343b10e465e2,,,,,,92,-36,1,0,0,response3disk,3.8812,1,5,1,0,0,rectangle,1,5,1,0,0,,-2,"[76,138,139,97,84,73,55,11,110,147]",1,5,1,0,0,0,1,1,7,1,Red,Red.jpg,Pink,Pink.jpg,,
,,,,,,,,,,,,,,,,,,4,,,,,,,,,,,,,,,,,,,,,,,,,,,,001,2021-12-06_02h18.08.632,jm_natural_scene_simialrity_2-12-2021,2021.2.3,Win32,76.37668983,60afdd81d19d38d900cf5154,61ad71e11ddd29ccf7a27d5b,61ad72c7234a343b10e465e2,,,,,,43,119,1,0,0,response1disk,1.4673,-1,-24,1,0,0,rectangle,-1,-24,1,0,0,,-2,"[76,138,139,97,84,73,55,11,110,147]",-1,-24,1,0,0,0,2,2,17,1,LightGreen,LightGreen.jpg,LightGreen,LightGreen.jpg,,
,,,,,,,,,,,,,,,,,,3,,,,,,,,,,,,,,,,,,,,,,,,,,,,001,2021-12-06_02h18.08.632,jm_natural_scene_simialrity_2-12-2021,2021.2.3,Win32,76.37668983,60afdd81d19d38d900cf5154,61ad71e11ddd29ccf7a27d5b,61ad72c7234a343b10e465e2,,,,,,69,36,1,0,0,response1disk,1.7474,-12,-9,1,0,0,rectangle,-12,-9,1,0,0,,1,"[76,138,139,97,84,73,55,11,110,147]",-12,-9,1,0,0,0,3,3,58,1,Pink,Pink.jpg,Yellow,Yellow.jpg,,
,,,,,,,,,,,,,,,,,,2,,,,,,,,,,,,,,,,,,,,,,,,,,,,001,2021-12-06_02h18.08.632,jm_natural_scene_simialrity_2-12-2021,2021.2.3,Win32,76.37668983,60afdd81d19d38d900cf5154,61ad71e11ddd29ccf7a27d5b,61ad72c7234a343b10e465e2,,,,,,83,-40,1,0,0,response3disk,1.2005,9,17,1,0,0,rectangle,9,17,1,0,0,,-4,"[76,138,139,97,84,73,55,11,110,147]",9,17,1,0,0,0,4,4,32,1,Turquiose,Turquiose.jpg,DarkBlue,DarkBlue.jpg,,
,,,,,,,,,,,,,,,,,,2,,,,,,,,,,,,,,,,,,,,,,,,,,,,001,2021-12-06_02h18.08.632,jm_natural_scene_simialrity_2-12-2021,2021.2.3,Win32,76.37668983,60afdd81d19d38d900cf5154,61ad71e11ddd29ccf7a27d5b,61ad72c7234a343b10e465e2,,,,,,85,-40,1,0,0,response3disk,1.3206,0,-7,1,0,0,rectangle,0,-7,1,0,0,,-4,"[76,138,139,97,84,73,55,11,110,147]",0,-7,1,0,0,0,5,5,60,1,DarkGreen,DarkGreen.jpg,LightGreen,LightGreen.jpg,,
,,,,,,,,,,,,,,,,,,-4,,,,,,,,,,,,,,,,,,,,,,,,,,,,001,2021-12-06_02h18.08.632,jm_natural_scene_simialrity_2-12-2021,2021.2.3,Win32,76.37668983,60afdd81d19d38d900cf5154,61ad71e11ddd29ccf7a27d5b,61ad72c7234a343b10e465e2,,,,,,-35,80,1,0,0,response7disk,0.9209,-8,4,1,0,0,rectangle,-8,4,1,0,0,,-4,"[76,138,139,97,84,73,55,11,110,147]",-8,4,1,0,0,0,6,6,10,1,Yellow,Yellow.jpg,LightGreen,LightGreen.jpg,,
,,,,,,,,,,,,,,,,,,-4,,,,,,,,,,,,,,,,,,,,,,,,,,,,001,2021-12-06_02h18.08.632,jm_natural_scene_simialrity_2-12-2021,2021.2.3,Win32,76.37668983,60afdd81d19d38d900cf5154,61ad71e11ddd29ccf7a27d5b,61ad72c7234a343b10e465e2,,,,,,-39,87,1,0,0,response7disk,0.6401,-3,-9,1,0,0,rectangle,-3,-9,1,0,0,,-4,"[76,138,139,97,84,73,55,11,110,147]",-3,-9,1,0,0,0,7,7,3,1,Red,Red.jpg,DarkGreen,DarkGreen.jpg,,
,,,,,,,,,,,,,,,,,,-1,,,,,,,,,,,,,,,,,,,,,,,,,,,,001,2021-12-06_02h18.08.632,jm_natural_scene_simialrity_2-12-2021,2021.2.3,Win32,76.37668983,60afdd81d19d38d900cf5154,61ad71e11ddd29ccf7a27d5b,61ad72c7234a343b10e465e2,,,,,,-47,-82,1,0,0,response5disk,1.8803,15,7,1,0,0,rectangle,15,7,1,0,0,,-4,"[76,138,139,97,84,73,55,11,110,147]",15,7,1,0,0,0,8,8,41,1,DarkBlue,DarkBlue.jpg,Purple,Purple.jpg,,
,,,,,,,,,,,,,,,,,,-2,,,,,,,,,,,,,,,,,,,,,,,,,,,,001,2021-12-06_02h18.08.632,jm_natural_scene_simialrity_2-12-2021,2021.2.3,Win32,76.37668983,60afdd81d19d38d900cf5154,61ad71e11ddd29ccf7a27d5b,61ad72c7234a343b10e465e2,,,,,,-95,-41,1,0,0,response5disk,2.6947,-5,-23,1,0,0,rectangle,-5,-23,1,0,0,,3,"[76,138,139,97,84,73,55,11,110,147]",-5,-23,1,0,0,0,9,9,29,1,DarkGreen,DarkGreen.jpg,Purple,Purple.jpg,,
,,,,,,,,,,,,,,,,,,4,,,,,,,,,,,,,,,,,,,,,,,,,,,,001,2021-12-06_02h18.08.632,jm_natural_scene_simialrity_2-12-2021,2021.2.3,Win32,76.37668983,60afdd81d19d38d900cf5154,61ad71e11ddd29ccf7a27d5b,61ad72c7234a343b10e465e2,,,,,,52,95,1,0,0,response1disk,1.0535,4,11,1,0,0,rectangle,-54,-103,1,0,0,-1,-1,"[76,138,139,97,84,73,55,11,110,147]",7,-12,1,0,0,0,10,10,9,1,Yellow,Yellow.jpg,Yellow,Yellow.jpg,response5disk_3,rectangle
,,,,,,,,,,,,,,,,,,-4,,,,,,,,,,,,,,,,,,,,,,,,,,,,001,2021-12-06_02h18.08.632,jm_natural_scene_simialrity_2-12-2021,2021.2.3,Win32,76.37668983,60afdd81d19d38d900cf5154,61ad71e11ddd29ccf7a27d5b,61ad72c7234a343b10e465e2,,,,,,-26,71,1,0,0,response7disk,1.3342,8,13,1,0,0,rectangle,8,13,1,0,0,-1,-2,"[76,138,139,97,84,73,55,11,110,147]",8,13,1,0,0,0,11,11,78,1,Pink,Pink.jpg,DarkBlue,DarkBlue.jpg,,
,,,,,,,,,,,,,,,,,,4,,,,,,,,,,,,,,,,,,,,,,,,,,,,001,2021-12-06_02h18.08.632,jm_natural_scene_simialrity_2-12-2021,2021.2.3,Win32,76.37668983,60afdd81d19d38d900cf5154,61ad71e11ddd29ccf7a27d5b,61ad72c7234a343b10e465e2,,,,,,49,104,1,0,0,response1disk,0.8935,-2,-8,1,0,0,rectangle,-2,-8,1,0,0,-1,2,"[76,138,139,97,84,73,55,11,110,147]",-2,-8,1,0,0,0,12,12,42,1,Pink,Pink.jpg,Pink,Pink.jpg,,
,,,,,,,,,,,,,,,,,,-4,,,,,,,,,,,,,,,,,,,,,,,,,,,,001,2021-12-06_02h18.08.632,jm_natural_scene_simialrity_2-12-2021,2021.2.3,Win32,76.37668983,60afdd81d19d38d900cf5154,61ad71e11ddd29ccf7a27d5b,61ad72c7234a343b10e465e2,,,,,,-48,73,1,0,0,response7disk,2.3075,-24,-2,1,0,0,rectangle,-24,-2,1,0,0,-1,3,"[76,138,139,97,84,73,55,11,110,147]",-24,-2,1,0,0,0,13,13,13,1,Yellow,Yellow.jpg,LightBlue,LightBlue.jpg,,
,,,,,,,,,,,,,,,,,,-1,,,,,,,,,,,,,,,,,,,,,,,,,,,,001,2021-12-06_02h18.08.632,jm_natural_scene_simialrity_2-12-2021,2021.2.3,Win32,76.37668983,60afdd81d19d38d900cf5154,61ad71e11ddd29ccf7a27d5b,61ad72c7234a343b10e465e2,,,,,,-80,-89,1,0,0,response5disk,3.4545,15,23,1,0,0,rectangle,15,23,1,0,0,-1,3,"[76,138,139,97,84,73,55,11,110,147]",15,23,1,0,0,0,14,14,74,1,Purple,Purple.jpg,Turquiose,Turquiose.jpg,,
,,,,,,,,,,,,,,,,,,-4,,,,,,,,,,,,,,,,,,,,,,,,,,,,001,2021-12-06_02h18.08.632,jm_natural_scene_simialrity_2-12-2021,2021.2.3,Win32,76.37668983,60afdd81d19d38d900cf5154,61ad71e11ddd29ccf7a27d5b,61ad72c7234a343b10e465e2,,,,,,-59,72,1,0,0,response7disk,1.3474,-13,-9,1,0,0,rectangle,-13,-9,1,0,0,-1,-4,"[76,138,139,97,84,73,55,11,110,147]",-13,-9,1,0,0,0,15,15,21,1,LightGreen,LightGreen.jpg,DarkBlue,DarkBlue.jpg,,
,,,,,,,,,,,,,,,,,,-4,,,,,,,,,,,,,,,,,,,,,,,,,,,,001,2021-12-06_02h18.08.632,jm_natural_scene_simialrity_2-12-2021,2021.2.3,Win32,76.37668983,60afdd81d19d38d900cf5154,61ad71e11ddd29ccf7a27d5b,61ad72c7234a343b10e465e2,,,,,,-28,75,1,0,0,response7disk,0.6269,23,11,1,0,0,rectangle,23,11,1,0,0,-1,-2,"[76,138,139,97,84,73,55,11,110,147]",23,11,1,0,0,0,16,16,69,1,Pink,Pink.jpg,DarkGreen,DarkGreen.jpg,,
,,,,,,,,,,,,,,,,,,-4,,,,,,,,,,,,,,,,,,,,,,,,,,,,001,2021-12-06_02h18.08.632,jm_natural_scene_simialrity_2-12-2021,2021.2.3,Win32,76.37668983,60afdd81d19d38d900cf5154,61ad71e11ddd29ccf7a27d5b,61ad72c7234a343b10e465e2,,,,,,-38,78,1,0,0,response7disk,0.6137,-9,17,1,0,0,rectangle,-9,17,1,0,0,-1,-1,"[76,138,139,97,84,73,55,11,110,147]",-9,17,1,0,0,0,17,17,65,1,Purple,Purple.jpg,LightGreen,LightGreen.jpg,,
,,,,,,,,,,,,,,,,,,1,,,,,,,,,,,,,,,,,,,,,,,,,,,,001,2021-12-06_02h18.08.632,jm_natural_scene_simialrity_2-12-2021,2021.2.3,Win32,76.37668983,60afdd81d19d38d900cf5154,61ad71e11ddd29ccf7a27d5b,61ad72c7234a343b10e465e2,,,,,,58,-94,1,0,0,response3disk,2.3742,-4,2,1,0,0,rectangle,-4,2,1,0,0,-1,-2,"[76,138,139,97,84,73,55,11,110,147]",-4,2,1,0,0,0,18,18,77,1,Purple,Purple.jpg,LightBlue,LightBlue.jpg,,
,,,,,,,,,,,,,,,,,,-3,,,,,,,,,,,,,,,,,,,,,,,,,,,,001,2021-12-06_02h18.08.632,jm_natural_scene_simialrity_2-12-2021,2021.2.3,Win32,76.37668983,60afdd81d19d38d900cf5154,61ad71e11ddd29ccf7a27d5b,61ad72c7234a343b10e465e2,,,,,,-95,39,1,0,0,response7disk,2.0007,4,-1,1,0,0,rectangle,4,-1,1,0,0,-1,-1,"[76,138,139,97,84,73,55,11,110,147]",4,-1,1,0,0,0,19,19,68,1,DarkBlue,DarkBlue.jpg,DarkGreen,DarkGreen.jpg,,
,,,,,,,,,,,,,,,,,,-4,,,,,,,,,,,,,,,,,,,,,,,,,,,,001,2021-12-06_02h18.08.632,jm_natural_scene_simialrity_2-12-2021,2021.2.3,Win32,76.37668983,60afdd81d19d38d900cf5154,61ad71e11ddd29ccf7a27d5b,61ad72c7234a343b10e465e2,,,,,,-35,89,1,0,0,response7disk,1.0538,-2,21,1,0,0,rectangle,-2,21,1,0,0,-1,-3,"[76,138,139,97,84,73,55,11,110,147]",-2,21,1,0,0,0,20,20,46,1,LightGreen,LightGreen.jpg,Red,Red.jpg,,
,,,,,,,,,,,,,,,,,,-3,,,,,,,,,,,,,,,,,,,,,,,,,,,,001,2021-12-06_02h18.08.632,jm_natural_scene_simialrity_2-12-2021,2021.2.3,Win32,76.37668983,60afdd81d19d38d900cf5154,61ad71e11ddd29ccf7a27d5b,61ad72c7234a343b10e465e2,,,,,,-98,45,1,0,0,response7disk,1.1876,-17,5,1,0,0,rectangle,-17,5,1,0,0,-1,2,"[76,138,139,97,84,73,55,11,110,147]",-17,5,1,0,0,0,21,21,27,1,DarkGreen,DarkGreen.jpg,DarkBlue,DarkBlue.jpg,,
,,,,,,,,,,,,,,,,,,-4,,,,,,,,,,,,,,,,,,,,,,,,,,,,001,2021-12-06_02h18.08.632,jm_natural_scene_simialrity_2-12-2021,2021.2.3,Win32,76.37668983,60afdd81d19d38d900cf5154,61ad71e11ddd29ccf7a27d5b,61ad72c7234a343b10e465e2,,,,,,-27,98,1,0,0,response7disk,0.7869,1,21,1,0,0,rectangle,1,21,1,0,0,-1,3,"[76,138,139,97,84,73,55,11,110,147]",1,21,1,0,0,0,22,22,24,1,DarkGreen,DarkGreen.jpg,DarkGreen,DarkGreen.jpg,,
,,,,,,,,,,,,,,,,,,-4,,,,,,,,,,,,,,,,,,,,,,,,,,,,001,2021-12-06_02h18.08.632,jm_natural_scene_simialrity_2-12-2021,2021.2.3,Win32,76.37668983,60afdd81d19d38d900cf5154,61ad71e11ddd29ccf7a27d5b,61ad72c7234a343b10e465e2,,,,,,-19,74,1,0,0,response7disk,0.9604,-24,2,1,0,0,rectangle,-24,2,1,0,0,-1,-3,"[76,138,139,97,84,73,55,11,110,147]",-24,2,1,0,0,0,23,23,34,1,Turquiose,Turquiose.jpg,Purple,Purple.jpg,,
,,,,,,,,,,,,,,,,,,4,,,,,,,,,,,,,,,,,,,,,,,,,,,,001,2021-12-06_02h18.08.632,jm_natural_scene_simialrity_2-12-2021,2021.2.3,Win32,76.37668983,60afdd81d19d38d900cf5154,61ad71e11ddd29ccf7a27d5b,61ad72c7234a343b10e465e2,,,,,,44,75,1,0,0,response1disk,0.8402,8,6,1,0,0,rectangle,8,6,1,0,0,-1,-3,"[76,138,139,97,84,73,55,11,110,147]",8,6,1,0,0,0,24,24,18,1,LightGreen,LightGreen.jpg,DarkGreen,DarkGreen.jpg,,
,,,,,,,,,,,,,,,,,,4,,,,,,,,,,,,,,,,,,,,,,,,,,,,001,2021-12-06_02h18.08.632,jm_natural_scene_simialrity_2-12-2021,2021.2.3,Win32,76.37668983,60afdd81d19d38d900cf5154,61ad71e11ddd29ccf7a27d5b,61ad72c7234a343b10e465e2,,,,,,32,80,1,0,0,response1disk,0.7075,-14,-7,1,0,0,rectangle,-14,-7,1,0,0,-1,1,"[76,138,139,97,84,73,55,11,110,147]",-14,-7,1,0,0,0,25,25,35,1,LightBlue,LightBlue.jpg,LightBlue,LightBlue.jpg,,
,,,,,,,,,,,,,,,,,,2,,,,,,,,,,,,,,,,,,,,,,,,,,,,001,2021-12-06_02h18.08.632,jm_natural_scene_simialrity_2-12-2021,2021.2.3,Win32,76.37668983,60afdd81d19d38d900cf5154,61ad71e11ddd29ccf7a27d5b,61ad72c7234a343b10e465e2,,,,,,63,-44,1,0,0,response3disk,1.1871,20,16,1,0,0,rectangle,20,16,1,0,0,-1,3,"[76,138,139,97,84,73,55,11,110,147]",20,16,1,0,0,0,26,26,31,1,Turquiose,Turquiose.jpg,LightBlue,LightBlue.jpg,,
,,,,,,,,,,,,,,,,,,-4,,,,,,,,,,,,,,,,,,,,,,,,,,,,001,2021-12-06_02h18.08.632,jm_natural_scene_simialrity_2-12-2021,2021.2.3,Win32,76.37668983,60afdd81d19d38d900cf5154,61ad71e11ddd29ccf7a27d5b,61ad72c7234a343b10e465e2,,,,,,-29,64,1,0,0,response7disk,0.7201,12,-2,1,0,0,rectangle,12,-2,1,0,0,-1,-3,"[76,138,139,97,84,73,55,11,110,147]",12,-2,1,0,0,0,27,27,16,1,Yellow,Yellow.jpg,Purple,Purple.jpg,,
,,,,,,,,,,,,,,,,,,-4,,,,,,,,,,,,,,,,,,,,,,,,,,,,001,2021-12-06_02h18.08.632,jm_natural_scene_simialrity_2-12-2021,2021.2.3,Win32,76.37668983,60afdd81d19d38d900cf5154,61ad71e11ddd29ccf7a27d5b,61ad72c7234a343b10e465e2,,,,,,-38,75,1,0,0,response7disk,1.0265,-21,-21,1,0,0,rectangle,-21,-21,1,0,0,-1,-2,"[76,138,139,97,84,73,55,11,110,147]",-21,-21,1,0,0,0,28,28,55,1,Turquiose,Turquiose.jpg,Yellow,Yellow.jpg,,
,,,,,,,,,,,,,,,,,,2,,,,,,,,,,,,,,,,,,,,,,,,,,,,001,2021-12-06_02h18.08.632,jm_natural_scene_simialrity_2-12-2021,2021.2.3,Win32,76.37668983,60afdd81d19d38d900cf5154,61ad71e11ddd29ccf7a27d5b,61ad72c7234a343b10e465e2,,,,,,83,-69,1,0,0,response3disk,2.0673,-25,6,1,0,0,rectangle,-25,6,1,0,0,-1,2,"[76,138,139,97,84,73,55,11,110,147]",-25,6,1,0,0,0,29,29,75,1,DarkBlue,DarkBlue.jpg,LightBlue,LightBlue.jpg,,
,,,,,,,,,,,,,,,,,,-4,,,,,,,,,,,,,,,,,,,,,,,,,,,,001,2021-12-06_02h18.08.632,jm_natural_scene_simialrity_2-12-2021,2021.2.3,Win32,76.37668983,60afdd81d19d38d900cf5154,61ad71e11ddd29ccf7a27d5b,61ad72c7234a343b10e465e2,,,,,,-29,71,1,0,0,response7disk,1.2408,-16,-20,1,0,0,rectangle,-16,-20,1,0,0,-1,-2,"[76,138,139,97,84,73,55,11,110,147]",-16,-20,1,0,0,0,30,30,28,1,DarkGreen,DarkGreen.jpg,Pink,Pink.jpg,,
,,,,,,,,,,,,,,,,,,4,,,,,,,,,,,,,,,,,,,,,,,,,,,,001,2021-12-06_02h18.08.632,jm_natural_scene_simialrity_2-12-2021,2021.2.3,Win32,76.37668983,60afdd81d19d38d900cf5154,61ad71e11ddd29ccf7a27d5b,61ad72c7234a343b10e465e2,,,,,,58,80,1,0,0,response1disk,0.8673,21,9,1,0,0,rectangle,21,9,1,0,0,-1,-4,"[76,138,139,97,84,73,55,11,110,147]",21,9,1,0,0,0,31,31,39,1,DarkBlue,DarkBlue.jpg,DarkBlue,DarkBlue.jpg,,
,,,,,,,,,,,,,,,,,,1,,,,,,,,,,,,,,,,,,,,,,,,,,,,001,2021-12-06_02h18.08.632,jm_natural_scene_simialrity_2-12-2021,2021.2.3,Win32,76.37668983,60afdd81d19d38d900cf5154,61ad71e11ddd29ccf7a27d5b,61ad72c7234a343b10e465e2,,,,,,38,-102,1,0,0,response3disk,1.8274,0,0,1,0,0,rectangle,0,0,1,0,0,-1,3,"[76,138,139,97,84,73,55,11,110,147]",0,0,1,0,0,0,32,32,38,1,LightBlue,LightBlue.jpg,Purple,Purple.jpg,,
,,,,,,,,,,,,,,,,,,-4,,,,,,,,,,,,,,,,,,,,,,,,,,,,001,2021-12-06_02h18.08.632,jm_natural_scene_simialrity_2-12-2021,2021.2.3,Win32,76.37668983,60afdd81d19d38d900cf5154,61ad71e11ddd29ccf7a27d5b,61ad72c7234a343b10e465e2,,,,,,-32,86,1,0,0,response7disk,1.0268,1,-7,1,0,0,rectangle,1,-7,1,0,0,-1,-4,"[76,138,139,97,84,73,55,11,110,147]",1,-7,1,0,0,0,33,33,40,1,DarkBlue,DarkBlue.jpg,Pink,Pink.jpg,,
,,,,,,,,,,,,,,,,,,-2,,,,,,,,,,,,,,,,,,,,,,,,,,,,001,2021-12-06_02h18.08.632,jm_natural_scene_simialrity_2-12-2021,2021.2.3,Win32,76.37668983,60afdd81d19d38d900cf5154,61ad71e11ddd29ccf7a27d5b,61ad72c7234a343b10e465e2,,,,,,-79,-42,1,0,0,response5disk,1.7074,3,-8,1,0,0,rectangle,3,-8,1,0,0,-1,3,"[76,138,139,97,84,73,55,11,110,147]",3,-8,1,0,0,0,34,34,43,1,Pink,Pink.jpg,Purple,Purple.jpg,,
,,,,,,,,,,,,,,,,,,3,,,,,,,,,,,,,,,,,,,,,,,,,,,,001,2021-12-06_02h18.08.632,jm_natural_scene_simialrity_2-12-2021,2021.2.3,Win32,76.37668983,60afdd81d19d38d900cf5154,61ad71e11ddd29ccf7a27d5b,61ad72c7234a343b10e465e2,,,,,,88,23,1,0,0,response1disk,2.9879,7,-10,1,0,0,rectangle,7,-10,1,0,0,-1,-1,"[76,138,139,97,84,73,55,11,110,147]",7,-10,1,0,0,0,35,35,51,1,Pink,Pink.jpg,Red,Red.jpg,,
,,,,,,,,,,,,,,,,,,-4,,,,,,,,,,,,,,,,,,,,,,,,,,,,001,2021-12-06_02h18.08.632,jm_natural_scene_simialrity_2-12-2021,2021.2.3,Win32,76.37668983,60afdd81d19d38d900cf5154,61ad71e11ddd29ccf7a27d5b,61ad72c7234a343b10e465e2,,,,,,-49,78,1,0,0,response7disk,0.7735,-14,-5,1,0,0,rectangle,-14,-5,1,0,0,-1,1,"[76,138,139,97,84,73,55,11,110,147]",-14,-5,1,0,0,0,36,36,11,1,Yellow,Yellow.jpg,DarkGreen,DarkGreen.jpg,,
,,,,,,,,,,,,,,,,,,3,,,,,,,,,,,,,,,,,,,,,,,,,,,,001,2021-12-06_02h18.08.632,jm_natural_scene_simialrity_2-12-2021,2021.2.3,Win32,76.37668983,60afdd81d19d38d900cf5154,61ad71e11ddd29ccf7a27d5b,61ad72c7234a343b10e465e2,,,,,,97,23,1,0,0,response1disk,4.9753,3,-1,1,0,0,rectangle,3,-1,1,0,0,-1,-2,"[76,138,139,97,84,73,55,11,110,147]",3,-1,1,0,0,0,37,37,79,1,Purple,Purple.jpg,DarkBlue,DarkBlue.jpg,,
,,,,,,,,,,,,,,,,,,-2,,,,,,,,,,,,,,,,,,,,,,,,,,,,001,2021-12-06_02h18.08.632,jm_natural_scene_simialrity_2-12-2021,2021.2.3,Win32,76.37668983,60afdd81d19d38d900cf5154,61ad71e11ddd29ccf7a27d5b,61ad72c7234a343b10e465e2,,,,,,-84,-61,1,0,0,response5disk,2.4679,13,-4,1,0,0,rectangle,13,-4,1,0,0,-1,3,"[76,138,139,97,84,73,55,11,110,147]",13,-4,1,0,0,0,38,38,52,1,Purple,Purple.jpg,Red,Red.jpg,,
,,,,,,,,,,,,,,,,,,4,,,,,,,,,,,,,,,,,,,,,,,,,,,,001,2021-12-06_02h18.08.632,jm_natural_scene_simialrity_2-12-2021,2021.2.3,Win32,76.37668983,60afdd81d19d38d900cf5154,61ad71e11ddd29ccf7a27d5b,61ad72c7234a343b10e465e2,,,,,,64,101,1,0,0,response1disk,0.8003,-2,-6,1,0,0,rectangle,-2,-6,1,0,0,-1,-2,"[76,138,139,97,84,73,55,11,110,147]",-2,-6,1,0,0,0,39,39,30,1,Turquiose,Turquiose.jpg,Turquiose,Turquiose.jpg,,
,,,,,,,,,,,,,,,,,,-3,,,,,,,,,,,,,,,,,,,,,,,,,,,,001,2021-12-06_02h18.08.632,jm_natural_scene_simialrity_2-12-2021,2021.2.3,Win32,76.37668983,60afdd81d19d38d900cf5154,61ad71e11ddd29ccf7a27d5b,61ad72c7234a343b10e465e2,,,,,,-54,36,1,0,0,response7disk,4.5749,7,-16,1,0,0,rectangle,7,-16,1,0,0,-1,-2,"[76,138,139,97,84,73,55,11,110,147]",7,-16,1,0,0,0,40,40,26,1,DarkGreen,DarkGreen.jpg,LightBlue,LightBlue.jpg,,
,,,,,,,,,,,,,,,,,,1,,,,,,,,,,,,,,,,,,,,,,,,,,,,001,2021-12-06_02h18.08.632,jm_natural_scene_simialrity_2-12-2021,2021.2.3,Win32,76.37668983,60afdd81d19d38d900cf5154,61ad71e11ddd29ccf7a27d5b,61ad72c7234a343b10e465e2,,,,,,58,-94,1,0,0,response3disk,2.2408,-10,11,1,0,0,rectangle,-10,11,1,0,0,-1,-4,"[76,138,139,97,84,73,55,11,110,147]",-10,11,1,0,0,0,41,41,36,1,LightBlue,LightBlue.jpg,DarkBlue,DarkBlue.jpg,,
,,,,,,,,,,,,,,,,,,-4,,,,,,,,,,,,,,,,,,,,,,,,,,,,001,2021-12-06_02h18.08.632,jm_natural_scene_simialrity_2-12-2021,2021.2.3,Win32,76.37668983,60afdd81d19d38d900cf5154,61ad71e11ddd29ccf7a27d5b,61ad72c7234a343b10e465e2,,,,,,-53,79,1,0,0,response7disk,1.3203,-13,14,1,0,0,rectangle,-13,14,1,0,0,-1,3,"[76,138,139,97,84,73,55,11,110,147]",-13,14,1,0,0,0,42,42,64,1,Pink,Pink.jpg,LightGreen,LightGreen.jpg,,
,,,,,,,,,,,,,,,,,,-1,,,,,,,,,,,,,,,,,,,,,,,,,,,,001,2021-12-06_02h18.08.632,jm_natural_scene_simialrity_2-12-2021,2021.2.3,Win32,76.37668983,60afdd81d19d38d900cf5154,61ad71e11ddd29ccf7a27d5b,61ad72c7234a343b10e465e2,,,,,,-42,-115,1,0,0,response5disk,2.0004,-16,-1,1,0,0,rectangle,-16,-1,1,0,0,-1,1,"[76,138,139,97,84,73,55,11,110,147]",-16,-1,1,0,0,0,43,43,71,1,LightBlue,LightBlue.jpg,Turquiose,Turquiose.jpg,,
,,,,,,,,,,,,,,,,,,-3,,,,,,,,,,,,,,,,,,,,,,,,,,,,001,2021-12-06_02h18.08.632,jm_natural_scene_simialrity_2-12-2021,2021.2.3,Win32,76.37668983,60afdd81d19d38d900cf5154,61ad71e11ddd29ccf7a27d5b,61ad72c7234a343b10e465e2,,,,,,-80,48,1,0,0,response7disk,1.9069,-13,12,1,0,0,rectangle,-13,12,1,0,0,-1,3,"[76,138,139,97,84,73,55,11,110,147]",-13,12,1,0,0,0,44,44,12,1,Yellow,Yellow.jpg,Turquiose,Turquiose.jpg,,
,,,,,,,,,,,,,,,,,,-4,,,,,,,,,,,,,,,,,,,,,,,,,,,,001,2021-12-06_02h18.08.632,jm_natural_scene_simialrity_2-12-2021,2021.2.3,Win32,76.37668983,60afdd81d19d38d900cf5154,61ad71e11ddd29ccf7a27d5b,61ad72c7234a343b10e465e2,,,,,,-44,73,1,0,0,response7disk,1.1607,0,7,1,0,0,rectangle,0,7,1,0,0,-1,-3,"[76,138,139,97,84,73,55,11,110,147]",0,7,1,0,0,0,45,45,61,1,Turquiose,Turquiose.jpg,LightGreen,LightGreen.jpg,,
,,,,,,,,,,,,,,,,,,4,,,,,,,,,,,,,,,,,,,,,,,,,,,,001,2021-12-06_02h18.08.632,jm_natural_scene_simialrity_2-12-2021,2021.2.3,Win32,76.37668983,60afdd81d19d38d900cf5154,61ad71e11ddd29ccf7a27d5b,61ad72c7234a343b10e465e2,,,,,,56,77,1,0,0,response1disk,1.1206,5,3,1,0,0,rectangle,5,3,1,0,0,-1,2,"[76,138,139,97,84,73,55,11,110,147]",5,3,1,0,0,0,46,46,0,1,Red,Red.jpg,Red,Red.jpg,,
,,,,,,,,,,,,,,,,,,1,,,,,,,,,,,,,,,,,,,,,,,,,,,,001,2021-12-06_02h18.08.632,jm_natural_scene_simialrity_2-12-2021,2021.2.3,Win32,76.37668983,60afdd81d19d38d900cf5154,61ad71e11ddd29ccf7a27d5b,61ad72c7234a343b10e465e2,,,,,,47,-91,1,0,0,response3disk,1.6407,5,-13,1,0,0,rectangle,5,-13,1,0,0,-1,1,"[76,138,139,97,84,73,55,11,110,147]",5,-13,1,0,0,0,47,47,63,1,DarkBlue,DarkBlue.jpg,LightGreen,LightGreen.jpg,,
,,,,,,,,,,,,,,,,,,3,,,,,,,,,,,,,,,,,,,,,,,,,,,,001,2021-12-06_02h18.08.632,jm_natural_scene_simialrity_2-12-2021,2021.2.3,Win32,76.37668983,60afdd81d19d38d900cf5154,61ad71e11ddd29ccf7a27d5b,61ad72c7234a343b10e465e2,,,,,,69,42,1,0,0,response1disk,1.4276,16,-10,1,0,0,rectangle,16,-10,1,0,0,-1,3,"[76,138,139,97,84,73,55,11,110,147]",16,-10,1,0,0,0,48,48,1,1,Red,Red.jpg,Yellow,Yellow.jpg,,
,,,,,,,,,,,,,,,,,,-3,,,,,,,,,,,,,,,,,,,,,,,,,,,,001,2021-12-06_02h18.08.632,jm_natural_scene_simialrity_2-12-2021,2021.2.3,Win32,76.37668983,60afdd81d19d38d900cf5154,61ad71e11ddd29ccf7a27d5b,61ad72c7234a343b10e465e2,,,,,,-64,23,1,0,0,response7disk,1.0808,0,-6,1,0,0,rectangle,0,-6,1,0,0,-1,1,"[76,138,139,97,84,73,55,11,110,147]",0,-6,1,0,0,0,49,49,4,1,Red,Red.jpg,Turquiose,Turquiose.jpg,,
,,,,,,,,,,,,,,,,,,-4,,,,,,,,,,,,,,,,,,,,,,,,,,,,001,2021-12-06_02h18.08.632,jm_natural_scene_simialrity_2-12-2021,2021.2.3,Win32,76.37668983,60afdd81d19d38d900cf5154,61ad71e11ddd29ccf7a27d5b,61ad72c7234a343b10e465e2,,,,,,-49,90,1,0,0,response7disk,2.0276,-9,-10,1,0,0,rectangle,-9,-10,1,0,0,-1,1,"[76,138,139,97,84,73,55,11,110,147]",-9,-10,1,0,0,0,50,50,22,1,LightGreen,LightGreen.jpg,Pink,Pink.jpg,,
,,,,,,,,,,,,,,,,,,-3,,,,,,,,,,,,,,,,,,,,,,,,,,,,001,2021-12-06_02h18.08.632,jm_natural_scene_simialrity_2-12-2021,2021.2.3,Win32,76.37668983,60afdd81d19d38d900cf5154,61ad71e11ddd29ccf7a27d5b,61ad72c7234a343b10e465e2,,,,,,-78,44,1,0,0,response7disk,1.507,22,-24,1,0,0,rectangle,22,-24,1,0,0,1,1,"[76,138,139,97,84,73,55,11,110,147]",22,-24,1,0,0,0,51,51,66,1,Turquiose,Turquiose.jpg,DarkGreen,DarkGreen.jpg,,
,,,,,,,,,,,,,,,,,,3,,,,,,,,,,,,,,,,,,,,,,,,,,,,001,2021-12-06_02h18.08.632,jm_natural_scene_simialrity_2-12-2021,2021.2.3,Win32,76.37668983,60afdd81d19d38d900cf5154,61ad71e11ddd29ccf7a27d5b,61ad72c7234a343b10e465e2,,,,,,91,35,1,0,0,response1disk,1.7339,19,2,1,0,0,rectangle,19,2,1,0,0,1,-4,"[76,138,139,97,84,73,55,11,110,147]",19,2,1,0,0,0,52,52,45,1,Yellow,Yellow.jpg,Red,Red.jpg,,
,,,,,,,,,,,,,,,,,,-2,,,,,,,,,,,,,,,,,,,,,,,,,,,,001,2021-12-06_02h18.08.632,jm_natural_scene_simialrity_2-12-2021,2021.2.3,Win32,76.37668983,60afdd81d19d38d900cf5154,61ad71e11ddd29ccf7a27d5b,61ad72c7234a343b10e465e2,,,,,,-77,-27,1,0,0,response5disk,1.2141,22,5,1,0,0,rectangle,22,5,1,0,0,1,-3,"[76,138,139,97,84,73,55,11,110,147]",22,5,1,0,0,0,53,53,19,1,LightGreen,LightGreen.jpg,Turquiose,Turquiose.jpg,,
,,,,,,,,,,,,,,,,,,2,,,,,,,,,,,,,,,,,,,,,,,,,,,,001,2021-12-06_02h18.08.632,jm_natural_scene_simialrity_2-12-2021,2021.2.3,Win32,76.37668983,60afdd81d19d38d900cf5154,61ad71e11ddd29ccf7a27d5b,61ad72c7234a343b10e465e2,,,,,,72,-63,1,0,0,response3disk,1.6405,9,11,1,0,0,rectangle,-126,54,1,0,0,-3,-3,"[76,138,139,97,84,73,55,11,110,147]",21,0,1,0,0,0,54,54,72,1,DarkBlue,DarkBlue.jpg,Turquiose,Turquiose.jpg,response7disk_3,rectangle
,,,,,,,,,,,,,,,,,,-3,,,,,,,,,,,,,,,,,,,,,,,,,,,,001,2021-12-06_02h18.08.632,jm_natural_scene_simialrity_2-12-2021,2021.2.3,Win32,76.37668983,60afdd81d19d38d900cf5154,61ad71e11ddd29ccf7a27d5b,61ad72c7234a343b10e465e2,,,,,,-98,30,1,0,0,response7disk,5.0286,-19,15,1,0,0,rectangle,-19,15,1,0,0,-3,2,"[76,138,139,97,84,73,55,11,110,147]",-19,15,1,0,0,0,55,55,59,1,Purple,Purple.jpg,Yellow,Yellow.jpg,,
,,,,,,,,,,,,,,,,,,-4,,,,,,,,,,,,,,,,,,,,,,,,,,,,001,2021-12-06_02h18.08.632,jm_natural_scene_simialrity_2-12-2021,2021.2.3,Win32,76.37668983,60afdd81d19d38d900cf5154,61ad71e11ddd29ccf7a27d5b,61ad72c7234a343b10e465e2,,,,,,-43,103,1,0,0,response7disk,2.4543,-2,-5,1,0,0,rectangle,-2,-5,1,0,0,-3,-4,"[76,138,139,97,84,73,55,11,110,147]",-2,-5,1,0,0,0,56,56,50,1,DarkBlue,DarkBlue.jpg,Red,Red.jpg,,
,,,,,,,,,,,,,,,,,,-4,,,,,,,,,,,,,,,,,,,,,,,,,,,,001,2021-12-06_02h18.08.632,jm_natural_scene_simialrity_2-12-2021,2021.2.3,Win32,76.37668983,60afdd81d19d38d900cf5154,61ad71e11ddd29ccf7a27d5b,61ad72c7234a343b10e465e2,,,,,,-48,82,1,0,0,response7disk,0.9202,1,-6,1,0,0,rectangle,1,-6,1,0,0,-3,-2,"[76,138,139,97,84,73,55,11,110,147]",1,-6,1,0,0,0,57,57,14,1,Yellow,Yellow.jpg,DarkBlue,DarkBlue.jpg,,
,,,,,,,,,,,,,,,,,,-2,,,,,,,,,,,,,,,,,,,,,,,,,,,,001,2021-12-06_02h18.08.632,jm_natural_scene_simialrity_2-12-2021,2021.2.3,Win32,76.37668983,60afdd81d19d38d900cf5154,61ad71e11ddd29ccf7a27d5b,61ad72c7234a343b10e465e2,,,,,,-66,-36,1,0,0,response5disk,1.1072,19,-15,1,0,0,rectangle,19,-15,1,0,0,-3,-4,"[76,138,139,97,84,73,55,11,110,147]",19,-15,1,0,0,0,58,58,80,1,Purple,Purple.jpg,Pink,Pink.jpg,,
,,,,,,,,,,,,,,,,,,-4,,,,,,,,,,,,,,,,,,,,,,,,,,,,001,2021-12-06_02h18.08.632,jm_natural_scene_simialrity_2-12-2021,2021.2.3,Win32,76.37668983,60afdd81d19d38d900cf5154,61ad71e11ddd29ccf7a27d5b,61ad72c7234a343b10e465e2,,,,,,-50,90,1,0,0,response7disk,3.2012,-3,0,1,0,0,rectangle,-3,0,1,0,0,-3,2,"[76,138,139,97,84,73,55,11,110,147]",-3,0,1,0,0,0,59,59,47,1,DarkGreen,DarkGreen.jpg,Red,Red.jpg,,
,,,,,,,,,,,,,,,,,,-4,,,,,,,,,,,,,,,,,,,,,,,,,,,,001,2021-12-06_02h18.08.632,jm_natural_scene_simialrity_2-12-2021,2021.2.3,Win32,76.37668983,60afdd81d19d38d900cf5154,61ad71e11ddd29ccf7a27d5b,61ad72c7234a343b10e465e2,,,,,,-41,72,1,0,0,response7disk,0.5874,0,1,1,0,0,rectangle,0,1,1,0,0,-3,-3,"[76,138,139,97,84,73,55,11,110,147]",0,1,1,0,0,0,60,60,2,1,Red,Red.jpg,LightGreen,LightGreen.jpg,,
,,,,,,,,,,,,,,,,,,-3,,,,,,,,,,,,,,,,,,,,,,,,,,,,001,2021-12-06_02h18.08.632,jm_natural_scene_simialrity_2-12-2021,2021.2.3,Win32,76.37668983,60afdd81d19d38d900cf5154,61ad71e11ddd29ccf7a27d5b,61ad72c7234a343b10e465e2,,,,,,-88,45,1,0,0,response7disk,1.7875,-20,20,1,0,0,rectangle,-20,20,1,0,0,-3,-3,"[76,138,139,97,84,73,55,11,110,147]",-20,20,1,0,0,0,61,61,23,1,LightGreen,LightGreen.jpg,Purple,Purple.jpg,,
,,,,,,,,,,,,,,,,,,-3,,,,,,,,,,,,,,,,,,,,,,,,,,,,001,2021-12-06_02h18.08.632,jm_natural_scene_simialrity_2-12-2021,2021.2.3,Win32,76.37668983,60afdd81d19d38d900cf5154,61ad71e11ddd29ccf7a27d5b,61ad72c7234a343b10e465e2,,,,,,-76,58,1,0,0,response7disk,1.7608,12,-8,1,0,0,rectangle,12,-8,1,0,0,-3,-2,"[76,138,139,97,84,73,55,11,110,147]",12,-8,1,0,0,0,62,62,25,1,DarkGreen,DarkGreen.jpg,Turquiose,Turquiose.jpg,,
,,,,,,,,,,,,,,,,,,-3,,,,,,,,,,,,,,,,,,,,,,,,,,,,001,2021-12-06_02h18.08.632,jm_natural_scene_simialrity_2-12-2021,2021.2.3,Win32,76.37668983,60afdd81d19d38d900cf5154,61ad71e11ddd29ccf7a27d5b,61ad72c7234a343b10e465e2,,,,,,-73,44,1,0,0,response7disk,1.374,12,-1,1,0,0,rectangle,12,-1,1,0,0,-3,2,"[76,138,139,97,84,73,55,11,110,147]",12,-1,1,0,0,0,63,63,8,1,Red,Red.jpg,Purple,Purple.jpg,,
,,,,,,,,,,,,,,,,,,-4,,,,,,,,,,,,,,,,,,,,,,,,,,,,001,2021-12-06_02h18.08.632,jm_natural_scene_simialrity_2-12-2021,2021.2.3,Win32,76.37668983,60afdd81d19d38d900cf5154,61ad71e11ddd29ccf7a27d5b,61ad72c7234a343b10e465e2,,,,,,-46,63,1,0,0,response7disk,2.2679,-19,12,1,0,0,rectangle,-19,12,1,0,0,-3,3,"[76,138,139,97,84,73,55,11,110,147]",-19,12,1,0,0,0,64,64,5,1,Red,Red.jpg,LightBlue,LightBlue.jpg,,
,,,,,,,,,,,,,,,,,,3,,,,,,,,,,,,,,,,,,,,,,,,,,,,001,2021-12-06_02h18.08.632,jm_natural_scene_simialrity_2-12-2021,2021.2.3,Win32,76.37668983,60afdd81d19d38d900cf5154,61ad71e11ddd29ccf7a27d5b,61ad72c7234a343b10e465e2,,,,,,78,27,1,0,0,response1disk,1.3734,-8,-2,1,0,0,rectangle,-8,-2,1,0,0,-3,-1,"[76,138,139,97,84,73,55,11,110,147]",-8,-2,1,0,0,0,65,65,15,1,Yellow,Yellow.jpg,Pink,Pink.jpg,,
,,,,,,,,,,,,,,,,,,-3,,,,,,,,,,,,,,,,,,,,,,,,,,,,001,2021-12-06_02h18.08.632,jm_natural_scene_simialrity_2-12-2021,2021.2.3,Win32,76.37668983,60afdd81d19d38d900cf5154,61ad71e11ddd29ccf7a27d5b,61ad72c7234a343b10e465e2,,,,,,-106,100,1,0,0,response7disk,1.2802,-1,1,1,0,0,rectangle,-1,1,1,0,0,-3,2,"[76,138,139,97,84,73,55,11,110,147]",-1,1,1,0,0,0,66,66,49,1,LightBlue,LightBlue.jpg,Red,Red.jpg,,
,,,,,,,,,,,,,,,,,,-4,,,,,,,,,,,,,,,,,,,,,,,,,,,,001,2021-12-06_02h18.08.632,jm_natural_scene_simialrity_2-12-2021,2021.2.3,Win32,76.37668983,60afdd81d19d38d900cf5154,61ad71e11ddd29ccf7a27d5b,61ad72c7234a343b10e465e2,,,,,,-55,82,1,0,0,response7disk,1.8404,-10,22,1,0,0,rectangle,-10,22,1,0,0,-3,1,"[76,138,139,97,84,73,55,11,110,147]",-10,22,1,0,0,0,67,67,33,1,Turquiose,Turquiose.jpg,Pink,Pink.jpg,,
,,,,,,,,,,,,,,,,,,-3,,,,,,,,,,,,,,,,,,,,,,,,,,,,001,2021-12-06_02h18.08.632,jm_natural_scene_simialrity_2-12-2021,2021.2.3,Win32,76.37668983,60afdd81d19d38d900cf5154,61ad71e11ddd29ccf7a27d5b,61ad72c7234a343b10e465e2,,,,,,-108,40,1,0,0,response7disk,1.2941,-20,1,1,0,0,rectangle,-20,1,1,0,0,-3,2,"[76,138,139,97,84,73,55,11,110,147]",-20,1,1,0,0,0,68,68,70,1,Purple,Purple.jpg,DarkGreen,DarkGreen.jpg,,
,,,,,,,,,,,,,,,,,,-3,,,,,,,,,,,,,,,,,,,,,,,,,,,,001,2021-12-06_02h18.08.632,jm_natural_scene_simialrity_2-12-2021,2021.2.3,Win32,76.37668983,60afdd81d19d38d900cf5154,61ad71e11ddd29ccf7a27d5b,61ad72c7234a343b10e465e2,,,,,,-82,58,1,0,0,response7disk,1.9339,-2,13,1,0,0,rectangle,-2,13,1,0,0,-3,-4,"[76,138,139,97,84,73,55,11,110,147]",-2,13,1,0,0,0,69,69,37,1,LightBlue,LightBlue.jpg,Pink,Pink.jpg,,
,,,,,,,,,,,,,,,,,,-3,,,,,,,,,,,,,,,,,,,,,,,,,,,,001,2021-12-06_02h18.08.632,jm_natural_scene_simialrity_2-12-2021,2021.2.3,Win32,76.37668983,60afdd81d19d38d900cf5154,61ad71e11ddd29ccf7a27d5b,61ad72c7234a343b10e465e2,,,,,,-72,49,1,0,0,response7disk,1.3206,11,13,1,0,0,rectangle,11,13,1,0,0,-3,-2,"[76,138,139,97,84,73,55,11,110,147]",11,13,1,0,0,0,70,70,73,1,Pink,Pink.jpg,Turquiose,Turquiose.jpg,,
,,,,,,,,,,,,,,,,,,-3,,,,,,,,,,,,,,,,,,,,,,,,,,,,001,2021-12-06_02h18.08.632,jm_natural_scene_simialrity_2-12-2021,2021.2.3,Win32,76.37668983,60afdd81d19d38d900cf5154,61ad71e11ddd29ccf7a27d5b,61ad72c7234a343b10e465e2,,,,,,-96,53,1,0,0,response7disk,1.054,15,-4,1,0,0,rectangle,15,-4,1,0,0,-3,-1,"[76,138,139,97,84,73,55,11,110,147]",15,-4,1,0,0,0,71,71,48,1,Turquiose,Turquiose.jpg,Red,Red.jpg,,
,,,,,,,,,,,,,,,,,,-3,,,,,,,,,,,,,,,,,,,,,,,,,,,,001,2021-12-06_02h18.08.632,jm_natural_scene_simialrity_2-12-2021,2021.2.3,Win32,76.37668983,60afdd81d19d38d900cf5154,61ad71e11ddd29ccf7a27d5b,61ad72c7234a343b10e465e2,,,,,,-61,48,1,0,0,response7disk,0.52,15,-7,1,0,0,rectangle,-41,93,1,0,0,-4,-4,"[76,138,139,97,84,73,55,11,110,147]",-7,8,1,0,0,0,72,72,76,1,Pink,Pink.jpg,LightBlue,LightBlue.jpg,response7disk_3,rectangle
,,,,,,,,,,,,,,,,,,-3,,,,,,,,,,,,,,,,,,,,,,,,,,,,001,2021-12-06_02h18.08.632,jm_natural_scene_simialrity_2-12-2021,2021.2.3,Win32,76.37668983,60afdd81d19d38d900cf5154,61ad71e11ddd29ccf7a27d5b,61ad72c7234a343b10e465e2,,,,,,-70,51,1,0,0,response7disk,1.427,6,17,1,0,0,rectangle,6,17,1,0,0,-4,-2,"[76,138,139,97,84,73,55,11,110,147]",6,17,1,0,0,0,73,73,67,1,LightBlue,LightBlue.jpg,DarkGreen,DarkGreen.jpg,,
,,,,,,,,,,,,,,,,,,-3,,,,,,,,,,,,,,,,,,,,,,,,,,,,001,2021-12-06_02h18.08.632,jm_natural_scene_simialrity_2-12-2021,2021.2.3,Win32,76.37668983,60afdd81d19d38d900cf5154,61ad71e11ddd29ccf7a27d5b,61ad72c7234a343b10e465e2,,,,,,-60,39,1,0,0,response7disk,0.4533,5,2,1,0,0,rectangle,5,2,1,0,0,-4,1,"[76,138,139,97,84,73,55,11,110,147]",5,2,1,0,0,0,74,74,62,1,LightBlue,LightBlue.jpg,LightGreen,LightGreen.jpg,,
,,,,,,,,,,,,,,,,,,-3,,,,,,,,,,,,,,,,,,,,,,,,,,,,001,2021-12-06_02h18.08.632,jm_natural_scene_simialrity_2-12-2021,2021.2.3,Win32,76.37668983,60afdd81d19d38d900cf5154,61ad71e11ddd29ccf7a27d5b,61ad72c7234a343b10e465e2,,,,,,-70,37,1,0,0,response7disk,0.6799,-23,0,1,0,0,rectangle,67,-45,1,0,0,2,2,"[76,138,139,97,84,73,55,11,110,147]",-10,-6,1,0,0,0,75,75,54,1,DarkGreen,DarkGreen.jpg,Yellow,Yellow.jpg,response3disk_3,rectangle
,,,,,,,,,,,,,,,,,,-4,,,,,,,,,,,,,,,,,,,,,,,,,,,,001,2021-12-06_02h18.08.632,jm_natural_scene_simialrity_2-12-2021,2021.2.3,Win32,76.37668983,60afdd81d19d38d900cf5154,61ad71e11ddd29ccf7a27d5b,61ad72c7234a343b10e465e2,,,,,,-47,79,1,0,0,response7disk,3.7748,-3,-3,1,0,0,rectangle,-3,-3,1,0,0,2,1,"[76,138,139,97,84,73,55,11,110,147]",-3,-3,1,0,0,0,76,76,57,1,DarkBlue,DarkBlue.jpg,Yellow,Yellow.jpg,,
,,,,,,,,,,,,,,,,,,-4,,,,,,,,,,,,,,,,,,,,,,,,,,,,001,2021-12-06_02h18.08.632,jm_natural_scene_simialrity_2-12-2021,2021.2.3,Win32,76.37668983,60afdd81d19d38d900cf5154,61ad71e11ddd29ccf7a27d5b,61ad72c7234a343b10e465e2,,,,,,-35,61,1,0,0,response7disk,1.9209,-1,-5,1,0,0,rectangle,-1,-5,1,0,0,2,-2,"[76,138,139,97,84,73,55,11,110,147]",-1,-5,1,0,0,0,77,77,53,1,LightGreen,LightGreen.jpg,Yellow,Yellow.jpg,,
,,,,,,,,,,,,,,,,,,4,,,,,,,,,,,,,,,,,,,,,,,,,,,,001,2021-12-06_02h18.08.632,jm_natural_scene_simialrity_2-12-2021,2021.2.3,Win32,76.37668983,60afdd81d19d38d900cf5154,61ad71e11ddd29ccf7a27d5b,61ad72c7234a343b10e465e2,,,,,,48,71,1,0,0,response1disk,0.7336,-2,12,1,0,0,rectangle,-2,12,1,0,0,2,-1,"[76,138,139,97,84,73,55,11,110,147]",-2,12,1,0,0,0,78,78,44,1,Purple,Purple.jpg,Purple,Purple.jpg,,
,,,,,,,,,,,,,,,,,,-3,,,,,,,,,,,,,,,,,,,,,,,,,,,,001,2021-12-06_02h18.08.632,jm_natural_scene_simialrity_2-12-2021,2021.2.3,Win32,76.37668983,60afdd81d19d38d900cf5154,61ad71e11ddd29ccf7a27d5b,61ad72c7234a343b10e465e2,,,,,,-90,48,1,0,0,response7disk,2.1607,-11,7,1,0,0,rectangle,-11,7,1,0,0,2,-2,"[76,138,139,97,84,73,55,11,110,147]",-11,7,1,0,0,0,79,79,20,1,LightGreen,LightGreen.jpg,LightBlue,LightBlue.jpg,,
,,,,,,,,,,,,,,,,,,-4,,,,,,,,,,,,,,,,,,,,,,,,,,,,001,2021-12-06_02h18.08.632,jm_natural_scene_simialrity_2-12-2021,2021.2.3,Win32,76.37668983,60afdd81d19d38d900cf5154,61ad71e11ddd29ccf7a27d5b,61ad72c7234a343b10e465e2,,,,,,-49,69,1,0,0,response7disk,5.6419,-23,20,1,0,0,rectangle,-23,20,1,0,0,-3,2,"[76,138,139,97,84,73,55,11,110,147]",-23,20,1,0,0,0,80,80,56,1,LightBlue,LightBlue.jpg,Yellow,Yellow.jpg,,
,,,,,,,,,,,,,,,,,,-3,,,,,,,,,,,,,,,,,,,,,,,,,,,,001,2021-12-06_02h18.08.632,jm_natural_scene_simialrity_2-12-2021,2021.2.3,Win32,76.37668983,60afdd81d19d38d900cf5154,61ad71e11ddd29ccf7a27d5b,61ad72c7234a343b10e465e2,,,,,,-74,50,1,0,0,response7disk,0.8,-20,3,1,0,0,rectangle,-20,3,1,0,0,-3,-2,"[76,138,139,97,84,73,55,11,110,147]",-20,3,1,0,0,1,0,81,13,1,Yellow,Yellow.jpg,LightBlue,LightBlue.jpg,,
,,,,,,,,,,,,,,,,,,-3,,,,,,,,,,,,,,,,,,,,,,,,,,,,001,2021-12-06_02h18.08.632,jm_natural_scene_simialrity_2-12-2021,2021.2.3,Win32,76.37668983,60afdd81d19d38d900cf5154,61ad71e11ddd29ccf7a27d5b,61ad72c7234a343b10e465e2,,,,,,-78,60,1,0,0,response7disk,4.2414,13,22,1,0,0,rectangle,13,22,1,0,0,-3,-4,"[76,138,139,97,84,73,55,11,110,147]",13,22,1,0,0,1,1,82,16,1,Yellow,Yellow.jpg,Purple,Purple.jpg,,
,,,,,,,,,,,,,,,,,,-3,,,,,,,,,,,,,,,,,,,,,,,,,,,,001,2021-12-06_02h18.08.632,jm_natural_scene_simialrity_2-12-2021,2021.2.3,Win32,76.37668983,60afdd81d19d38d900cf5154,61ad71e11ddd29ccf7a27d5b,61ad72c7234a343b10e465e2,,,,,,-62,45,1,0,0,response7disk,0.5603,-11,-5,1,0,0,rectangle,71,-50,1,0,0,2,2,"[76,138,139,97,84,73,55,11,110,147]",3,-3,1,0,0,1,2,83,59,1,Purple,Purple.jpg,Yellow,Yellow.jpg,response3disk_3,rectangle
,,,,,,,,,,,,,,,,,,-3,,,,,,,,,,,,,,,,,,,,,,,,,,,,001,2021-12-06_02h18.08.632,jm_natural_scene_simialrity_2-12-2021,2021.2.3,Win32,76.37668983,60afdd81d19d38d900cf5154,61ad71e11ddd29ccf7a27d5b,61ad72c7234a343b10e465e2,,,,,,-79,64,1,0,0,response7disk,1.8141,11,9,1,0,0,rectangle,11,9,1,0,0,2,-4,"[76,138,139,97,84,73,55,11,110,147]",11,9,1,0,0,1,3,84,70,1,Purple,Purple.jpg,DarkGreen,DarkGreen.jpg,,
,,,,,,,,,,,,,,,,,,-4,,,,,,,,,,,,,,,,,,,,,,,,,,,,001,2021-12-06_02h18.08.632,jm_natural_scene_simialrity_2-12-2021,2021.2.3,Win32,76.37668983,60afdd81d19d38d900cf5154,61ad71e11ddd29ccf7a27d5b,61ad72c7234a343b10e465e2,,,,,,-23,101,1,0,0,response7disk,2.8278,-24,8,1,0,0,rectangle,-24,8,1,0,0,2,-1,"[76,138,139,97,84,73,55,11,110,147]",-24,8,1,0,0,1,4,85,76,1,Pink,Pink.jpg,LightBlue,LightBlue.jpg,,
,,,,,,,,,,,,,,,,,,2,,,,,,,,,,,,,,,,,,,,,,,,,,,,001,2021-12-06_02h18.08.632,jm_natural_scene_simialrity_2-12-2021,2021.2.3,Win32,76.37668983,60afdd81d19d38d900cf5154,61ad71e11ddd29ccf7a27d5b,61ad72c7234a343b10e465e2,,,,,,113,-55,1,0,0,response3disk,5.6822,-2,-6,1,0,0,rectangle,-2,-6,1,0,0,2,1,"[76,138,139,97,84,73,55,11,110,147]",-2,-6,1,0,0,1,5,86,15,1,Yellow,Yellow.jpg,Pink,Pink.jpg,,
,,,,,,,,,,,,,,,,,,4,,,,,,,,,,,,,,,,,,,,,,,,,,,,001,2021-12-06_02h18.08.632,jm_natural_scene_simialrity_2-12-2021,2021.2.3,Win32,76.37668983,60afdd81d19d38d900cf5154,61ad71e11ddd29ccf7a27d5b,61ad72c7234a343b10e465e2,,,,,,44,86,1,0,0,response1disk,0.8404,18,5,1,0,0,rectangle,18,5,1,0,0,2,-4,"[76,138,139,97,84,73,55,11,110,147]",18,5,1,0,0,1,6,87,0,1,Red,Red.jpg,Red,Red.jpg,,
,,,,,,,,,,,,,,,,,,-4,,,,,,,,,,,,,,,,,,,,,,,,,,,,001,2021-12-06_02h18.08.632,jm_natural_scene_simialrity_2-12-2021,2021.2.3,Win32,76.37668983,60afdd81d19d38d900cf5154,61ad71e11ddd29ccf7a27d5b,61ad72c7234a343b10e465e2,,,,,,-36,105,1,0,0,response7disk,1.5605,-7,-13,1,0,0,rectangle,-7,-13,1,0,0,2,2,"[76,138,139,97,84,73,55,11,110,147]",-7,-13,1,0,0,1,7,88,22,1,LightGreen,LightGreen.jpg,Pink,Pink.jpg,,
,,,,,,,,,,,,,,,,,,-4,,,,,,,,,,,,,,,,,,,,,,,,,,,,001,2021-12-06_02h18.08.632,jm_natural_scene_simialrity_2-12-2021,2021.2.3,Win32,76.37668983,60afdd81d19d38d900cf5154,61ad71e11ddd29ccf7a27d5b,61ad72c7234a343b10e465e2,,,,,,-67,101,1,0,0,response7disk,0.7473,-22,-11,1,0,0,rectangle,-22,-11,1,0,0,2,-3,"[76,138,139,97,84,73,55,11,110,147]",-22,-11,1,0,0,1,8,89,5,1,Red,Red.jpg,LightBlue,LightBlue.jpg,,
,,,,,,,,,,,,,,,,,,2,,,,,,,,,,,,,,,,,,,,,,,,,,,,001,2021-12-06_02h18.08.632,jm_natural_scene_simialrity_2-12-2021,2021.2.3,Win32,76.37668983,60afdd81d19d38d900cf5154,61ad71e11ddd29ccf7a27d5b,61ad72c7234a343b10e465e2,,,,,,94,-41,1,0,0,response3disk,1.9073,10,-16,1,0,0,rectangle,10,-16,1,0,0,2,-4,"[76,138,139,97,84,73,55,11,110,147]",10,-16,1,0,0,1,9,90,32,1,Turquiose,Turquiose.jpg,DarkBlue,DarkBlue.jpg,,
,,,,,,,,,,,,,,,,,,-4,,,,,,,,,,,,,,,,,,,,,,,,,,,,001,2021-12-06_02h18.08.632,jm_natural_scene_simialrity_2-12-2021,2021.2.3,Win32,76.37668983,60afdd81d19d38d900cf5154,61ad71e11ddd29ccf7a27d5b,61ad72c7234a343b10e465e2,,,,,,-51,79,1,0,0,response7disk,1.6672,-25,-16,1,0,0,rectangle,-25,-16,1,0,0,2,-4,"[76,138,139,97,84,73,55,11,110,147]",-25,-16,1,0,0,1,10,91,4,1,Red,Red.jpg,Turquiose,Turquiose.jpg,,
,,,,,,,,,,,,,,,,,,-4,,,,,,,,,,,,,,,,,,,,,,,,,,,,001,2021-12-06_02h18.08.632,jm_natural_scene_simialrity_2-12-2021,2021.2.3,Win32,76.37668983,60afdd81d19d38d900cf5154,61ad71e11ddd29ccf7a27d5b,61ad72c7234a343b10e465e2,,,,,,-32,74,1,0,0,response7disk,1.5474,3,-7,1,0,0,rectangle,3,-7,1,0,0,2,2,"[76,138,139,97,84,73,55,11,110,147]",3,-7,1,0,0,1,11,92,53,1,LightGreen,LightGreen.jpg,Yellow,Yellow.jpg,,
,,,,,,,,,,,,,,,,,,-2,,,,,,,,,,,,,,,,,,,,,,,,,,,,001,2021-12-06_02h18.08.632,jm_natural_scene_simialrity_2-12-2021,2021.2.3,Win32,76.37668983,60afdd81d19d38d900cf5154,61ad71e11ddd29ccf7a27d5b,61ad72c7234a343b10e465e2,,,,,,-93,-40,1,0,0,response5disk,2.1743,7,5,1,0,0,rectangle,7,5,1,0,0,2,-2,"[76,138,139,97,84,73,55,11,110,147]",7,5,1,0,0,1,12,93,41,1,DarkBlue,DarkBlue.jpg,Purple,Purple.jpg,,
,,,,,,,,,,,,,,,,,,-4,,,,,,,,,,,,,,,,,,,,,,,,,,,,001,2021-12-06_02h18.08.632,jm_natural_scene_simialrity_2-12-2021,2021.2.3,Win32,76.37668983,60afdd81d19d38d900cf5154,61ad71e11ddd29ccf7a27d5b,61ad72c7234a343b10e465e2,,,,,,-45,75,1,0,0,response7disk,1.1468,-11,13,1,0,0,rectangle,-11,13,1,0,0,2,3,"[76,138,139,97,84,73,55,11,110,147]",-11,13,1,0,0,1,13,94,23,1,LightGreen,LightGreen.jpg,Purple,Purple.jpg,,
,,,,,,,,,,,,,,,,,,2,,,,,,,,,,,,,,,,,,,,,,,,,,,,001,2021-12-06_02h18.08.632,jm_natural_scene_simialrity_2-12-2021,2021.2.3,Win32,76.37668983,60afdd81d19d38d900cf5154,61ad71e11ddd29ccf7a27d5b,61ad72c7234a343b10e465e2,,,,,,82,-46,1,0,0,response3disk,1.627,5,4,1,0,0,rectangle,5,4,1,0,0,2,-4,"[76,138,139,97,84,73,55,11,110,147]",5,4,1,0,0,1,14,95,36,1,LightBlue,LightBlue.jpg,DarkBlue,DarkBlue.jpg,,
,,,,,,,,,,,,,,,,,,-4,,,,,,,,,,,,,,,,,,,,,,,,,,,,001,2021-12-06_02h18.08.632,jm_natural_scene_simialrity_2-12-2021,2021.2.3,Win32,76.37668983,60afdd81d19d38d900cf5154,61ad71e11ddd29ccf7a27d5b,61ad72c7234a343b10e465e2,,,,,,-59,69,1,0,0,response7disk,2.8941,-24,10,1,0,0,rectangle,-89,55,1,0,0,-3,-3,"[76,138,139,97,84,73,55,11,110,147]",-15,15,1,0,0,1,15,96,57,1,DarkBlue,DarkBlue.jpg,Yellow,Yellow.jpg,response7disk_3,rectangle
,,,,,,,,,,,,,,,,,,-4,,,,,,,,,,,,,,,,,,,,,,,,,,,,001,2021-12-06_02h18.08.632,jm_natural_scene_simialrity_2-12-2021,2021.2.3,Win32,76.37668983,60afdd81d19d38d900cf5154,61ad71e11ddd29ccf7a27d5b,61ad72c7234a343b10e465e2,,,,,,-63,97,1,0,0,response7disk,1.2006,0,-11,1,0,0,rectangle,0,-11,1,0,0,-3,-2,"[76,138,139,97,84,73,55,11,110,147]",0,-11,1,0,0,1,16,97,27,1,DarkGreen,DarkGreen.jpg,DarkBlue,DarkBlue.jpg,,
,,,,,,,,,,,,,,,,,,-4,,,,,,,,,,,,,,,,,,,,,,,,,,,,001,2021-12-06_02h18.08.632,jm_natural_scene_simialrity_2-12-2021,2021.2.3,Win32,76.37668983,60afdd81d19d38d900cf5154,61ad71e11ddd29ccf7a27d5b,61ad72c7234a343b10e465e2,,,,,,-33,68,1,0,0,response7disk,1.0271,0,-22,1,0,0,rectangle,0,-22,1,0,0,-3,3,"[76,138,139,97,84,73,55,11,110,147]",0,-22,1,0,0,1,17,98,67,1,LightBlue,LightBlue.jpg,DarkGreen,DarkGreen.jpg,,
,,,,,,,,,,,,,,,,,,-4,,,,,,,,,,,,,,,,,,,,,,,,,,,,001,2021-12-06_02h18.08.632,jm_natural_scene_simialrity_2-12-2021,2021.2.3,Win32,76.37668983,60afdd81d19d38d900cf5154,61ad71e11ddd29ccf7a27d5b,61ad72c7234a343b10e465e2,,,,,,-32,77,1,0,0,response7disk,0.7198,-6,-4,1,0,0,rectangle,-6,-4,1,0,0,-3,2,"[76,138,139,97,84,73,55,11,110,147]",-6,-4,1,0,0,1,18,99,37,1,LightBlue,LightBlue.jpg,Pink,Pink.jpg,,
,,,,,,,,,,,,,,,,,,4,,,,,,,,,,,,,,,,,,,,,,,,,,,,001,2021-12-06_02h18.08.632,jm_natural_scene_simialrity_2-12-2021,2021.2.3,Win32,76.37668983,60afdd81d19d38d900cf5154,61ad71e11ddd29ccf7a27d5b,61ad72c7234a343b10e465e2,,,,,,66,106,1,0,0,response1disk,0.9606,2,-13,1,0,0,rectangle,2,-13,1,0,0,-3,-1,"[76,138,139,97,84,73,55,11,110,147]",2,-13,1,0,0,1,19,100,17,1,LightGreen,LightGreen.jpg,LightGreen,LightGreen.jpg,,
,,,,,,,,,,,,,,,,,,-4,,,,,,,,,,,,,,,,,,,,,,,,,,,,001,2021-12-06_02h18.08.632,jm_natural_scene_simialrity_2-12-2021,2021.2.3,Win32,76.37668983,60afdd81d19d38d900cf5154,61ad71e11ddd29ccf7a27d5b,61ad72c7234a343b10e465e2,,,,,,-46,91,1,0,0,response7disk,4.2282,-15,-4,1,0,0,rectangle,-15,-4,1,0,0,-3,2,"[76,138,139,97,84,73,55,11,110,147]",-15,-4,1,0,0,1,20,101,10,1,Yellow,Yellow.jpg,LightGreen,LightGreen.jpg,,
,,,,,,,,,,,,,,,,,,-4,,,,,,,,,,,,,,,,,,,,,,,,,,,,001,2021-12-06_02h18.08.632,jm_natural_scene_simialrity_2-12-2021,2021.2.3,Win32,76.37668983,60afdd81d19d38d900cf5154,61ad71e11ddd29ccf7a27d5b,61ad72c7234a343b10e465e2,,,,,,-36,65,1,0,0,response7disk,1.1203,-5,-14,1,0,0,rectangle,-5,-14,1,0,0,-3,3,"[76,138,139,97,84,73,55,11,110,147]",-5,-14,1,0,0,1,21,102,49,1,LightBlue,LightBlue.jpg,Red,Red.jpg,,
,,,,,,,,,,,,,,,,,,-3,,,,,,,,,,,,,,,,,,,,,,,,,,,,001,2021-12-06_02h18.08.632,jm_natural_scene_simialrity_2-12-2021,2021.2.3,Win32,76.37668983,60afdd81d19d38d900cf5154,61ad71e11ddd29ccf7a27d5b,61ad72c7234a343b10e465e2,,,,,,-75,35,1,0,0,response7disk,1.4003,-7,-14,1,0,0,rectangle,-7,-14,1,0,0,-3,-4,"[76,138,139,97,84,73,55,11,110,147]",-7,-14,1,0,0,1,22,103,34,1,Turquiose,Turquiose.jpg,Purple,Purple.jpg,,
,,,,,,,,,,,,,,,,,,-4,,,,,,,,,,,,,,,,,,,,,,,,,,,,001,2021-12-06_02h18.08.632,jm_natural_scene_simialrity_2-12-2021,2021.2.3,Win32,76.37668983,60afdd81d19d38d900cf5154,61ad71e11ddd29ccf7a27d5b,61ad72c7234a343b10e465e2,,,,,,-36,55,1,0,0,response7disk,0.827,14,-2,1,0,0,rectangle,14,-2,1,0,0,-3,-4,"[76,138,139,97,84,73,55,11,110,147]",14,-2,1,0,0,1,23,104,47,1,DarkGreen,DarkGreen.jpg,Red,Red.jpg,,
,,,,,,,,,,,,,,,,,,-3,,,,,,,,,,,,,,,,,,,,,,,,,,,,001,2021-12-06_02h18.08.632,jm_natural_scene_simialrity_2-12-2021,2021.2.3,Win32,76.37668983,60afdd81d19d38d900cf5154,61ad71e11ddd29ccf7a27d5b,61ad72c7234a343b10e465e2,,,,,,-89,48,1,0,0,response7disk,1.6404,-1,-7,1,0,0,rectangle,-1,-7,1,0,0,-3,-4,"[76,138,139,97,84,73,55,11,110,147]",-1,-7,1,0,0,1,24,105,80,1,Purple,Purple.jpg,Pink,Pink.jpg,,
,,,,,,,,,,,,,,,,,,4,,,,,,,,,,,,,,,,,,,,,,,,,,,,001,2021-12-06_02h18.08.632,jm_natural_scene_simialrity_2-12-2021,2021.2.3,Win32,76.37668983,60afdd81d19d38d900cf5154,61ad71e11ddd29ccf7a27d5b,61ad72c7234a343b10e465e2,,,,,,29,89,1,0,0,response1disk,1.0005,-18,-25,1,0,0,rectangle,-18,-25,1,0,0,-1,-3,"[76,138,139,97,84,73,55,11,110,147]",-18,-25,1,0,0,1,25,106,24,1,DarkGreen,DarkGreen.jpg,DarkGreen,DarkGreen.jpg,,
,,,,,,,,,,,,,,,,,,-4,,,,,,,,,,,,,,,,,,,,,,,,,,,,001,2021-12-06_02h18.08.632,jm_natural_scene_simialrity_2-12-2021,2021.2.3,Win32,76.37668983,60afdd81d19d38d900cf5154,61ad71e11ddd29ccf7a27d5b,61ad72c7234a343b10e465e2,,,,,,-37,76,1,0,0,response7disk,1,11,9,1,0,0,rectangle,11,9,1,0,0,-1,-4,"[76,138,139,97,84,73,55,11,110,147]",11,9,1,0,0,1,26,107,50,1,DarkBlue,DarkBlue.jpg,Red,Red.jpg,,
,,,,,,,,,,,,,,,,,,-4,,,,,,,,,,,,,,,,,,,,,,,,,,,,001,2021-12-06_02h18.08.632,jm_natural_scene_simialrity_2-12-2021,2021.2.3,Win32,76.37668983,60afdd81d19d38d900cf5154,61ad71e11ddd29ccf7a27d5b,61ad72c7234a343b10e465e2,,,,,,-45,104,1,0,0,response7disk,1.7345,4,3,1,0,0,rectangle,4,3,1,0,0,-1,-2,"[76,138,139,97,84,73,55,11,110,147]",4,3,1,0,0,1,27,108,2,1,Red,Red.jpg,LightGreen,LightGreen.jpg,,
,,,,,,,,,,,,,,,,,,3,,,,,,,,,,,,,,,,,,,,,,,,,,,,001,2021-12-06_02h18.08.632,jm_natural_scene_simialrity_2-12-2021,2021.2.3,Win32,76.37668983,60afdd81d19d38d900cf5154,61ad71e11ddd29ccf7a27d5b,61ad72c7234a343b10e465e2,,,,,,69,50,1,0,0,response1disk,1.2273,6,-8,1,0,0,rectangle,-63,96,1,0,0,-4,-4,"[76,138,139,97,84,73,55,11,110,147]",0,-6,1,0,0,1,28,109,45,1,Yellow,Yellow.jpg,Red,Red.jpg,response7disk_3,rectangle
,,,,,,,,,,,,,,,,,,-3,,,,,,,,,,,,,,,,,,,,,,,,,,,,001,2021-12-06_02h18.08.632,jm_natural_scene_simialrity_2-12-2021,2021.2.3,Win32,76.37668983,60afdd81d19d38d900cf5154,61ad71e11ddd29ccf7a27d5b,61ad72c7234a343b10e465e2,,,,,,-55,53,1,0,0,response7disk,1.4135,-19,8,1,0,0,rectangle,-19,8,1,0,0,-4,1,"[76,138,139,97,84,73,55,11,110,147]",-19,8,1,0,0,1,29,110,55,1,Turquiose,Turquiose.jpg,Yellow,Yellow.jpg,,
,,,,,,,,,,,,,,,,,,4,,,,,,,,,,,,,,,,,,,,,,,,,,,,001,2021-12-06_02h18.08.632,jm_natural_scene_simialrity_2-12-2021,2021.2.3,Win32,76.37668983,60afdd81d19d38d900cf5154,61ad71e11ddd29ccf7a27d5b,61ad72c7234a343b10e465e2,,,,,,42,92,1,0,0,response1disk,1.0009,6,12,1,0,0,rectangle,6,12,1,0,0,-4,-2,"[76,138,139,97,84,73,55,11,110,147]",6,12,1,0,0,1,30,111,39,1,DarkBlue,DarkBlue.jpg,DarkBlue,DarkBlue.jpg,,
,,,,,,,,,,,,,,,,,,-4,,,,,,,,,,,,,,,,,,,,,,,,,,,,001,2021-12-06_02h18.08.632,jm_natural_scene_simialrity_2-12-2021,2021.2.3,Win32,76.37668983,60afdd81d19d38d900cf5154,61ad71e11ddd29ccf7a27d5b,61ad72c7234a343b10e465e2,,,,,,-56,98,1,0,0,response7disk,3.6147,-13,5,1,0,0,rectangle,-13,5,1,0,0,-4,3,"[76,138,139,97,84,73,55,11,110,147]",-13,5,1,0,0,1,31,112,14,1,Yellow,Yellow.jpg,DarkBlue,DarkBlue.jpg,,
,,,,,,,,,,,,,,,,,,-4,,,,,,,,,,,,,,,,,,,,,,,,,,,,001,2021-12-06_02h18.08.632,jm_natural_scene_simialrity_2-12-2021,2021.2.3,Win32,76.37668983,60afdd81d19d38d900cf5154,61ad71e11ddd29ccf7a27d5b,61ad72c7234a343b10e465e2,,,,,,-29,45,1,0,0,response7disk,1.0539,-5,9,1,0,0,rectangle,-5,9,1,0,0,-4,1,"[76,138,139,97,84,73,55,11,110,147]",-5,9,1,0,0,1,32,113,6,1,Red,Red.jpg,DarkBlue,DarkBlue.jpg,,
,,,,,,,,,,,,,,,,,,-4,,,,,,,,,,,,,,,,,,,,,,,,,,,,001,2021-12-06_02h18.08.632,jm_natural_scene_simialrity_2-12-2021,2021.2.3,Win32,76.37668983,60afdd81d19d38d900cf5154,61ad71e11ddd29ccf7a27d5b,61ad72c7234a343b10e465e2,,,,,,-40,60,1,0,0,response7disk,1.1871,1,22,1,0,0,rectangle,1,22,1,0,0,-4,2,"[76,138,139,97,84,73,55,11,110,147]",1,22,1,0,0,1,33,114,73,1,Pink,Pink.jpg,Turquiose,Turquiose.jpg,,
,,,,,,,,,,,,,,,,,,1,,,,,,,,,,,,,,,,,,,,,,,,,,,,001,2021-12-06_02h18.08.632,jm_natural_scene_simialrity_2-12-2021,2021.2.3,Win32,76.37668983,60afdd81d19d38d900cf5154,61ad71e11ddd29ccf7a27d5b,61ad72c7234a343b10e465e2,,,,,,57,-78,1,0,0,response3disk,2.9344,20,8,1,0,0,rectangle,20,8,1,0,0,-4,2,"[76,138,139,97,84,73,55,11,110,147]",20,8,1,0,0,1,34,115,72,1,DarkBlue,DarkBlue.jpg,Turquiose,Turquiose.jpg,,
,,,,,,,,,,,,,,,,,,4,,,,,,,,,,,,,,,,,,,,,,,,,,,,001,2021-12-06_02h18.08.632,jm_natural_scene_simialrity_2-12-2021,2021.2.3,Win32,76.37668983,60afdd81d19d38d900cf5154,61ad71e11ddd29ccf7a27d5b,61ad72c7234a343b10e465e2,,,,,,50,100,1,0,0,response1disk,0.9603,0,13,1,0,0,rectangle,0,13,1,0,0,-4,1,"[76,138,139,97,84,73,55,11,110,147]",0,13,1,0,0,1,35,116,60,1,DarkGreen,DarkGreen.jpg,LightGreen,LightGreen.jpg,,
,,,,,,,,,,,,,,,,,,-4,,,,,,,,,,,,,,,,,,,,,,,,,,,,001,2021-12-06_02h18.08.632,jm_natural_scene_simialrity_2-12-2021,2021.2.3,Win32,76.37668983,60afdd81d19d38d900cf5154,61ad71e11ddd29ccf7a27d5b,61ad72c7234a343b10e465e2,,,,,,-29,66,1,0,0,response7disk,1.0136,-10,12,1,0,0,rectangle,-10,12,1,0,0,-4,-4,"[76,138,139,97,84,73,55,11,110,147]",-10,12,1,0,0,1,36,117,64,1,Pink,Pink.jpg,LightGreen,LightGreen.jpg,,
,,,,,,,,,,,,,,,,,,-3,,,,,,,,,,,,,,,,,,,,,,,,,,,,001,2021-12-06_02h18.08.632,jm_natural_scene_simialrity_2-12-2021,2021.2.3,Win32,76.37668983,60afdd81d19d38d900cf5154,61ad71e11ddd29ccf7a27d5b,61ad72c7234a343b10e465e2,,,,,,-79,64,1,0,0,response7disk,1.3735,-21,7,1,0,0,rectangle,-21,7,1,0,0,-4,-1,"[76,138,139,97,84,73,55,11,110,147]",-21,7,1,0,0,1,37,118,43,1,Pink,Pink.jpg,Purple,Purple.jpg,,
,,,,,,,,,,,,,,,,,,-1,,,,,,,,,,,,,,,,,,,,,,,,,,,,001,2021-12-06_02h18.08.632,jm_natural_scene_simialrity_2-12-2021,2021.2.3,Win32,76.37668983,60afdd81d19d38d900cf5154,61ad71e11ddd29ccf7a27d5b,61ad72c7234a343b10e465e2,,,,,,-26,-96,1,0,0,response5disk,7.8163,17,-17,1,0,0,rectangle,17,-17,1,0,0,2,-4,"[76,138,139,97,84,73,55,11,110,147]",17,-17,1,0,0,1,38,119,25,1,DarkGreen,DarkGreen.jpg,Turquiose,Turquiose.jpg,,
,,,,,,,,,,,,,,,,,,-4,,,,,,,,,,,,,,,,,,,,,,,,,,,,001,2021-12-06_02h18.08.632,jm_natural_scene_simialrity_2-12-2021,2021.2.3,Win32,76.37668983,60afdd81d19d38d900cf5154,61ad71e11ddd29ccf7a27d5b,61ad72c7234a343b10e465e2,,,,,,-48,70,1,0,0,response7disk,2.2806,4,3,1,0,0,rectangle,4,3,1,0,0,2,-4,"[76,138,139,97,84,73,55,11,110,147]",4,3,1,0,0,1,39,120,20,1,LightGreen,LightGreen.jpg,LightBlue,LightBlue.jpg,,
,,,,,,,,,,,,,,,,,,1,,,,,,,,,,,,,,,,,,,,,,,,,,,,001,2021-12-06_02h18.08.632,jm_natural_scene_simialrity_2-12-2021,2021.2.3,Win32,76.37668983,60afdd81d19d38d900cf5154,61ad71e11ddd29ccf7a27d5b,61ad72c7234a343b10e465e2,,,,,,55,-89,1,0,0,response3disk,2.1339,-5,2,1,0,0,rectangle,-5,2,1,0,0,2,-4,"[76,138,139,97,84,73,55,11,110,147]",-5,2,1,0,0,1,40,121,75,1,DarkBlue,DarkBlue.jpg,LightBlue,LightBlue.jpg,,
,,,,,,,,,,,,,,,,,,-4,,,,,,,,,,,,,,,,,,,,,,,,,,,,001,2021-12-06_02h18.08.632,jm_natural_scene_simialrity_2-12-2021,2021.2.3,Win32,76.37668983,60afdd81d19d38d900cf5154,61ad71e11ddd29ccf7a27d5b,61ad72c7234a343b10e465e2,,,,,,-39,54,1,0,0,response7disk,0.9871,-6,-15,1,0,0,rectangle,-6,-15,1,0,0,2,-2,"[76,138,139,97,84,73,55,11,110,147]",-6,-15,1,0,0,1,41,122,40,1,DarkBlue,DarkBlue.jpg,Pink,Pink.jpg,,
,,,,,,,,,,,,,,,,,,3,,,,,,,,,,,,,,,,,,,,,,,,,,,,001,2021-12-06_02h18.08.632,jm_natural_scene_simialrity_2-12-2021,2021.2.3,Win32,76.37668983,60afdd81d19d38d900cf5154,61ad71e11ddd29ccf7a27d5b,61ad72c7234a343b10e465e2,,,,,,87,51,1,0,0,response1disk,1.4533,-4,-8,1,0,0,rectangle,-4,-8,1,0,0,2,3,"[76,138,139,97,84,73,55,11,110,147]",-4,-8,1,0,0,1,42,123,1,1,Red,Red.jpg,Yellow,Yellow.jpg,,
,,,,,,,,,,,,,,,,,,4,,,,,,,,,,,,,,,,,,,,,,,,,,,,001,2021-12-06_02h18.08.632,jm_natural_scene_simialrity_2-12-2021,2021.2.3,Win32,76.37668983,60afdd81d19d38d900cf5154,61ad71e11ddd29ccf7a27d5b,61ad72c7234a343b10e465e2,,,,,,49,106,1,0,0,response1disk,0.7464,7,7,1,0,0,rectangle,7,7,1,0,0,2,1,"[76,138,139,97,84,73,55,11,110,147]",7,7,1,0,0,1,43,124,44,1,Purple,Purple.jpg,Purple,Purple.jpg,,
,,,,,,,,,,,,,,,,,,4,,,,,,,,,,,,,,,,,,,,,,,,,,,,001,2021-12-06_02h18.08.632,jm_natural_scene_simialrity_2-12-2021,2021.2.3,Win32,76.37668983,60afdd81d19d38d900cf5154,61ad71e11ddd29ccf7a27d5b,61ad72c7234a343b10e465e2,,,,,,51,77,1,0,0,response1disk,0.6929,-15,-11,1,0,0,rectangle,-15,-11,1,0,0,2,-3,"[76,138,139,97,84,73,55,11,110,147]",-15,-11,1,0,0,1,44,125,30,1,Turquiose,Turquiose.jpg,Turquiose,Turquiose.jpg,,
,,,,,,,,,,,,,,,,,,2,,,,,,,,,,,,,,,,,,,,,,,,,,,,001,2021-12-06_02h18.08.632,jm_natural_scene_simialrity_2-12-2021,2021.2.3,Win32,76.37668983,60afdd81d19d38d900cf5154,61ad71e11ddd29ccf7a27d5b,61ad72c7234a343b10e465e2,,,,,,87,-71,1,0,0,response3disk,2.7869,-21,0,1,0,0,rectangle,-21,0,1,0,0,2,-1,"[76,138,139,97,84,73,55,11,110,147]",-21,0,1,0,0,1,45,126,31,1,Turquiose,Turquiose.jpg,LightBlue,LightBlue.jpg,,
,,,,,,,,,,,,,,,,,,-4,,,,,,,,,,,,,,,,,,,,,,,,,,,,001,2021-12-06_02h18.08.632,jm_natural_scene_simialrity_2-12-2021,2021.2.3,Win32,76.37668983,60afdd81d19d38d900cf5154,61ad71e11ddd29ccf7a27d5b,61ad72c7234a343b10e465e2,,,,,,-50,87,1,0,0,response7disk,1.9742,0,0,1,0,0,rectangle,0,0,1,0,0,2,-3,"[76,138,139,97,84,73,55,11,110,147]",0,0,1,0,0,1,46,127,12,1,Yellow,Yellow.jpg,Turquiose,Turquiose.jpg,,
,,,,,,,,,,,,,,,,,,4,,,,,,,,,,,,,,,,,,,,,,,,,,,,001,2021-12-06_02h18.08.632,jm_natural_scene_simialrity_2-12-2021,2021.2.3,Win32,76.37668983,60afdd81d19d38d900cf5154,61ad71e11ddd29ccf7a27d5b,61ad72c7234a343b10e465e2,,,,,,66,96,1,0,0,response1disk,0.8006,9,3,1,0,0,rectangle,9,3,1,0,0,2,1,"[76,138,139,97,84,73,55,11,110,147]",9,3,1,0,0,1,47,128,9,1,Yellow,Yellow.jpg,Yellow,Yellow.jpg,,
,,,,,,,,,,,,,,,,,,3,,,,,,,,,,,,,,,,,,,,,,,,,,,,001,2021-12-06_02h18.08.632,jm_natural_scene_simialrity_2-12-2021,2021.2.3,Win32,76.37668983,60afdd81d19d38d900cf5154,61ad71e11ddd29ccf7a27d5b,61ad72c7234a343b10e465e2,,,,,,88,38,1,0,0,response1disk,1.0944,3,0,1,0,0,rectangle,3,0,1,0,0,2,-3,"[76,138,139,97,84,73,55,11,110,147]",3,0,1,0,0,1,48,129,51,1,Pink,Pink.jpg,Red,Red.jpg,,
,,,,,,,,,,,,,,,,,,-4,,,,,,,,,,,,,,,,,,,,,,,,,,,,001,2021-12-06_02h18.08.632,jm_natural_scene_simialrity_2-12-2021,2021.2.3,Win32,76.37668983,60afdd81d19d38d900cf5154,61ad71e11ddd29ccf7a27d5b,61ad72c7234a343b10e465e2,,,,,,-36,62,1,0,0,response7disk,1.1605,-10,9,1,0,0,rectangle,-10,9,1,0,0,2,3,"[76,138,139,97,84,73,55,11,110,147]",-10,9,1,0,0,1,49,130,3,1,Red,Red.jpg,DarkGreen,DarkGreen.jpg,,
,,,,,,,,,,,,,,,,,,-3,,,,,,,,,,,,,,,,,,,,,,,,,,,,001,2021-12-06_02h18.08.632,jm_natural_scene_simialrity_2-12-2021,2021.2.3,Win32,76.37668983,60afdd81d19d38d900cf5154,61ad71e11ddd29ccf7a27d5b,61ad72c7234a343b10e465e2,,,,,,-56,38,1,0,0,response7disk,1.8541,20,1,1,0,0,rectangle,20,1,1,0,0,2,3,"[76,138,139,97,84,73,55,11,110,147]",20,1,1,0,0,1,50,131,19,1,LightGreen,LightGreen.jpg,Turquiose,Turquiose.jpg,,
,,,,,,,,,,,,,,,,,,-4,,,,,,,,,,,,,,,,,,,,,,,,,,,,001,2021-12-06_02h18.08.632,jm_natural_scene_simialrity_2-12-2021,2021.2.3,Win32,76.37668983,60afdd81d19d38d900cf5154,61ad71e11ddd29ccf7a27d5b,61ad72c7234a343b10e465e2,,,,,,-24,65,1,0,0,response7disk,1.254,-6,22,1,0,0,rectangle,-6,22,1,0,0,2,1,"[76,138,139,97,84,73,55,11,110,147]",-6,22,1,0,0,1,51,132,33,1,Turquiose,Turquiose.jpg,Pink,Pink.jpg,,
,,,,,,,,,,,,,,,,,,-4,,,,,,,,,,,,,,,,,,,,,,,,,,,,001,2021-12-06_02h18.08.632,jm_natural_scene_simialrity_2-12-2021,2021.2.3,Win32,76.37668983,60afdd81d19d38d900cf5154,61ad71e11ddd29ccf7a27d5b,61ad72c7234a343b10e465e2,,,,,,-41,71,1,0,0,response7disk,2.2003,-14,8,1,0,0,rectangle,-14,8,1,0,0,2,3,"[76,138,139,97,84,73,55,11,110,147]",-14,8,1,0,0,1,52,133,65,1,Purple,Purple.jpg,LightGreen,LightGreen.jpg,,
,,,,,,,,,,,,,,,,,,-4,,,,,,,,,,,,,,,,,,,,,,,,,,,,001,2021-12-06_02h18.08.632,jm_natural_scene_simialrity_2-12-2021,2021.2.3,Win32,76.37668983,60afdd81d19d38d900cf5154,61ad71e11ddd29ccf7a27d5b,61ad72c7234a343b10e465e2,,,,,,-24,76,1,0,0,response7disk,1.2941,-21,24,1,0,0,rectangle,-21,24,1,0,0,-4,-4,"[76,138,139,97,84,73,55,11,110,147]",-21,24,1,0,0,1,53,134,68,1,DarkBlue,DarkBlue.jpg,DarkGreen,DarkGreen.jpg,,
,,,,,,,,,,,,,,,,,,-4,,,,,,,,,,,,,,,,,,,,,,,,,,,,001,2021-12-06_02h18.08.632,jm_natural_scene_simialrity_2-12-2021,2021.2.3,Win32,76.37668983,60afdd81d19d38d900cf5154,61ad71e11ddd29ccf7a27d5b,61ad72c7234a343b10e465e2,,,,,,-35,69,1,0,0,response7disk,1.4671,0,18,1,0,0,rectangle,0,18,1,0,0,-4,-2,"[76,138,139,97,84,73,55,11,110,147]",0,18,1,0,0,1,54,135,48,1,Turquiose,Turquiose.jpg,Red,Red.jpg,,
,,,,,,,,,,,,,,,,,,-3,,,,,,,,,,,,,,,,,,,,,,,,,,,,001,2021-12-06_02h18.08.632,jm_natural_scene_simialrity_2-12-2021,2021.2.3,Win32,76.37668983,60afdd81d19d38d900cf5154,61ad71e11ddd29ccf7a27d5b,61ad72c7234a343b10e465e2,,,,,,-127,47,1,0,0,response7disk,2.1741,-15,9,1,0,0,rectangle,-15,9,1,0,0,-4,-2,"[76,138,139,97,84,73,55,11,110,147]",-15,9,1,0,0,1,55,136,63,1,DarkBlue,DarkBlue.jpg,LightGreen,LightGreen.jpg,,
,,,,,,,,,,,,,,,,,,-4,,,,,,,,,,,,,,,,,,,,,,,,,,,,001,2021-12-06_02h18.08.632,jm_natural_scene_simialrity_2-12-2021,2021.2.3,Win32,76.37668983,60afdd81d19d38d900cf5154,61ad71e11ddd29ccf7a27d5b,61ad72c7234a343b10e465e2,,,,,,-39,57,1,0,0,response7disk,2.3341,-10,22,1,0,0,rectangle,-24,74,1,0,0,-4,-4,"[76,138,139,97,84,73,55,11,110,147]",15,-3,1,0,0,1,56,137,26,1,DarkGreen,DarkGreen.jpg,LightBlue,LightBlue.jpg,response7disk_3,rectangle
,,,,,,,,,,,,,,,,,,-4,,,,,,,,,,,,,,,,,,,,,,,,,,,,001,2021-12-06_02h18.08.632,jm_natural_scene_simialrity_2-12-2021,2021.2.3,Win32,76.37668983,60afdd81d19d38d900cf5154,61ad71e11ddd29ccf7a27d5b,61ad72c7234a343b10e465e2,,,,,,-50,103,1,0,0,response7disk,1.5073,-22,10,1,0,0,rectangle,-62,40,1,0,0,-3,-3,"[76,138,139,97,84,73,55,11,110,147]",-6,2,1,0,0,1,57,138,11,1,Yellow,Yellow.jpg,DarkGreen,DarkGreen.jpg,response7disk_3,rectangle
,,,,,,,,,,,,,,,,,,-4,,,,,,,,,,,,,,,,,,,,,,,,,,,,001,2021-12-06_02h18.08.632,jm_natural_scene_simialrity_2-12-2021,2021.2.3,Win32,76.37668983,60afdd81d19d38d900cf5154,61ad71e11ddd29ccf7a27d5b,61ad72c7234a343b10e465e2,,,,,,-55,73,1,0,0,response7disk,1.6941,7,-13,1,0,0,rectangle,7,-13,1,0,0,-3,-2,"[76,138,139,97,84,73,55,11,110,147]",7,-13,1,0,0,1,58,139,61,1,Turquiose,Turquiose.jpg,LightGreen,LightGreen.jpg,,
,,,,,,,,,,,,,,,,,,-4,,,,,,,,,,,,,,,,,,,,,,,,,,,,001,2021-12-06_02h18.08.632,jm_natural_scene_simialrity_2-12-2021,2021.2.3,Win32,76.37668983,60afdd81d19d38d900cf5154,61ad71e11ddd29ccf7a27d5b,61ad72c7234a343b10e465e2,,,,,,-55,58,1,0,0,response7disk,0.9205,1,5,1,0,0,rectangle,1,5,1,0,0,-3,-4,"[76,138,139,97,84,73,55,11,110,147]",1,5,1,0,0,1,59,140,56,1,LightBlue,LightBlue.jpg,Yellow,Yellow.jpg,,
,,,,,,,,,,,,,,,,,,1,,,,,,,,,,,,,,,,,,,,,,,,,,,,001,2021-12-06_02h18.08.632,jm_natural_scene_simialrity_2-12-2021,2021.2.3,Win32,76.37668983,60afdd81d19d38d900cf5154,61ad71e11ddd29ccf7a27d5b,61ad72c7234a343b10e465e2,,,,,,69,-96,1,0,0,response3disk,1.7074,15,-4,1,0,0,rectangle,15,-4,1,0,0,-3,1,"[76,138,139,97,84,73,55,11,110,147]",15,-4,1,0,0,1,60,141,77,1,Purple,Purple.jpg,LightBlue,LightBlue.jpg,,
,,,,,,,,,,,,,,,,,,-3,,,,,,,,,,,,,,,,,,,,,,,,,,,,001,2021-12-06_02h18.08.632,jm_natural_scene_simialrity_2-12-2021,2021.2.3,Win32,76.37668983,60afdd81d19d38d900cf5154,61ad71e11ddd29ccf7a27d5b,61ad72c7234a343b10e465e2,,,,,,-82,45,1,0,0,response7disk,2.9342,19,1,1,0,0,rectangle,19,1,1,0,0,-3,-4,"[76,138,139,97,84,73,55,11,110,147]",19,1,1,0,0,1,61,142,52,1,Purple,Purple.jpg,Red,Red.jpg,,
,,,,,,,,,,,,,,,,,,4,,,,,,,,,,,,,,,,,,,,,,,,,,,,001,2021-12-06_02h18.08.632,jm_natural_scene_simialrity_2-12-2021,2021.2.3,Win32,76.37668983,60afdd81d19d38d900cf5154,61ad71e11ddd29ccf7a27d5b,61ad72c7234a343b10e465e2,,,,,,72,93,1,0,0,response1disk,0.6671,8,-9,1,0,0,rectangle,8,-9,1,0,0,-3,-1,"[76,138,139,97,84,73,55,11,110,147]",8,-9,1,0,0,1,62,143,35,1,LightBlue,LightBlue.jpg,LightBlue,LightBlue.jpg,,
,,,,,,,,,,,,,,,,,,-4,,,,,,,,,,,,,,,,,,,,,,,,,,,,001,2021-12-06_02h18.08.632,jm_natural_scene_simialrity_2-12-2021,2021.2.3,Win32,76.37668983,60afdd81d19d38d900cf5154,61ad71e11ddd29ccf7a27d5b,61ad72c7234a343b10e465e2,,,,,,-30,81,1,0,0,response7disk,0.7203,-15,-9,1,0,0,rectangle,-15,-9,1,0,0,-3,3,"[76,138,139,97,84,73,55,11,110,147]",-15,-9,1,0,0,1,63,144,54,1,DarkGreen,DarkGreen.jpg,Yellow,Yellow.jpg,,
,,,,,,,,,,,,,,,,,,3,,,,,,,,,,,,,,,,,,,,,,,,,,,,001,2021-12-06_02h18.08.632,jm_natural_scene_simialrity_2-12-2021,2021.2.3,Win32,76.37668983,60afdd81d19d38d900cf5154,61ad71e11ddd29ccf7a27d5b,61ad72c7234a343b10e465e2,,,,,,84,27,1,0,0,response1disk,1.5206,7,7,1,0,0,rectangle,7,7,1,0,0,-3,-2,"[76,138,139,97,84,73,55,11,110,147]",7,7,1,0,0,1,64,145,58,1,Pink,Pink.jpg,Yellow,Yellow.jpg,,
,,,,,,,,,,,,,,,,,,-1,,,,,,,,,,,,,,,,,,,,,,,,,,,,001,2021-12-06_02h18.08.632,jm_natural_scene_simialrity_2-12-2021,2021.2.3,Win32,76.37668983,60afdd81d19d38d900cf5154,61ad71e11ddd29ccf7a27d5b,61ad72c7234a343b10e465e2,,,,,,-56,-85,1,0,0,response5disk,2.3072,-4,4,1,0,0,rectangle,35,-113,1,0,0,1,1,"[76,138,139,97,84,73,55,11,110,147]",-1,-7,1,0,0,1,65,146,38,1,LightBlue,LightBlue.jpg,Purple,Purple.jpg,response3disk_3,rectangle
,,,,,,,,,,,,,,,,,,-3,,,,,,,,,,,,,,,,,,,,,,,,,,,,001,2021-12-06_02h18.08.632,jm_natural_scene_simialrity_2-12-2021,2021.2.3,Win32,76.37668983,60afdd81d19d38d900cf5154,61ad71e11ddd29ccf7a27d5b,61ad72c7234a343b10e465e2,,,,,,-70,53,1,0,0,response7disk,2.2942,14,-13,1,0,0,rectangle,14,-13,1,0,0,1,-2,"[76,138,139,97,84,73,55,11,110,147]",14,-13,1,0,0,1,66,147,74,1,Purple,Purple.jpg,Turquiose,Turquiose.jpg,,
,,,,,,,,,,,,,,,,,,-3,,,,,,,,,,,,,,,,,,,,,,,,,,,,001,2021-12-06_02h18.08.632,jm_natural_scene_simialrity_2-12-2021,2021.2.3,Win32,76.37668983,60afdd81d19d38d900cf5154,61ad71e11ddd29ccf7a27d5b,61ad72c7234a343b10e465e2,,,,,,-48,29,1,0,0,response7disk,4.6413,1,-11,1,0,0,rectangle,1,-11,1,0,0,1,2,"[76,138,139,97,84,73,55,11,110,147]",1,-11,1,0,0,1,67,148,8,1,Red,Red.jpg,Purple,Purple.jpg,,
,,,,,,,,,,,,,,,,,,4,,,,,,,,,,,,,,,,,,,,,,,,,,,,001,2021-12-06_02h18.08.632,jm_natural_scene_simialrity_2-12-2021,2021.2.3,Win32,76.37668983,60afdd81d19d38d900cf5154,61ad71e11ddd29ccf7a27d5b,61ad72c7234a343b10e465e2,,,,,,52,82,1,0,0,response1disk,1.1472,16,9,1,0,0,rectangle,16,9,1,0,0,1,3,"[76,138,139,97,84,73,55,11,110,147]",16,9,1,0,0,1,68,149,7,1,Red,Red.jpg,Pink,Pink.jpg,,
,,,,,,,,,,,,,,,,,,-3,,,,,,,,,,,,,,,,,,,,,,,,,,,,001,2021-12-06_02h18.08.632,jm_natural_scene_simialrity_2-12-2021,2021.2.3,Win32,76.37668983,60afdd81d19d38d900cf5154,61ad71e11ddd29ccf7a27d5b,61ad72c7234a343b10e465e2,,,,,,-60,23,1,0,0,response7disk,0.8939,22,-15,1,0,0,rectangle,22,-15,1,0,0,1,2,"[76,138,139,97,84,73,55,11,110,147]",22,-15,1,0,0,1,69,150,29,1,DarkGreen,DarkGreen.jpg,Purple,Purple.jpg,,
,,,,,,,,,,,,,,,,,,-3,,,,,,,,,,,,,,,,,,,,,,,,,,,,001,2021-12-06_02h18.08.632,jm_natural_scene_simialrity_2-12-2021,2021.2.3,Win32,76.37668983,60afdd81d19d38d900cf5154,61ad71e11ddd29ccf7a27d5b,61ad72c7234a343b10e465e2,,,,,,-79,44,1,0,0,response7disk,1.2274,-9,6,1,0,0,rectangle,-9,6,1,0,0,1,-2,"[76,138,139,97,84,73,55,11,110,147]",-9,6,1,0,0,1,70,151,66,1,Turquiose,Turquiose.jpg,DarkGreen,DarkGreen.jpg,,
,,,,,,,,,,,,,,,,,,4,,,,,,,,,,,,,,,,,,,,,,,,,,,,001,2021-12-06_02h18.08.632,jm_natural_scene_simialrity_2-12-2021,2021.2.3,Win32,76.37668983,60afdd81d19d38d900cf5154,61ad71e11ddd29ccf7a27d5b,61ad72c7234a343b10e465e2,,,,,,45,110,1,0,0,response1disk,0.8934,11,-10,1,0,0,rectangle,11,-10,1,0,0,1,-4,"[76,138,139,97,84,73,55,11,110,147]",11,-10,1,0,0,1,71,152,18,1,LightGreen,LightGreen.jpg,DarkGreen,DarkGreen.jpg,,
,,,,,,,,,,,,,,,,,,-4,,,,,,,,,,,,,,,,,,,,,,,,,,,,001,2021-12-06_02h18.08.632,jm_natural_scene_simialrity_2-12-2021,2021.2.3,Win32,76.37668983,60afdd81d19d38d900cf5154,61ad71e11ddd29ccf7a27d5b,61ad72c7234a343b10e465e2,,,,,,-37,70,1,0,0,response7disk,0.7471,18,-3,1,0,0,rectangle,18,-3,1,0,0,1,2,"[76,138,139,97,84,73,55,11,110,147]",18,-3,1,0,0,1,72,153,46,1,LightGreen,LightGreen.jpg,Red,Red.jpg,,
,,,,,,,,,,,,,,,,,,-2,,,,,,,,,,,,,,,,,,,,,,,,,,,,001,2021-12-06_02h18.08.632,jm_natural_scene_simialrity_2-12-2021,2021.2.3,Win32,76.37668983,60afdd81d19d38d900cf5154,61ad71e11ddd29ccf7a27d5b,61ad72c7234a343b10e465e2,,,,,,-77,-38,1,0,0,response5disk,1.4538,-10,-6,1,0,0,rectangle,-10,-6,1,0,0,1,2,"[76,138,139,97,84,73,55,11,110,147]",-10,-6,1,0,0,1,73,154,79,1,Purple,Purple.jpg,DarkBlue,DarkBlue.jpg,,
,,,,,,,,,,,,,,,,,,4,,,,,,,,,,,,,,,,,,,,,,,,,,,,001,2021-12-06_02h18.08.632,jm_natural_scene_simialrity_2-12-2021,2021.2.3,Win32,76.37668983,60afdd81d19d38d900cf5154,61ad71e11ddd29ccf7a27d5b,61ad72c7234a343b10e465e2,,,,,,54,111,1,0,0,response1disk,0.7067,1,7,1,0,0,rectangle,1,7,1,0,0,1,-2,"[76,138,139,97,84,73,55,11,110,147]",1,7,1,0,0,1,74,155,42,1,Pink,Pink.jpg,Pink,Pink.jpg,,
,,,,,,,,,,,,,,,,,,-4,,,,,,,,,,,,,,,,,,,,,,,,,,,,001,2021-12-06_02h18.08.632,jm_natural_scene_simialrity_2-12-2021,2021.2.3,Win32,76.37668983,60afdd81d19d38d900cf5154,61ad71e11ddd29ccf7a27d5b,61ad72c7234a343b10e465e2,,,,,,-52,100,1,0,0,response7disk,1.7737,0,-5,1,0,0,rectangle,0,-5,1,0,0,1,-2,"[76,138,139,97,84,73,55,11,110,147]",0,-5,1,0,0,1,75,156,62,1,LightBlue,LightBlue.jpg,LightGreen,LightGreen.jpg,,
,,,,,,,,,,,,,,,,,,-4,,,,,,,,,,,,,,,,,,,,,,,,,,,,001,2021-12-06_02h18.08.632,jm_natural_scene_simialrity_2-12-2021,2021.2.3,Win32,76.37668983,60afdd81d19d38d900cf5154,61ad71e11ddd29ccf7a27d5b,61ad72c7234a343b10e465e2,,,,,,-27,62,1,0,0,response7disk,5.5352,17,-2,1,0,0,rectangle,17,-2,1,0,0,1,2,"[76,138,139,97,84,73,55,11,110,147]",17,-2,1,0,0,1,76,157,21,1,LightGreen,LightGreen.jpg,DarkBlue,DarkBlue.jpg,,
,,,,,,,,,,,,,,,,,,-4,,,,,,,,,,,,,,,,,,,,,,,,,,,,001,2021-12-06_02h18.08.632,jm_natural_scene_simialrity_2-12-2021,2021.2.3,Win32,76.37668983,60afdd81d19d38d900cf5154,61ad71e11ddd29ccf7a27d5b,61ad72c7234a343b10e465e2,,,,,,-33,57,1,0,0,response7disk,0.7869,5,-23,1,0,0,rectangle,5,-23,1,0,0,1,3,"[76,138,139,97,84,73,55,11,110,147]",5,-23,1,0,0,1,77,158,78,1,Pink,Pink.jpg,DarkBlue,DarkBlue.jpg,,
,,,,,,,,,,,,,,,,,,-4,,,,,,,,,,,,,,,,,,,,,,,,,,,,001,2021-12-06_02h18.08.632,jm_natural_scene_simialrity_2-12-2021,2021.2.3,Win32,76.37668983,60afdd81d19d38d900cf5154,61ad71e11ddd29ccf7a27d5b,61ad72c7234a343b10e465e2,,,,,,-30,75,1,0,0,response7disk,0.5334,-5,-3,1,0,0,rectangle,-5,-3,1,0,0,1,3,"[76,138,139,97,84,73,55,11,110,147]",-5,-3,1,0,0,1,78,159,69,1,Pink,Pink.jpg,DarkGreen,DarkGreen.jpg,,
,,,,,,,,,,,,,,,,,,-4,,,,,,,,,,,,,,,,,,,,,,,,,,,,001,2021-12-06_02h18.08.632,jm_natural_scene_simialrity_2-12-2021,2021.2.3,Win32,76.37668983,60afdd81d19d38d900cf5154,61ad71e11ddd29ccf7a27d5b,61ad72c7234a343b10e465e2,,,,,,-49,71,1,0,0,response7disk,0.7071,-10,-14,1,0,0,rectangle,-10,-14,1,0,0,1,-4,"[76,138,139,97,84,73,55,11,110,147]",-10,-14,1,0,0,1,79,160,28,1,DarkGreen,DarkGreen.jpg,Pink,Pink.jpg,,
,,,,,,,,,,,,,,,,,,-2,,,,,,,,,,,,,,,,,,,,,,,,,,,,001,2021-12-06_02h18.08.632,jm_natural_scene_simialrity_2-12-2021,2021.2.3,Win32,76.37668983,60afdd81d19d38d900cf5154,61ad71e11ddd29ccf7a27d5b,61ad72c7234a343b10e465e2,,,,,,-75,-50,1,0,0,response5disk,1.854,-7,-16,1,0,0,rectangle,-7,-16,1,0,0,1,-2,"[76,138,139,97,84,73,55,11,110,147]",-7,-16,1,0,0,1,80,161,71,1,LightBlue,LightBlue.jpg,Turquiose,Turquiose.jpg,,
