key_resp.keys,key_resp.rt,key_resp_16.keys,key_resp_16.rt,key_resp_2.keys,key_resp_2.rt,key_resp_3.keys,key_resp_3.rt,key_resp_19.keys,key_resp_19.rt,key_resp_10.keys,key_resp_10.rt,mouse_prac.x,mouse_prac.y,mouse_prac.leftButton,mouse_prac.midButton,mouse_prac.rightButton,mouse_prac.clicked_name,similarity,mouse_10.x,mouse_10.y,mouse_10.leftButton,mouse_10.midButton,mouse_10.rightButton,mouse_10.clicked_name,mouse_catch_prac.x,mouse_catch_prac.y,mouse_catch_prac.leftButton,mouse_catch_prac.midButton,mouse_catch_prac.rightButton,catchnumberprac,mouse_6.x,mouse_6.y,mouse_6.leftButton,mouse_6.midButton,mouse_6.rightButton,during_prac.thisRepN,during_prac.thisTrialN,during_prac.thisN,during_prac.thisIndex,during_prac.ran,trailimage1,trial1adress,trailimage2,trial2adress,participant,session,date,expName,psychopyVersion,OS,frameRate,PROLIFIC_PID,STUDY_ID,SESSION_ID,mouse_catch_prac.clicked_name,catchprac,mouse_6.clicked_name,key_resp_22.keys,key_resp_22.rt,mouse.x,mouse.y,mouse.leftButton,mouse.midButton,mouse.rightButton,mouse.clicked_name,response_time,mouse_2.x,mouse_2.y,mouse_2.leftButton,mouse_2.midButton,mouse_2.rightButton,mouse_2.clicked_name,mouse_3.x,mouse_3.y,mouse_3.leftButton,mouse_3.midButton,mouse_3.rightButton,catchresponse,catchnumber,catchtrialorder,mouse_11.x,mouse_11.y,mouse_11.leftButton,mouse_11.midButton,mouse_11.rightButton,trials_2.thisRepN,trials_2.thisTrialN,trials_2.thisN,trials_2.thisIndex,trials_2.ran,image1,image1adress,image2,image2adress,mouse_3.clicked_name,mouse_11.clicked_name
space,3.5855,space,21.2549,space,5.8362,space,9.7182,space,25.0235,space,8.2065,-40,-88,1,0,0,response5disk_5,-1,-4,0,1,0,0,rectangle_8,-4,0,1,0,0,1,-4,0,1,0,0,0,0,0,4,1,trail2,trail2.jpg,trail3,trail3.jpg,,001,2021-12-06_02h17.42.365,jm_natural_scene_simialrity_2-12-2021,2021.2.3,Win32,60.10337781,60a7d8f45174b6633c940a15,61ad71e11ddd29ccf7a27d5b,61ad72ab8e98e9fa0404604c,,,,,,,,,,,,,,,,,,,,,,,,,,,,,,,,,,,,,,,,,,
,,,,,,,,,,,,44,-105,1,0,0,response3disk_5,1,-9,9,1,0,0,rectangle_8,-9,9,1,0,0,1,-9,9,1,0,0,0,1,1,1,1,trail1,trail1.jpg,trail2,trail2.jpg,,001,2021-12-06_02h17.42.365,jm_natural_scene_simialrity_2-12-2021,2021.2.3,Win32,60.10337781,60a7d8f45174b6633c940a15,61ad71e11ddd29ccf7a27d5b,61ad72ab8e98e9fa0404604c,,,,,,,,,,,,,,,,,,,,,,,,,,,,,,,,,,,,,,,,,,
,,,,,,,,,,,,54,105,1,0,0,response1disk_5,4,-2,7,1,0,0,rectangle_8,-2,7,1,0,0,1,-2,7,1,0,0,0,2,2,3,1,trail2,trail2.jpg,trail2,trail2.jpg,,001,2021-12-06_02h17.42.365,jm_natural_scene_simialrity_2-12-2021,2021.2.3,Win32,60.10337781,60a7d8f45174b6633c940a15,61ad71e11ddd29ccf7a27d5b,61ad72ab8e98e9fa0404604c,,,,,,,,,,,,,,,,,,,,,,,,,,,,,,,,,,,,,,,,,,
,,,,,,,,,,,,57,105,1,0,0,response1disk_5,4,-1,-4,1,0,0,rectangle_8,-1,-4,1,0,0,1,-1,-4,1,0,0,0,3,3,5,1,trail3,trail3.jpg,trail3,trail3.jpg,,001,2021-12-06_02h17.42.365,jm_natural_scene_simialrity_2-12-2021,2021.2.3,Win32,60.10337781,60a7d8f45174b6633c940a15,61ad71e11ddd29ccf7a27d5b,61ad72ab8e98e9fa0404604c,,,,,,,,,,,,,,,,,,,,,,,,,,,,,,,,,,,,,,,,,,
,,,,,,,,,,,,-97,-42,1,0,0,response5disk_5,-2,-5,0,1,0,0,rectangle_8,39,-106,1,0,0,1,-4,-6,1,0,0,0,4,4,2,1,trail1,trail1.jpg,trail3,trail3.jpg,,001,2021-12-06_02h17.42.365,jm_natural_scene_simialrity_2-12-2021,2021.2.3,Win32,60.10337781,60a7d8f45174b6633c940a15,61ad71e11ddd29ccf7a27d5b,61ad72ab8e98e9fa0404604c,response3disk_7,1,rectangle_4,,,,,,,,,,,,,,,,,,,,,,,,,,,,,,,,,,,,,,,
,,,,,,,,,,,,38,106,1,0,0,response1disk_5,4,3,2,1,0,0,rectangle_8,3,2,1,0,0,1,3,2,1,0,0,0,5,5,0,1,trail1,trail1.jpg,trail1,trail1.jpg,,001,2021-12-06_02h17.42.365,jm_natural_scene_simialrity_2-12-2021,2021.2.3,Win32,60.10337781,60a7d8f45174b6633c940a15,61ad71e11ddd29ccf7a27d5b,61ad72ab8e98e9fa0404604c,,,,,,,,,,,,,,,,,,,,,,,,,,,,,,,,,,,,,,,,,,
,,,,,,,,,,,,,,,,,,-2,,,,,,,,,,,,,,,,,,,,,,,,,,,,001,2021-12-06_02h17.42.365,jm_natural_scene_simialrity_2-12-2021,2021.2.3,Win32,60.10337781,60a7d8f45174b6633c940a15,61ad71e11ddd29ccf7a27d5b,61ad72ab8e98e9fa0404604c,,,,space,5.0488,-96,-51,1,0,0,response5disk,2.2685,-3,5,1,0,0,rectangle,-3,5,1,0,0,,-3,"[139,89,10,153,30,81,134,95,39,94]",-3,5,1,0,0,0,0,0,74,1,Purple,Purple.jpg,Turquiose,Turquiose.jpg,,
,,,,,,,,,,,,,,,,,,-4,,,,,,,,,,,,,,,,,,,,,,,,,,,,001,2021-12-06_02h17.42.365,jm_natural_scene_simialrity_2-12-2021,2021.2.3,Win32,60.10337781,60a7d8f45174b6633c940a15,61ad71e11ddd29ccf7a27d5b,61ad72ab8e98e9fa0404604c,,,,,,-45,103,1,0,0,response7disk,2.4157,-8,13,1,0,0,rectangle,-8,13,1,0,0,,-1,"[139,89,10,153,30,81,134,95,39,94]",-8,13,1,0,0,0,1,1,37,1,LightBlue,LightBlue.jpg,Pink,Pink.jpg,,
,,,,,,,,,,,,,,,,,,1,,,,,,,,,,,,,,,,,,,,,,,,,,,,001,2021-12-06_02h17.42.365,jm_natural_scene_simialrity_2-12-2021,2021.2.3,Win32,60.10337781,60a7d8f45174b6633c940a15,61ad71e11ddd29ccf7a27d5b,61ad72ab8e98e9fa0404604c,,,,,,57,-112,1,0,0,response3disk,3.1156,2,-1,1,0,0,rectangle,2,-1,1,0,0,,-1,"[139,89,10,153,30,81,134,95,39,94]",2,-1,1,0,0,0,2,2,77,1,Purple,Purple.jpg,LightBlue,LightBlue.jpg,,
,,,,,,,,,,,,,,,,,,-4,,,,,,,,,,,,,,,,,,,,,,,,,,,,001,2021-12-06_02h17.42.365,jm_natural_scene_simialrity_2-12-2021,2021.2.3,Win32,60.10337781,60a7d8f45174b6633c940a15,61ad71e11ddd29ccf7a27d5b,61ad72ab8e98e9fa0404604c,,,,,,-52,102,1,0,0,response7disk,2.035,-10,9,1,0,0,rectangle,-10,9,1,0,0,,-3,"[139,89,10,153,30,81,134,95,39,94]",-10,9,1,0,0,0,3,3,43,1,Pink,Pink.jpg,Purple,Purple.jpg,,
,,,,,,,,,,,,,,,,,,-4,,,,,,,,,,,,,,,,,,,,,,,,,,,,001,2021-12-06_02h17.42.365,jm_natural_scene_simialrity_2-12-2021,2021.2.3,Win32,60.10337781,60a7d8f45174b6633c940a15,61ad71e11ddd29ccf7a27d5b,61ad72ab8e98e9fa0404604c,,,,,,-56,88,1,0,0,response7disk,1.5994,-3,3,1,0,0,rectangle,-3,3,1,0,0,,-1,"[139,89,10,153,30,81,134,95,39,94]",-3,3,1,0,0,0,4,4,10,1,Yellow,Yellow.jpg,LightGreen,LightGreen.jpg,,
,,,,,,,,,,,,,,,,,,-4,,,,,,,,,,,,,,,,,,,,,,,,,,,,001,2021-12-06_02h17.42.365,jm_natural_scene_simialrity_2-12-2021,2021.2.3,Win32,60.10337781,60a7d8f45174b6633c940a15,61ad71e11ddd29ccf7a27d5b,61ad72ab8e98e9fa0404604c,,,,,,-47,96,1,0,0,response7disk,1.7332,-6,0,1,0,0,rectangle,-6,0,1,0,0,,1,"[139,89,10,153,30,81,134,95,39,94]",-6,0,1,0,0,0,5,5,3,1,Red,Red.jpg,DarkGreen,DarkGreen.jpg,,
,,,,,,,,,,,,,,,,,,-4,,,,,,,,,,,,,,,,,,,,,,,,,,,,001,2021-12-06_02h17.42.365,jm_natural_scene_simialrity_2-12-2021,2021.2.3,Win32,60.10337781,60a7d8f45174b6633c940a15,61ad71e11ddd29ccf7a27d5b,61ad72ab8e98e9fa0404604c,,,,,,-44,79,1,0,0,response7disk,1.4193,-10,7,1,0,0,rectangle,-10,7,1,0,0,,-1,"[139,89,10,153,30,81,134,95,39,94]",-10,7,1,0,0,0,6,6,69,1,Pink,Pink.jpg,DarkGreen,DarkGreen.jpg,,
,,,,,,,,,,,,,,,,,,-4,,,,,,,,,,,,,,,,,,,,,,,,,,,,001,2021-12-06_02h17.42.365,jm_natural_scene_simialrity_2-12-2021,2021.2.3,Win32,60.10337781,60a7d8f45174b6633c940a15,61ad71e11ddd29ccf7a27d5b,61ad72ab8e98e9fa0404604c,,,,,,-49,88,1,0,0,response7disk,2.0996,-9,-3,1,0,0,rectangle,-9,-3,1,0,0,,2,"[139,89,10,153,30,81,134,95,39,94]",-9,-3,1,0,0,0,7,7,26,1,DarkGreen,DarkGreen.jpg,LightBlue,LightBlue.jpg,,
,,,,,,,,,,,,,,,,,,-4,,,,,,,,,,,,,,,,,,,,,,,,,,,,001,2021-12-06_02h17.42.365,jm_natural_scene_simialrity_2-12-2021,2021.2.3,Win32,60.10337781,60a7d8f45174b6633c940a15,61ad71e11ddd29ccf7a27d5b,61ad72ab8e98e9fa0404604c,,,,,,-48,105,1,0,0,response7disk,2.4658,-7,10,1,0,0,rectangle,-7,10,1,0,0,,1,"[139,89,10,153,30,81,134,95,39,94]",-7,10,1,0,0,0,8,8,57,1,DarkBlue,DarkBlue.jpg,Yellow,Yellow.jpg,,
,,,,,,,,,,,,,,,,,,-3,,,,,,,,,,,,,,,,,,,,,,,,,,,,001,2021-12-06_02h17.42.365,jm_natural_scene_simialrity_2-12-2021,2021.2.3,Win32,60.10337781,60a7d8f45174b6633c940a15,61ad71e11ddd29ccf7a27d5b,61ad72ab8e98e9fa0404604c,,,,,,-84,51,1,0,0,response7disk,2.2828,-14,-3,1,0,0,rectangle,47,-102,1,0,0,1,1,"[139,89,10,153,30,81,134,95,39,94]",-8,-9,1,0,0,0,9,9,58,1,Pink,Pink.jpg,Yellow,Yellow.jpg,response3disk_3,rectangle
,,,,,,,,,,,,,,,,,,-4,,,,,,,,,,,,,,,,,,,,,,,,,,,,001,2021-12-06_02h17.42.365,jm_natural_scene_simialrity_2-12-2021,2021.2.3,Win32,60.10337781,60a7d8f45174b6633c940a15,61ad71e11ddd29ccf7a27d5b,61ad72ab8e98e9fa0404604c,,,,,,-49,76,1,0,0,response7disk,1.7522,-1,-6,1,0,0,rectangle,-1,-6,1,0,0,1,2,"[139,89,10,153,30,81,134,95,39,94]",-1,-6,1,0,0,0,10,10,41,1,DarkBlue,DarkBlue.jpg,Purple,Purple.jpg,,
,,,,,,,,,,,,,,,,,,2,,,,,,,,,,,,,,,,,,,,,,,,,,,,001,2021-12-06_02h17.42.365,jm_natural_scene_simialrity_2-12-2021,2021.2.3,Win32,60.10337781,60a7d8f45174b6633c940a15,61ad71e11ddd29ccf7a27d5b,61ad72ab8e98e9fa0404604c,,,,,,100,-52,1,0,0,response3disk,2.9144,-9,0,1,0,0,rectangle,-9,0,1,0,0,1,1,"[139,89,10,153,30,81,134,95,39,94]",-9,0,1,0,0,0,11,11,7,1,Red,Red.jpg,Pink,Pink.jpg,,
,,,,,,,,,,,,,,,,,,-4,,,,,,,,,,,,,,,,,,,,,,,,,,,,001,2021-12-06_02h17.42.365,jm_natural_scene_simialrity_2-12-2021,2021.2.3,Win32,60.10337781,60a7d8f45174b6633c940a15,61ad71e11ddd29ccf7a27d5b,61ad72ab8e98e9fa0404604c,,,,,,-57,113,1,0,0,response7disk,1.4191,-3,-2,1,0,0,rectangle,-3,-2,1,0,0,1,-3,"[139,89,10,153,30,81,134,95,39,94]",-3,-2,1,0,0,0,12,12,5,1,Red,Red.jpg,LightBlue,LightBlue.jpg,,
,,,,,,,,,,,,,,,,,,4,,,,,,,,,,,,,,,,,,,,,,,,,,,,001,2021-12-06_02h17.42.365,jm_natural_scene_simialrity_2-12-2021,2021.2.3,Win32,60.10337781,60a7d8f45174b6633c940a15,61ad71e11ddd29ccf7a27d5b,61ad72ab8e98e9fa0404604c,,,,,,47,106,1,0,0,response1disk,3.4332,2,9,1,0,0,rectangle,2,9,1,0,0,1,1,"[139,89,10,153,30,81,134,95,39,94]",2,9,1,0,0,0,13,13,9,1,Yellow,Yellow.jpg,Yellow,Yellow.jpg,,
,,,,,,,,,,,,,,,,,,-4,,,,,,,,,,,,,,,,,,,,,,,,,,,,001,2021-12-06_02h17.42.365,jm_natural_scene_simialrity_2-12-2021,2021.2.3,Win32,60.10337781,60a7d8f45174b6633c940a15,61ad71e11ddd29ccf7a27d5b,61ad72ab8e98e9fa0404604c,,,,,,-44,84,1,0,0,response7disk,1.3489,-10,3,1,0,0,rectangle,-10,3,1,0,0,1,-1,"[139,89,10,153,30,81,134,95,39,94]",-10,3,1,0,0,0,14,14,22,1,LightGreen,LightGreen.jpg,Pink,Pink.jpg,,
,,,,,,,,,,,,,,,,,,4,,,,,,,,,,,,,,,,,,,,,,,,,,,,001,2021-12-06_02h17.42.365,jm_natural_scene_simialrity_2-12-2021,2021.2.3,Win32,60.10337781,60a7d8f45174b6633c940a15,61ad71e11ddd29ccf7a27d5b,61ad72ab8e98e9fa0404604c,,,,,,64,118,1,0,0,response1disk,1.5364,4,7,1,0,0,rectangle,4,7,1,0,0,1,1,"[139,89,10,153,30,81,134,95,39,94]",4,7,1,0,0,0,15,15,42,1,Pink,Pink.jpg,Pink,Pink.jpg,,
,,,,,,,,,,,,,,,,,,1,,,,,,,,,,,,,,,,,,,,,,,,,,,,001,2021-12-06_02h17.42.365,jm_natural_scene_simialrity_2-12-2021,2021.2.3,Win32,60.10337781,60a7d8f45174b6633c940a15,61ad71e11ddd29ccf7a27d5b,61ad72ab8e98e9fa0404604c,,,,,,60,-90,1,0,0,response3disk,3.4324,-2,14,1,0,0,rectangle,-2,14,1,0,0,1,-3,"[139,89,10,153,30,81,134,95,39,94]",-2,14,1,0,0,0,16,16,75,1,DarkBlue,DarkBlue.jpg,LightBlue,LightBlue.jpg,,
,,,,,,,,,,,,,,,,,,-3,,,,,,,,,,,,,,,,,,,,,,,,,,,,001,2021-12-06_02h17.42.365,jm_natural_scene_simialrity_2-12-2021,2021.2.3,Win32,60.10337781,60a7d8f45174b6633c940a15,61ad71e11ddd29ccf7a27d5b,61ad72ab8e98e9fa0404604c,,,,,,-96,54,1,0,0,response7disk,1.7005,-7,0,1,0,0,rectangle,-7,0,1,0,0,1,-4,"[139,89,10,153,30,81,134,95,39,94]",-7,0,1,0,0,0,17,17,59,1,Purple,Purple.jpg,Yellow,Yellow.jpg,,
,,,,,,,,,,,,,,,,,,-4,,,,,,,,,,,,,,,,,,,,,,,,,,,,001,2021-12-06_02h17.42.365,jm_natural_scene_simialrity_2-12-2021,2021.2.3,Win32,60.10337781,60a7d8f45174b6633c940a15,61ad71e11ddd29ccf7a27d5b,61ad72ab8e98e9fa0404604c,,,,,,-55,87,1,0,0,response7disk,1.4327,-11,-4,1,0,0,rectangle,-11,-4,1,0,0,1,-4,"[139,89,10,153,30,81,134,95,39,94]",-11,-4,1,0,0,0,18,18,76,1,Pink,Pink.jpg,LightBlue,LightBlue.jpg,,
,,,,,,,,,,,,,,,,,,-4,,,,,,,,,,,,,,,,,,,,,,,,,,,,001,2021-12-06_02h17.42.365,jm_natural_scene_simialrity_2-12-2021,2021.2.3,Win32,60.10337781,60a7d8f45174b6633c940a15,61ad71e11ddd29ccf7a27d5b,61ad72ab8e98e9fa0404604c,,,,,,-53,93,1,0,0,response7disk,1.4999,-1,6,1,0,0,rectangle,-1,6,1,0,0,1,-4,"[139,89,10,153,30,81,134,95,39,94]",-1,6,1,0,0,0,19,19,13,1,Yellow,Yellow.jpg,LightBlue,LightBlue.jpg,,
,,,,,,,,,,,,,,,,,,2,,,,,,,,,,,,,,,,,,,,,,,,,,,,001,2021-12-06_02h17.42.365,jm_natural_scene_simialrity_2-12-2021,2021.2.3,Win32,60.10337781,60a7d8f45174b6633c940a15,61ad71e11ddd29ccf7a27d5b,61ad72ab8e98e9fa0404604c,,,,,,95,-55,1,0,0,response3disk,3.1988,4,5,1,0,0,rectangle,4,5,1,0,0,1,3,"[139,89,10,153,30,81,134,95,39,94]",4,5,1,0,0,0,20,20,72,1,DarkBlue,DarkBlue.jpg,Turquiose,Turquiose.jpg,,
,,,,,,,,,,,,,,,,,,-2,,,,,,,,,,,,,,,,,,,,,,,,,,,,001,2021-12-06_02h17.42.365,jm_natural_scene_simialrity_2-12-2021,2021.2.3,Win32,60.10337781,60a7d8f45174b6633c940a15,61ad71e11ddd29ccf7a27d5b,61ad72ab8e98e9fa0404604c,,,,,,-77,-35,1,0,0,response5disk,2.2999,-8,-4,1,0,0,rectangle,-8,-4,1,0,0,1,1,"[139,89,10,153,30,81,134,95,39,94]",-8,-4,1,0,0,0,21,21,53,1,LightGreen,LightGreen.jpg,Yellow,Yellow.jpg,,
,,,,,,,,,,,,,,,,,,-2,,,,,,,,,,,,,,,,,,,,,,,,,,,,001,2021-12-06_02h17.42.365,jm_natural_scene_simialrity_2-12-2021,2021.2.3,Win32,60.10337781,60a7d8f45174b6633c940a15,61ad71e11ddd29ccf7a27d5b,61ad72ab8e98e9fa0404604c,,,,,,-77,-42,1,0,0,response5disk,2.133,-18,-16,1,0,0,rectangle,-18,-16,1,0,0,1,1,"[139,89,10,153,30,81,134,95,39,94]",-18,-16,1,0,0,0,22,22,65,1,Purple,Purple.jpg,LightGreen,LightGreen.jpg,,
,,,,,,,,,,,,,,,,,,-3,,,,,,,,,,,,,,,,,,,,,,,,,,,,001,2021-12-06_02h17.42.365,jm_natural_scene_simialrity_2-12-2021,2021.2.3,Win32,60.10337781,60a7d8f45174b6633c940a15,61ad71e11ddd29ccf7a27d5b,61ad72ab8e98e9fa0404604c,,,,,,-89,41,1,0,0,response7disk,2.5828,-9,0,1,0,0,rectangle,-9,0,1,0,0,1,2,"[139,89,10,153,30,81,134,95,39,94]",-9,0,1,0,0,0,23,23,50,1,DarkBlue,DarkBlue.jpg,Red,Red.jpg,,
,,,,,,,,,,,,,,,,,,-3,,,,,,,,,,,,,,,,,,,,,,,,,,,,001,2021-12-06_02h17.42.365,jm_natural_scene_simialrity_2-12-2021,2021.2.3,Win32,60.10337781,60a7d8f45174b6633c940a15,61ad71e11ddd29ccf7a27d5b,61ad72ab8e98e9fa0404604c,,,,,,-72,37,1,0,0,response7disk,2.5326,-6,-7,1,0,0,rectangle,-6,-7,1,0,0,1,-2,"[139,89,10,153,30,81,134,95,39,94]",-6,-7,1,0,0,0,24,24,29,1,DarkGreen,DarkGreen.jpg,Purple,Purple.jpg,,
,,,,,,,,,,,,,,,,,,-1,,,,,,,,,,,,,,,,,,,,,,,,,,,,001,2021-12-06_02h17.42.365,jm_natural_scene_simialrity_2-12-2021,2021.2.3,Win32,60.10337781,60a7d8f45174b6633c940a15,61ad71e11ddd29ccf7a27d5b,61ad72ab8e98e9fa0404604c,,,,,,-34,-101,1,0,0,response5disk,4.517,-3,-6,1,0,0,rectangle,-3,-6,1,0,0,1,-1,"[139,89,10,153,30,81,134,95,39,94]",-3,-6,1,0,0,0,25,25,15,1,Yellow,Yellow.jpg,Pink,Pink.jpg,,
,,,,,,,,,,,,,,,,,,2,,,,,,,,,,,,,,,,,,,,,,,,,,,,001,2021-12-06_02h17.42.365,jm_natural_scene_simialrity_2-12-2021,2021.2.3,Win32,60.10337781,60a7d8f45174b6633c940a15,61ad71e11ddd29ccf7a27d5b,61ad72ab8e98e9fa0404604c,,,,,,102,-34,1,0,0,response3disk,4.5983,4,8,1,0,0,rectangle,4,8,1,0,0,1,-3,"[139,89,10,153,30,81,134,95,39,94]",4,8,1,0,0,0,26,26,31,1,Turquiose,Turquiose.jpg,LightBlue,LightBlue.jpg,,
,,,,,,,,,,,,,,,,,,1,,,,,,,,,,,,,,,,,,,,,,,,,,,,001,2021-12-06_02h17.42.365,jm_natural_scene_simialrity_2-12-2021,2021.2.3,Win32,60.10337781,60a7d8f45174b6633c940a15,61ad71e11ddd29ccf7a27d5b,61ad72ab8e98e9fa0404604c,,,,,,46,-120,1,0,0,response3disk,3.8001,-5,-4,1,0,0,rectangle,-5,-4,1,0,0,1,-4,"[139,89,10,153,30,81,134,95,39,94]",-5,-4,1,0,0,0,27,27,68,1,DarkBlue,DarkBlue.jpg,DarkGreen,DarkGreen.jpg,,
,,,,,,,,,,,,,,,,,,-2,,,,,,,,,,,,,,,,,,,,,,,,,,,,001,2021-12-06_02h17.42.365,jm_natural_scene_simialrity_2-12-2021,2021.2.3,Win32,60.10337781,60a7d8f45174b6633c940a15,61ad71e11ddd29ccf7a27d5b,61ad72ab8e98e9fa0404604c,,,,,,-96,-38,1,0,0,response5disk,2.6,11,6,1,0,0,rectangle,11,6,1,0,0,1,-2,"[139,89,10,153,30,81,134,95,39,94]",11,6,1,0,0,0,28,28,16,1,Yellow,Yellow.jpg,Purple,Purple.jpg,,
,,,,,,,,,,,,,,,,,,2,,,,,,,,,,,,,,,,,,,,,,,,,,,,001,2021-12-06_02h17.42.365,jm_natural_scene_simialrity_2-12-2021,2021.2.3,Win32,60.10337781,60a7d8f45174b6633c940a15,61ad71e11ddd29ccf7a27d5b,61ad72ab8e98e9fa0404604c,,,,,,108,-67,1,0,0,response3disk,3.8847,-5,4,1,0,0,rectangle,102,59,1,0,0,3,3,"[139,89,10,153,30,81,134,95,39,94]",6,13,1,0,0,0,29,29,36,1,LightBlue,LightBlue.jpg,DarkBlue,DarkBlue.jpg,response1disk_3,rectangle
,,,,,,,,,,,,,,,,,,1,,,,,,,,,,,,,,,,,,,,,,,,,,,,001,2021-12-06_02h17.42.365,jm_natural_scene_simialrity_2-12-2021,2021.2.3,Win32,60.10337781,60a7d8f45174b6633c940a15,61ad71e11ddd29ccf7a27d5b,61ad72ab8e98e9fa0404604c,,,,,,59,-97,1,0,0,response3disk,3.614,-4,-12,1,0,0,rectangle,-4,-12,1,0,0,3,-3,"[139,89,10,153,30,81,134,95,39,94]",-4,-12,1,0,0,0,30,30,23,1,LightGreen,LightGreen.jpg,Purple,Purple.jpg,,
,,,,,,,,,,,,,,,,,,1,,,,,,,,,,,,,,,,,,,,,,,,,,,,001,2021-12-06_02h17.42.365,jm_natural_scene_simialrity_2-12-2021,2021.2.3,Win32,60.10337781,60a7d8f45174b6633c940a15,61ad71e11ddd29ccf7a27d5b,61ad72ab8e98e9fa0404604c,,,,,,27,-79,1,0,0,response3disk,1.4336,-5,-8,1,0,0,rectangle,-5,-8,1,0,0,3,2,"[139,89,10,153,30,81,134,95,39,94]",-5,-8,1,0,0,0,31,31,20,1,LightGreen,LightGreen.jpg,LightBlue,LightBlue.jpg,,
,,,,,,,,,,,,,,,,,,3,,,,,,,,,,,,,,,,,,,,,,,,,,,,001,2021-12-06_02h17.42.365,jm_natural_scene_simialrity_2-12-2021,2021.2.3,Win32,60.10337781,60a7d8f45174b6633c940a15,61ad71e11ddd29ccf7a27d5b,61ad72ab8e98e9fa0404604c,,,,,,103,68,1,0,0,response1disk,3.7348,0,-11,1,0,0,rectangle,0,-11,1,0,0,3,-2,"[139,89,10,153,30,81,134,95,39,94]",0,-11,1,0,0,0,32,32,51,1,Pink,Pink.jpg,Red,Red.jpg,,
,,,,,,,,,,,,,,,,,,4,,,,,,,,,,,,,,,,,,,,,,,,,,,,001,2021-12-06_02h17.42.365,jm_natural_scene_simialrity_2-12-2021,2021.2.3,Win32,60.10337781,60a7d8f45174b6633c940a15,61ad71e11ddd29ccf7a27d5b,61ad72ab8e98e9fa0404604c,,,,,,41,95,1,0,0,response1disk,1.4992,0,7,1,0,0,rectangle,0,7,1,0,0,3,-2,"[139,89,10,153,30,81,134,95,39,94]",0,7,1,0,0,0,33,33,39,1,DarkBlue,DarkBlue.jpg,DarkBlue,DarkBlue.jpg,,
,,,,,,,,,,,,,,,,,,-2,,,,,,,,,,,,,,,,,,,,,,,,,,,,001,2021-12-06_02h17.42.365,jm_natural_scene_simialrity_2-12-2021,2021.2.3,Win32,60.10337781,60a7d8f45174b6633c940a15,61ad71e11ddd29ccf7a27d5b,61ad72ab8e98e9fa0404604c,,,,,,-68,-22,1,0,0,response5disk,2.5856,-3,-3,1,0,0,rectangle,-3,-3,1,0,0,3,-1,"[139,89,10,153,30,81,134,95,39,94]",-3,-3,1,0,0,0,34,34,49,1,LightBlue,LightBlue.jpg,Red,Red.jpg,,
,,,,,,,,,,,,,,,,,,4,,,,,,,,,,,,,,,,,,,,,,,,,,,,001,2021-12-06_02h17.42.365,jm_natural_scene_simialrity_2-12-2021,2021.2.3,Win32,60.10337781,60a7d8f45174b6633c940a15,61ad71e11ddd29ccf7a27d5b,61ad72ab8e98e9fa0404604c,,,,,,33,93,1,0,0,response1disk,1.4334,3,12,1,0,0,rectangle,3,12,1,0,0,3,-3,"[139,89,10,153,30,81,134,95,39,94]",3,12,1,0,0,0,35,35,44,1,Purple,Purple.jpg,Purple,Purple.jpg,,
,,,,,,,,,,,,,,,,,,3,,,,,,,,,,,,,,,,,,,,,,,,,,,,001,2021-12-06_02h17.42.365,jm_natural_scene_simialrity_2-12-2021,2021.2.3,Win32,60.10337781,60a7d8f45174b6633c940a15,61ad71e11ddd29ccf7a27d5b,61ad72ab8e98e9fa0404604c,,,,,,103,61,1,0,0,response1disk,2.5798,4,11,1,0,0,rectangle,4,11,1,0,0,3,-1,"[139,89,10,153,30,81,134,95,39,94]",4,11,1,0,0,0,36,36,18,1,LightGreen,LightGreen.jpg,DarkGreen,DarkGreen.jpg,,
,,,,,,,,,,,,,,,,,,2,,,,,,,,,,,,,,,,,,,,,,,,,,,,001,2021-12-06_02h17.42.365,jm_natural_scene_simialrity_2-12-2021,2021.2.3,Win32,60.10337781,60a7d8f45174b6633c940a15,61ad71e11ddd29ccf7a27d5b,61ad72ab8e98e9fa0404604c,,,,,,70,-50,1,0,0,response3disk,2.5,10,-7,1,0,0,rectangle,10,-7,1,0,0,3,1,"[139,89,10,153,30,81,134,95,39,94]",10,-7,1,0,0,0,37,37,1,1,Red,Red.jpg,Yellow,Yellow.jpg,,
,,,,,,,,,,,,,,,,,,2,,,,,,,,,,,,,,,,,,,,,,,,,,,,001,2021-12-06_02h17.42.365,jm_natural_scene_simialrity_2-12-2021,2021.2.3,Win32,60.10337781,60a7d8f45174b6633c940a15,61ad71e11ddd29ccf7a27d5b,61ad72ab8e98e9fa0404604c,,,,,,82,-33,1,0,0,response3disk,1.5861,-7,9,1,0,0,rectangle,91,-49,1,0,0,2,2,"[139,89,10,153,30,81,134,95,39,94]",1,12,1,0,0,0,38,38,32,1,Turquiose,Turquiose.jpg,DarkBlue,DarkBlue.jpg,response3disk_3,rectangle
,,,,,,,,,,,,,,,,,,-1,,,,,,,,,,,,,,,,,,,,,,,,,,,,001,2021-12-06_02h17.42.365,jm_natural_scene_simialrity_2-12-2021,2021.2.3,Win32,60.10337781,60a7d8f45174b6633c940a15,61ad71e11ddd29ccf7a27d5b,61ad72ab8e98e9fa0404604c,,,,,,-44,-87,1,0,0,response5disk,1.998,-2,-8,1,0,0,rectangle,-2,-8,1,0,0,2,-3,"[139,89,10,153,30,81,134,95,39,94]",-2,-8,1,0,0,0,39,39,62,1,LightBlue,LightBlue.jpg,LightGreen,LightGreen.jpg,,
,,,,,,,,,,,,,,,,,,-2,,,,,,,,,,,,,,,,,,,,,,,,,,,,001,2021-12-06_02h17.42.365,jm_natural_scene_simialrity_2-12-2021,2021.2.3,Win32,60.10337781,60a7d8f45174b6633c940a15,61ad71e11ddd29ccf7a27d5b,61ad72ab8e98e9fa0404604c,,,,,,-115,-46,1,0,0,response5disk,1.5848,-5,-10,1,0,0,rectangle,-5,-10,1,0,0,2,-3,"[139,89,10,153,30,81,134,95,39,94]",-5,-10,1,0,0,0,40,40,28,1,DarkGreen,DarkGreen.jpg,Pink,Pink.jpg,,
,,,,,,,,,,,,,,,,,,-2,,,,,,,,,,,,,,,,,,,,,,,,,,,,001,2021-12-06_02h17.42.365,jm_natural_scene_simialrity_2-12-2021,2021.2.3,Win32,60.10337781,60a7d8f45174b6633c940a15,61ad71e11ddd29ccf7a27d5b,61ad72ab8e98e9fa0404604c,,,,,,-85,-29,1,0,0,response5disk,1.5143,0,13,1,0,0,rectangle,0,13,1,0,0,2,1,"[139,89,10,153,30,81,134,95,39,94]",0,13,1,0,0,0,41,41,80,1,Purple,Purple.jpg,Pink,Pink.jpg,,
,,,,,,,,,,,,,,,,,,-2,,,,,,,,,,,,,,,,,,,,,,,,,,,,001,2021-12-06_02h17.42.365,jm_natural_scene_simialrity_2-12-2021,2021.2.3,Win32,60.10337781,60a7d8f45174b6633c940a15,61ad71e11ddd29ccf7a27d5b,61ad72ab8e98e9fa0404604c,,,,,,-87,-30,1,0,0,response5disk,1.3199,-16,1,1,0,0,rectangle,-16,1,1,0,0,2,3,"[139,89,10,153,30,81,134,95,39,94]",-16,1,1,0,0,0,42,42,67,1,LightBlue,LightBlue.jpg,DarkGreen,DarkGreen.jpg,,
,,,,,,,,,,,,,,,,,,-2,,,,,,,,,,,,,,,,,,,,,,,,,,,,001,2021-12-06_02h17.42.365,jm_natural_scene_simialrity_2-12-2021,2021.2.3,Win32,60.10337781,60a7d8f45174b6633c940a15,61ad71e11ddd29ccf7a27d5b,61ad72ab8e98e9fa0404604c,,,,,,-94,-34,1,0,0,response5disk,2.9853,-11,0,1,0,0,rectangle,-11,0,1,0,0,2,-2,"[139,89,10,153,30,81,134,95,39,94]",-11,0,1,0,0,0,43,43,63,1,DarkBlue,DarkBlue.jpg,LightGreen,LightGreen.jpg,,
,,,,,,,,,,,,,,,,,,-3,,,,,,,,,,,,,,,,,,,,,,,,,,,,001,2021-12-06_02h17.42.365,jm_natural_scene_simialrity_2-12-2021,2021.2.3,Win32,60.10337781,60a7d8f45174b6633c940a15,61ad71e11ddd29ccf7a27d5b,61ad72ab8e98e9fa0404604c,,,,,,-87,45,1,0,0,response7disk,2.0366,-6,0,1,0,0,rectangle,-6,0,1,0,0,2,-4,"[139,89,10,153,30,81,134,95,39,94]",-6,0,1,0,0,0,44,44,47,1,DarkGreen,DarkGreen.jpg,Red,Red.jpg,,
,,,,,,,,,,,,,,,,,,-3,,,,,,,,,,,,,,,,,,,,,,,,,,,,001,2021-12-06_02h17.42.365,jm_natural_scene_simialrity_2-12-2021,2021.2.3,Win32,60.10337781,60a7d8f45174b6633c940a15,61ad71e11ddd29ccf7a27d5b,61ad72ab8e98e9fa0404604c,,,,,,-85,47,1,0,0,response7disk,1.4704,-10,-1,1,0,0,rectangle,-10,-1,1,0,0,2,1,"[139,89,10,153,30,81,134,95,39,94]",-10,-1,1,0,0,0,45,45,6,1,Red,Red.jpg,DarkBlue,DarkBlue.jpg,,
,,,,,,,,,,,,,,,,,,1,,,,,,,,,,,,,,,,,,,,,,,,,,,,001,2021-12-06_02h17.42.365,jm_natural_scene_simialrity_2-12-2021,2021.2.3,Win32,60.10337781,60a7d8f45174b6633c940a15,61ad71e11ddd29ccf7a27d5b,61ad72ab8e98e9fa0404604c,,,,,,48,-111,1,0,0,response3disk,3.3151,-10,10,1,0,0,rectangle,-10,10,1,0,0,2,-3,"[139,89,10,153,30,81,134,95,39,94]",-10,10,1,0,0,0,46,46,8,1,Red,Red.jpg,Purple,Purple.jpg,,
,,,,,,,,,,,,,,,,,,3,,,,,,,,,,,,,,,,,,,,,,,,,,,,001,2021-12-06_02h17.42.365,jm_natural_scene_simialrity_2-12-2021,2021.2.3,Win32,60.10337781,60a7d8f45174b6633c940a15,61ad71e11ddd29ccf7a27d5b,61ad72ab8e98e9fa0404604c,,,,,,94,64,1,0,0,response1disk,2.6352,8,10,1,0,0,rectangle,8,10,1,0,0,2,-2,"[139,89,10,153,30,81,134,95,39,94]",8,10,1,0,0,0,47,47,79,1,Purple,Purple.jpg,DarkBlue,DarkBlue.jpg,,
,,,,,,,,,,,,,,,,,,-2,,,,,,,,,,,,,,,,,,,,,,,,,,,,001,2021-12-06_02h17.42.365,jm_natural_scene_simialrity_2-12-2021,2021.2.3,Win32,60.10337781,60a7d8f45174b6633c940a15,61ad71e11ddd29ccf7a27d5b,61ad72ab8e98e9fa0404604c,,,,,,-84,-32,1,0,0,response5disk,2.4169,-20,-7,1,0,0,rectangle,-20,-7,1,0,0,2,-4,"[139,89,10,153,30,81,134,95,39,94]",-20,-7,1,0,0,0,48,48,4,1,Red,Red.jpg,Turquiose,Turquiose.jpg,,
,,,,,,,,,,,,,,,,,,1,,,,,,,,,,,,,,,,,,,,,,,,,,,,001,2021-12-06_02h17.42.365,jm_natural_scene_simialrity_2-12-2021,2021.2.3,Win32,60.10337781,60a7d8f45174b6633c940a15,61ad71e11ddd29ccf7a27d5b,61ad72ab8e98e9fa0404604c,,,,,,57,-102,1,0,0,response3disk,4.6851,-2,-8,1,0,0,rectangle,-2,-8,1,0,0,2,2,"[139,89,10,153,30,81,134,95,39,94]",-2,-8,1,0,0,0,49,49,25,1,DarkGreen,DarkGreen.jpg,Turquiose,Turquiose.jpg,,
,,,,,,,,,,,,,,,,,,-2,,,,,,,,,,,,,,,,,,,,,,,,,,,,001,2021-12-06_02h17.42.365,jm_natural_scene_simialrity_2-12-2021,2021.2.3,Win32,60.10337781,60a7d8f45174b6633c940a15,61ad71e11ddd29ccf7a27d5b,61ad72ab8e98e9fa0404604c,,,,,,-95,-31,1,0,0,response5disk,1.8669,-19,-11,1,0,0,rectangle,-19,-11,1,0,0,2,3,"[139,89,10,153,30,81,134,95,39,94]",-19,-11,1,0,0,0,50,50,73,1,Pink,Pink.jpg,Turquiose,Turquiose.jpg,,
,,,,,,,,,,,,,,,,,,4,,,,,,,,,,,,,,,,,,,,,,,,,,,,001,2021-12-06_02h17.42.365,jm_natural_scene_simialrity_2-12-2021,2021.2.3,Win32,60.10337781,60a7d8f45174b6633c940a15,61ad71e11ddd29ccf7a27d5b,61ad72ab8e98e9fa0404604c,,,,,,44,106,1,0,0,response1disk,1.8334,2,14,1,0,0,rectangle,2,14,1,0,0,2,-4,"[139,89,10,153,30,81,134,95,39,94]",2,14,1,0,0,0,51,51,0,1,Red,Red.jpg,Red,Red.jpg,,
,,,,,,,,,,,,,,,,,,-2,,,,,,,,,,,,,,,,,,,,,,,,,,,,001,2021-12-06_02h17.42.365,jm_natural_scene_simialrity_2-12-2021,2021.2.3,Win32,60.10337781,60a7d8f45174b6633c940a15,61ad71e11ddd29ccf7a27d5b,61ad72ab8e98e9fa0404604c,,,,,,-88,-36,1,0,0,response5disk,2.3343,-11,-10,1,0,0,rectangle,-11,-10,1,0,0,2,-4,"[139,89,10,153,30,81,134,95,39,94]",-11,-10,1,0,0,0,52,52,11,1,Yellow,Yellow.jpg,DarkGreen,DarkGreen.jpg,,
,,,,,,,,,,,,,,,,,,-2,,,,,,,,,,,,,,,,,,,,,,,,,,,,001,2021-12-06_02h17.42.365,jm_natural_scene_simialrity_2-12-2021,2021.2.3,Win32,60.10337781,60a7d8f45174b6633c940a15,61ad71e11ddd29ccf7a27d5b,61ad72ab8e98e9fa0404604c,,,,,,-85,-33,1,0,0,response5disk,1.6504,0,11,1,0,0,rectangle,0,11,1,0,0,2,-4,"[139,89,10,153,30,81,134,95,39,94]",0,11,1,0,0,0,53,53,54,1,DarkGreen,DarkGreen.jpg,Yellow,Yellow.jpg,,
,,,,,,,,,,,,,,,,,,2,,,,,,,,,,,,,,,,,,,,,,,,,,,,001,2021-12-06_02h17.42.365,jm_natural_scene_simialrity_2-12-2021,2021.2.3,Win32,60.10337781,60a7d8f45174b6633c940a15,61ad71e11ddd29ccf7a27d5b,61ad72ab8e98e9fa0404604c,,,,,,102,-59,1,0,0,response3disk,2.9688,-6,3,1,0,0,rectangle,-6,3,1,0,0,2,1,"[139,89,10,153,30,81,134,95,39,94]",-6,3,1,0,0,0,54,54,34,1,Turquiose,Turquiose.jpg,Purple,Purple.jpg,,
,,,,,,,,,,,,,,,,,,4,,,,,,,,,,,,,,,,,,,,,,,,,,,,001,2021-12-06_02h17.42.365,jm_natural_scene_simialrity_2-12-2021,2021.2.3,Win32,60.10337781,60a7d8f45174b6633c940a15,61ad71e11ddd29ccf7a27d5b,61ad72ab8e98e9fa0404604c,,,,,,50,115,1,0,0,response1disk,1.7671,-9,-10,1,0,0,rectangle,-9,-10,1,0,0,2,2,"[139,89,10,153,30,81,134,95,39,94]",-9,-10,1,0,0,0,55,55,30,1,Turquiose,Turquiose.jpg,Turquiose,Turquiose.jpg,,
,,,,,,,,,,,,,,,,,,-3,,,,,,,,,,,,,,,,,,,,,,,,,,,,001,2021-12-06_02h17.42.365,jm_natural_scene_simialrity_2-12-2021,2021.2.3,Win32,60.10337781,60a7d8f45174b6633c940a15,61ad71e11ddd29ccf7a27d5b,61ad72ab8e98e9fa0404604c,,,,,,-85,36,1,0,0,response7disk,1.8361,-9,-12,1,0,0,rectangle,-9,-12,1,0,0,2,-4,"[139,89,10,153,30,81,134,95,39,94]",-9,-12,1,0,0,0,56,56,14,1,Yellow,Yellow.jpg,DarkBlue,DarkBlue.jpg,,
,,,,,,,,,,,,,,,,,,2,,,,,,,,,,,,,,,,,,,,,,,,,,,,001,2021-12-06_02h17.42.365,jm_natural_scene_simialrity_2-12-2021,2021.2.3,Win32,60.10337781,60a7d8f45174b6633c940a15,61ad71e11ddd29ccf7a27d5b,61ad72ab8e98e9fa0404604c,,,,,,113,-45,1,0,0,response3disk,2.9317,10,7,1,0,0,rectangle,10,7,1,0,0,2,3,"[139,89,10,153,30,81,134,95,39,94]",10,7,1,0,0,0,57,57,71,1,LightBlue,LightBlue.jpg,Turquiose,Turquiose.jpg,,
,,,,,,,,,,,,,,,,,,-3,,,,,,,,,,,,,,,,,,,,,,,,,,,,001,2021-12-06_02h17.42.365,jm_natural_scene_simialrity_2-12-2021,2021.2.3,Win32,60.10337781,60a7d8f45174b6633c940a15,61ad71e11ddd29ccf7a27d5b,61ad72ab8e98e9fa0404604c,,,,,,-92,42,1,0,0,response7disk,1.8019,-11,-8,1,0,0,rectangle,-11,-8,1,0,0,2,-4,"[139,89,10,153,30,81,134,95,39,94]",-11,-8,1,0,0,0,58,58,64,1,Pink,Pink.jpg,LightGreen,LightGreen.jpg,,
,,,,,,,,,,,,,,,,,,-3,,,,,,,,,,,,,,,,,,,,,,,,,,,,001,2021-12-06_02h17.42.365,jm_natural_scene_simialrity_2-12-2021,2021.2.3,Win32,60.10337781,60a7d8f45174b6633c940a15,61ad71e11ddd29ccf7a27d5b,61ad72ab8e98e9fa0404604c,,,,,,-118,61,1,0,0,response7disk,1.3669,3,-14,1,0,0,rectangle,3,-14,1,0,0,2,-1,"[139,89,10,153,30,81,134,95,39,94]",3,-14,1,0,0,0,59,59,46,1,LightGreen,LightGreen.jpg,Red,Red.jpg,,
,,,,,,,,,,,,,,,,,,-3,,,,,,,,,,,,,,,,,,,,,,,,,,,,001,2021-12-06_02h17.42.365,jm_natural_scene_simialrity_2-12-2021,2021.2.3,Win32,60.10337781,60a7d8f45174b6633c940a15,61ad71e11ddd29ccf7a27d5b,61ad72ab8e98e9fa0404604c,,,,,,-77,51,1,0,0,response7disk,1.6496,-10,7,1,0,0,rectangle,-10,7,1,0,0,2,1,"[139,89,10,153,30,81,134,95,39,94]",-10,7,1,0,0,0,60,60,12,1,Yellow,Yellow.jpg,Turquiose,Turquiose.jpg,,
,,,,,,,,,,,,,,,,,,-3,,,,,,,,,,,,,,,,,,,,,,,,,,,,001,2021-12-06_02h17.42.365,jm_natural_scene_simialrity_2-12-2021,2021.2.3,Win32,60.10337781,60a7d8f45174b6633c940a15,61ad71e11ddd29ccf7a27d5b,61ad72ab8e98e9fa0404604c,,,,,,-66,34,1,0,0,response7disk,3.3328,-13,-7,1,0,0,rectangle,-13,-7,1,0,0,2,3,"[139,89,10,153,30,81,134,95,39,94]",-13,-7,1,0,0,0,61,61,61,1,Turquiose,Turquiose.jpg,LightGreen,LightGreen.jpg,,
,,,,,,,,,,,,,,,,,,-3,,,,,,,,,,,,,,,,,,,,,,,,,,,,001,2021-12-06_02h17.42.365,jm_natural_scene_simialrity_2-12-2021,2021.2.3,Win32,60.10337781,60a7d8f45174b6633c940a15,61ad71e11ddd29ccf7a27d5b,61ad72ab8e98e9fa0404604c,,,,,,-102,37,1,0,0,response7disk,1.4355,-13,-10,1,0,0,rectangle,-13,-10,1,0,0,2,-3,"[139,89,10,153,30,81,134,95,39,94]",-13,-10,1,0,0,0,62,62,21,1,LightGreen,LightGreen.jpg,DarkBlue,DarkBlue.jpg,,
,,,,,,,,,,,,,,,,,,-3,,,,,,,,,,,,,,,,,,,,,,,,,,,,001,2021-12-06_02h17.42.365,jm_natural_scene_simialrity_2-12-2021,2021.2.3,Win32,60.10337781,60a7d8f45174b6633c940a15,61ad71e11ddd29ccf7a27d5b,61ad72ab8e98e9fa0404604c,,,,,,-100,64,1,0,0,response7disk,1.4163,2,-3,1,0,0,rectangle,2,-3,1,0,0,2,-3,"[139,89,10,153,30,81,134,95,39,94]",2,-3,1,0,0,0,63,63,48,1,Turquiose,Turquiose.jpg,Red,Red.jpg,,
,,,,,,,,,,,,,,,,,,-3,,,,,,,,,,,,,,,,,,,,,,,,,,,,001,2021-12-06_02h17.42.365,jm_natural_scene_simialrity_2-12-2021,2021.2.3,Win32,60.10337781,60a7d8f45174b6633c940a15,61ad71e11ddd29ccf7a27d5b,61ad72ab8e98e9fa0404604c,,,,,,-87,42,1,0,0,response7disk,1.7834,-15,-5,1,0,0,rectangle,-15,-5,1,0,0,2,3,"[139,89,10,153,30,81,134,95,39,94]",-15,-5,1,0,0,0,64,64,55,1,Turquiose,Turquiose.jpg,Yellow,Yellow.jpg,,
,,,,,,,,,,,,,,,,,,4,,,,,,,,,,,,,,,,,,,,,,,,,,,,001,2021-12-06_02h17.42.365,jm_natural_scene_simialrity_2-12-2021,2021.2.3,Win32,60.10337781,60a7d8f45174b6633c940a15,61ad71e11ddd29ccf7a27d5b,61ad72ab8e98e9fa0404604c,,,,,,52,93,1,0,0,response1disk,1.5832,5,4,1,0,0,rectangle,5,4,1,0,0,2,1,"[139,89,10,153,30,81,134,95,39,94]",5,4,1,0,0,0,65,65,24,1,DarkGreen,DarkGreen.jpg,DarkGreen,DarkGreen.jpg,,
,,,,,,,,,,,,,,,,,,-4,,,,,,,,,,,,,,,,,,,,,,,,,,,,001,2021-12-06_02h17.42.365,jm_natural_scene_simialrity_2-12-2021,2021.2.3,Win32,60.10337781,60a7d8f45174b6633c940a15,61ad71e11ddd29ccf7a27d5b,61ad72ab8e98e9fa0404604c,,,,,,-42,84,1,0,0,response7disk,2.3522,-18,10,1,0,0,rectangle,-18,10,1,0,0,2,2,"[139,89,10,153,30,81,134,95,39,94]",-18,10,1,0,0,0,66,66,52,1,Purple,Purple.jpg,Red,Red.jpg,,
,,,,,,,,,,,,,,,,,,-4,,,,,,,,,,,,,,,,,,,,,,,,,,,,001,2021-12-06_02h17.42.365,jm_natural_scene_simialrity_2-12-2021,2021.2.3,Win32,60.10337781,60a7d8f45174b6633c940a15,61ad71e11ddd29ccf7a27d5b,61ad72ab8e98e9fa0404604c,,,,,,-44,80,1,0,0,response7disk,1.2168,-11,-16,1,0,0,rectangle,-11,-16,1,0,0,2,1,"[139,89,10,153,30,81,134,95,39,94]",-11,-16,1,0,0,0,67,67,66,1,Turquiose,Turquiose.jpg,DarkGreen,DarkGreen.jpg,,
,,,,,,,,,,,,,,,,,,3,,,,,,,,,,,,,,,,,,,,,,,,,,,,001,2021-12-06_02h17.42.365,jm_natural_scene_simialrity_2-12-2021,2021.2.3,Win32,60.10337781,60a7d8f45174b6633c940a15,61ad71e11ddd29ccf7a27d5b,61ad72ab8e98e9fa0404604c,,,,,,88,44,1,0,0,response1disk,2.6018,6,7,1,0,0,rectangle,6,7,1,0,0,2,2,"[139,89,10,153,30,81,134,95,39,94]",6,7,1,0,0,0,68,68,38,1,LightBlue,LightBlue.jpg,Purple,Purple.jpg,,
,,,,,,,,,,,,,,,,,,-4,,,,,,,,,,,,,,,,,,,,,,,,,,,,001,2021-12-06_02h17.42.365,jm_natural_scene_simialrity_2-12-2021,2021.2.3,Win32,60.10337781,60a7d8f45174b6633c940a15,61ad71e11ddd29ccf7a27d5b,61ad72ab8e98e9fa0404604c,,,,,,-50,89,1,0,0,response7disk,1.7333,-14,-1,1,0,0,rectangle,-14,-1,1,0,0,2,-1,"[139,89,10,153,30,81,134,95,39,94]",-14,-1,1,0,0,0,69,69,78,1,Pink,Pink.jpg,DarkBlue,DarkBlue.jpg,,
,,,,,,,,,,,,,,,,,,-4,,,,,,,,,,,,,,,,,,,,,,,,,,,,001,2021-12-06_02h17.42.365,jm_natural_scene_simialrity_2-12-2021,2021.2.3,Win32,60.10337781,60a7d8f45174b6633c940a15,61ad71e11ddd29ccf7a27d5b,61ad72ab8e98e9fa0404604c,,,,,,-57,83,1,0,0,response7disk,1.2164,-4,-1,1,0,0,rectangle,-4,-1,1,0,0,2,-2,"[139,89,10,153,30,81,134,95,39,94]",-4,-1,1,0,0,0,70,70,2,1,Red,Red.jpg,LightGreen,LightGreen.jpg,,
,,,,,,,,,,,,,,,,,,-4,,,,,,,,,,,,,,,,,,,,,,,,,,,,001,2021-12-06_02h17.42.365,jm_natural_scene_simialrity_2-12-2021,2021.2.3,Win32,60.10337781,60a7d8f45174b6633c940a15,61ad71e11ddd29ccf7a27d5b,61ad72ab8e98e9fa0404604c,,,,,,-49,105,1,0,0,response7disk,1.7853,-7,9,1,0,0,rectangle,-7,9,1,0,0,2,1,"[139,89,10,153,30,81,134,95,39,94]",-7,9,1,0,0,0,71,71,56,1,LightBlue,LightBlue.jpg,Yellow,Yellow.jpg,,
,,,,,,,,,,,,,,,,,,4,,,,,,,,,,,,,,,,,,,,,,,,,,,,001,2021-12-06_02h17.42.365,jm_natural_scene_simialrity_2-12-2021,2021.2.3,Win32,60.10337781,60a7d8f45174b6633c940a15,61ad71e11ddd29ccf7a27d5b,61ad72ab8e98e9fa0404604c,,,,,,39,96,1,0,0,response1disk,2.235,4,10,1,0,0,rectangle,4,10,1,0,0,2,-2,"[139,89,10,153,30,81,134,95,39,94]",4,10,1,0,0,0,72,72,60,1,DarkGreen,DarkGreen.jpg,LightGreen,LightGreen.jpg,,
,,,,,,,,,,,,,,,,,,-3,,,,,,,,,,,,,,,,,,,,,,,,,,,,001,2021-12-06_02h17.42.365,jm_natural_scene_simialrity_2-12-2021,2021.2.3,Win32,60.10337781,60a7d8f45174b6633c940a15,61ad71e11ddd29ccf7a27d5b,61ad72ab8e98e9fa0404604c,,,,,,-76,55,1,0,0,response7disk,1.9683,-14,5,1,0,0,rectangle,-14,5,1,0,0,2,2,"[139,89,10,153,30,81,134,95,39,94]",-14,5,1,0,0,0,73,73,33,1,Turquiose,Turquiose.jpg,Pink,Pink.jpg,,
,,,,,,,,,,,,,,,,,,-3,,,,,,,,,,,,,,,,,,,,,,,,,,,,001,2021-12-06_02h17.42.365,jm_natural_scene_simialrity_2-12-2021,2021.2.3,Win32,60.10337781,60a7d8f45174b6633c940a15,61ad71e11ddd29ccf7a27d5b,61ad72ab8e98e9fa0404604c,,,,,,-77,52,1,0,0,response7disk,1.2361,-8,1,1,0,0,rectangle,-8,1,1,0,0,2,3,"[139,89,10,153,30,81,134,95,39,94]",-8,1,1,0,0,0,74,74,19,1,LightGreen,LightGreen.jpg,Turquiose,Turquiose.jpg,,
,,,,,,,,,,,,,,,,,,-3,,,,,,,,,,,,,,,,,,,,,,,,,,,,001,2021-12-06_02h17.42.365,jm_natural_scene_simialrity_2-12-2021,2021.2.3,Win32,60.10337781,60a7d8f45174b6633c940a15,61ad71e11ddd29ccf7a27d5b,61ad72ab8e98e9fa0404604c,,,,,,-85,48,1,0,0,response7disk,1.8835,2,-10,1,0,0,rectangle,2,-10,1,0,0,2,1,"[139,89,10,153,30,81,134,95,39,94]",2,-10,1,0,0,0,75,75,70,1,Purple,Purple.jpg,DarkGreen,DarkGreen.jpg,,
,,,,,,,,,,,,,,,,,,-4,,,,,,,,,,,,,,,,,,,,,,,,,,,,001,2021-12-06_02h17.42.365,jm_natural_scene_simialrity_2-12-2021,2021.2.3,Win32,60.10337781,60a7d8f45174b6633c940a15,61ad71e11ddd29ccf7a27d5b,61ad72ab8e98e9fa0404604c,,,,,,-52,86,1,0,0,response7disk,1.6998,-18,-8,1,0,0,rectangle,-18,-8,1,0,0,2,1,"[139,89,10,153,30,81,134,95,39,94]",-18,-8,1,0,0,0,76,76,40,1,DarkBlue,DarkBlue.jpg,Pink,Pink.jpg,,
,,,,,,,,,,,,,,,,,,-1,,,,,,,,,,,,,,,,,,,,,,,,,,,,001,2021-12-06_02h17.42.365,jm_natural_scene_simialrity_2-12-2021,2021.2.3,Win32,60.10337781,60a7d8f45174b6633c940a15,61ad71e11ddd29ccf7a27d5b,61ad72ab8e98e9fa0404604c,,,,,,-41,-86,1,0,0,response5disk,3.0498,-2,-2,1,0,0,rectangle,-2,-2,1,0,0,2,-3,"[139,89,10,153,30,81,134,95,39,94]",-2,-2,1,0,0,0,77,77,27,1,DarkGreen,DarkGreen.jpg,DarkBlue,DarkBlue.jpg,,
,,,,,,,,,,,,,,,,,,4,,,,,,,,,,,,,,,,,,,,,,,,,,,,001,2021-12-06_02h17.42.365,jm_natural_scene_simialrity_2-12-2021,2021.2.3,Win32,60.10337781,60a7d8f45174b6633c940a15,61ad71e11ddd29ccf7a27d5b,61ad72ab8e98e9fa0404604c,,,,,,42,95,1,0,0,response1disk,1.4166,0,12,1,0,0,rectangle,0,12,1,0,0,2,-1,"[139,89,10,153,30,81,134,95,39,94]",0,12,1,0,0,0,78,78,35,1,LightBlue,LightBlue.jpg,LightBlue,LightBlue.jpg,,
,,,,,,,,,,,,,,,,,,2,,,,,,,,,,,,,,,,,,,,,,,,,,,,001,2021-12-06_02h17.42.365,jm_natural_scene_simialrity_2-12-2021,2021.2.3,Win32,60.10337781,60a7d8f45174b6633c940a15,61ad71e11ddd29ccf7a27d5b,61ad72ab8e98e9fa0404604c,,,,,,89,-40,1,0,0,response3disk,2.4012,-3,9,1,0,0,rectangle,-3,9,1,0,0,2,1,"[139,89,10,153,30,81,134,95,39,94]",-3,9,1,0,0,0,79,79,45,1,Yellow,Yellow.jpg,Red,Red.jpg,,
,,,,,,,,,,,,,,,,,,4,,,,,,,,,,,,,,,,,,,,,,,,,,,,001,2021-12-06_02h17.42.365,jm_natural_scene_simialrity_2-12-2021,2021.2.3,Win32,60.10337781,60a7d8f45174b6633c940a15,61ad71e11ddd29ccf7a27d5b,61ad72ab8e98e9fa0404604c,,,,,,33,100,1,0,0,response1disk,1.2531,1,22,1,0,0,rectangle,98,-56,1,0,0,2,2,"[139,89,10,153,30,81,134,95,39,94]",4,9,1,0,0,0,80,80,17,1,LightGreen,LightGreen.jpg,LightGreen,LightGreen.jpg,response3disk_3,rectangle
,,,,,,,,,,,,,,,,,,-4,,,,,,,,,,,,,,,,,,,,,,,,,,,,001,2021-12-06_02h17.42.365,jm_natural_scene_simialrity_2-12-2021,2021.2.3,Win32,60.10337781,60a7d8f45174b6633c940a15,61ad71e11ddd29ccf7a27d5b,61ad72ab8e98e9fa0404604c,,,,,,-45,89,1,0,0,response7disk,1.3335,-12,-8,1,0,0,rectangle,-12,-8,1,0,0,2,-1,"[139,89,10,153,30,81,134,95,39,94]",-12,-8,1,0,0,1,0,81,46,1,LightGreen,LightGreen.jpg,Red,Red.jpg,,
,,,,,,,,,,,,,,,,,,2,,,,,,,,,,,,,,,,,,,,,,,,,,,,001,2021-12-06_02h17.42.365,jm_natural_scene_simialrity_2-12-2021,2021.2.3,Win32,60.10337781,60a7d8f45174b6633c940a15,61ad71e11ddd29ccf7a27d5b,61ad72ab8e98e9fa0404604c,,,,,,93,-55,1,0,0,response3disk,2.7846,6,2,1,0,0,rectangle,6,2,1,0,0,2,-3,"[139,89,10,153,30,81,134,95,39,94]",6,2,1,0,0,1,1,82,71,1,LightBlue,LightBlue.jpg,Turquiose,Turquiose.jpg,,
,,,,,,,,,,,,,,,,,,-4,,,,,,,,,,,,,,,,,,,,,,,,,,,,001,2021-12-06_02h17.42.365,jm_natural_scene_simialrity_2-12-2021,2021.2.3,Win32,60.10337781,60a7d8f45174b6633c940a15,61ad71e11ddd29ccf7a27d5b,61ad72ab8e98e9fa0404604c,,,,,,-47,91,1,0,0,response7disk,3.3342,-17,5,1,0,0,rectangle,-17,5,1,0,0,2,-2,"[139,89,10,153,30,81,134,95,39,94]",-17,5,1,0,0,1,2,83,40,1,DarkBlue,DarkBlue.jpg,Pink,Pink.jpg,,
,,,,,,,,,,,,,,,,,,4,,,,,,,,,,,,,,,,,,,,,,,,,,,,001,2021-12-06_02h17.42.365,jm_natural_scene_simialrity_2-12-2021,2021.2.3,Win32,60.10337781,60a7d8f45174b6633c940a15,61ad71e11ddd29ccf7a27d5b,61ad72ab8e98e9fa0404604c,,,,,,44,68,1,0,0,response1disk,1.2356,6,-6,1,0,0,rectangle,6,-6,1,0,0,2,-1,"[139,89,10,153,30,81,134,95,39,94]",6,-6,1,0,0,1,3,84,42,1,Pink,Pink.jpg,Pink,Pink.jpg,,
,,,,,,,,,,,,,,,,,,1,,,,,,,,,,,,,,,,,,,,,,,,,,,,001,2021-12-06_02h17.42.365,jm_natural_scene_simialrity_2-12-2021,2021.2.3,Win32,60.10337781,60a7d8f45174b6633c940a15,61ad71e11ddd29ccf7a27d5b,61ad72ab8e98e9fa0404604c,,,,,,44,-117,1,0,0,response3disk,4.1006,5,-1,1,0,0,rectangle,5,-1,1,0,0,2,-2,"[139,89,10,153,30,81,134,95,39,94]",5,-1,1,0,0,1,4,85,15,1,Yellow,Yellow.jpg,Pink,Pink.jpg,,
,,,,,,,,,,,,,,,,,,-3,,,,,,,,,,,,,,,,,,,,,,,,,,,,001,2021-12-06_02h17.42.365,jm_natural_scene_simialrity_2-12-2021,2021.2.3,Win32,60.10337781,60a7d8f45174b6633c940a15,61ad71e11ddd29ccf7a27d5b,61ad72ab8e98e9fa0404604c,,,,,,-83,42,1,0,0,response7disk,1.6321,-10,-12,1,0,0,rectangle,-10,-12,1,0,0,2,-2,"[139,89,10,153,30,81,134,95,39,94]",-10,-12,1,0,0,1,5,86,3,1,Red,Red.jpg,DarkGreen,DarkGreen.jpg,,
,,,,,,,,,,,,,,,,,,3,,,,,,,,,,,,,,,,,,,,,,,,,,,,001,2021-12-06_02h17.42.365,jm_natural_scene_simialrity_2-12-2021,2021.2.3,Win32,60.10337781,60a7d8f45174b6633c940a15,61ad71e11ddd29ccf7a27d5b,61ad72ab8e98e9fa0404604c,,,,,,79,38,1,0,0,response1disk,2.0159,6,8,1,0,0,rectangle,6,8,1,0,0,2,-1,"[139,89,10,153,30,81,134,95,39,94]",6,8,1,0,0,1,6,87,31,1,Turquiose,Turquiose.jpg,LightBlue,LightBlue.jpg,,
,,,,,,,,,,,,,,,,,,3,,,,,,,,,,,,,,,,,,,,,,,,,,,,001,2021-12-06_02h17.42.365,jm_natural_scene_simialrity_2-12-2021,2021.2.3,Win32,60.10337781,60a7d8f45174b6633c940a15,61ad71e11ddd29ccf7a27d5b,61ad72ab8e98e9fa0404604c,,,,,,81,55,1,0,0,response1disk,1.8841,6,15,1,0,0,rectangle,-102,-39,1,0,0,2,-2,"[139,89,10,153,30,81,134,95,39,94]",12,4,1,0,0,1,7,88,38,1,LightBlue,LightBlue.jpg,Purple,Purple.jpg,response5disk_3,rectangle
,,,,,,,,,,,,,,,,,,2,,,,,,,,,,,,,,,,,,,,,,,,,,,,001,2021-12-06_02h17.42.365,jm_natural_scene_simialrity_2-12-2021,2021.2.3,Win32,60.10337781,60a7d8f45174b6633c940a15,61ad71e11ddd29ccf7a27d5b,61ad72ab8e98e9fa0404604c,,,,,,88,-43,1,0,0,response3disk,1.8828,15,-1,1,0,0,rectangle,15,-1,1,0,0,2,-3,"[139,89,10,153,30,81,134,95,39,94]",15,-1,1,0,0,1,8,89,45,1,Yellow,Yellow.jpg,Red,Red.jpg,,
,,,,,,,,,,,,,,,,,,3,,,,,,,,,,,,,,,,,,,,,,,,,,,,001,2021-12-06_02h17.42.365,jm_natural_scene_simialrity_2-12-2021,2021.2.3,Win32,60.10337781,60a7d8f45174b6633c940a15,61ad71e11ddd29ccf7a27d5b,61ad72ab8e98e9fa0404604c,,,,,,95,40,1,0,0,response1disk,2.1328,-13,-13,1,0,0,rectangle,-13,-13,1,0,0,2,-3,"[139,89,10,153,30,81,134,95,39,94]",-13,-13,1,0,0,1,9,90,32,1,Turquiose,Turquiose.jpg,DarkBlue,DarkBlue.jpg,,
,,,,,,,,,,,,,,,,,,-3,,,,,,,,,,,,,,,,,,,,,,,,,,,,001,2021-12-06_02h17.42.365,jm_natural_scene_simialrity_2-12-2021,2021.2.3,Win32,60.10337781,60a7d8f45174b6633c940a15,61ad71e11ddd29ccf7a27d5b,61ad72ab8e98e9fa0404604c,,,,,,-85,49,1,0,0,response7disk,1.7686,-11,-10,1,0,0,rectangle,-11,-10,1,0,0,2,1,"[139,89,10,153,30,81,134,95,39,94]",-11,-10,1,0,0,1,10,91,50,1,DarkBlue,DarkBlue.jpg,Red,Red.jpg,,
,,,,,,,,,,,,,,,,,,3,,,,,,,,,,,,,,,,,,,,,,,,,,,,001,2021-12-06_02h17.42.365,jm_natural_scene_simialrity_2-12-2021,2021.2.3,Win32,60.10337781,60a7d8f45174b6633c940a15,61ad71e11ddd29ccf7a27d5b,61ad72ab8e98e9fa0404604c,,,,,,90,39,1,0,0,response1disk,5.6957,15,3,1,0,0,rectangle,15,3,1,0,0,2,1,"[139,89,10,153,30,81,134,95,39,94]",15,3,1,0,0,1,11,92,72,1,DarkBlue,DarkBlue.jpg,Turquiose,Turquiose.jpg,,
,,,,,,,,,,,,,,,,,,-3,,,,,,,,,,,,,,,,,,,,,,,,,,,,001,2021-12-06_02h17.42.365,jm_natural_scene_simialrity_2-12-2021,2021.2.3,Win32,60.10337781,60a7d8f45174b6633c940a15,61ad71e11ddd29ccf7a27d5b,61ad72ab8e98e9fa0404604c,,,,,,-91,53,1,0,0,response7disk,2.3662,0,-3,1,0,0,rectangle,-45,101,1,0,0,-4,-4,"[139,89,10,153,30,81,134,95,39,94]",0,18,1,0,0,1,12,93,80,1,Purple,Purple.jpg,Pink,Pink.jpg,response7disk_3,rectangle
,,,,,,,,,,,,,,,,,,-3,,,,,,,,,,,,,,,,,,,,,,,,,,,,001,2021-12-06_02h17.42.365,jm_natural_scene_simialrity_2-12-2021,2021.2.3,Win32,60.10337781,60a7d8f45174b6633c940a15,61ad71e11ddd29ccf7a27d5b,61ad72ab8e98e9fa0404604c,,,,,,-91,63,1,0,0,response7disk,2.6161,-17,-4,1,0,0,rectangle,60,-111,1,0,0,1,1,"[139,89,10,153,30,81,134,95,39,94]",-5,-8,1,0,0,1,13,94,67,1,LightBlue,LightBlue.jpg,DarkGreen,DarkGreen.jpg,response3disk_3,rectangle
,,,,,,,,,,,,,,,,,,3,,,,,,,,,,,,,,,,,,,,,,,,,,,,001,2021-12-06_02h17.42.365,jm_natural_scene_simialrity_2-12-2021,2021.2.3,Win32,60.10337781,60a7d8f45174b6633c940a15,61ad71e11ddd29ccf7a27d5b,61ad72ab8e98e9fa0404604c,,,,,,92,36,1,0,0,response1disk,1.6666,5,14,1,0,0,rectangle,5,14,1,0,0,1,-3,"[139,89,10,153,30,81,134,95,39,94]",5,14,1,0,0,1,14,95,18,1,LightGreen,LightGreen.jpg,DarkGreen,DarkGreen.jpg,,
,,,,,,,,,,,,,,,,,,-3,,,,,,,,,,,,,,,,,,,,,,,,,,,,001,2021-12-06_02h17.42.365,jm_natural_scene_simialrity_2-12-2021,2021.2.3,Win32,60.10337781,60a7d8f45174b6633c940a15,61ad71e11ddd29ccf7a27d5b,61ad72ab8e98e9fa0404604c,,,,,,-80,50,1,0,0,response7disk,1.6527,-7,-6,1,0,0,rectangle,-7,-6,1,0,0,1,-3,"[139,89,10,153,30,81,134,95,39,94]",-7,-6,1,0,0,1,15,96,64,1,Pink,Pink.jpg,LightGreen,LightGreen.jpg,,
,,,,,,,,,,,,,,,,,,2,,,,,,,,,,,,,,,,,,,,,,,,,,,,001,2021-12-06_02h17.42.365,jm_natural_scene_simialrity_2-12-2021,2021.2.3,Win32,60.10337781,60a7d8f45174b6633c940a15,61ad71e11ddd29ccf7a27d5b,61ad72ab8e98e9fa0404604c,,,,,,98,-61,1,0,0,response3disk,3.032,1,-1,1,0,0,rectangle,1,-1,1,0,0,1,3,"[139,89,10,153,30,81,134,95,39,94]",1,-1,1,0,0,1,16,97,79,1,Purple,Purple.jpg,DarkBlue,DarkBlue.jpg,,
,,,,,,,,,,,,,,,,,,1,,,,,,,,,,,,,,,,,,,,,,,,,,,,001,2021-12-06_02h17.42.365,jm_natural_scene_simialrity_2-12-2021,2021.2.3,Win32,60.10337781,60a7d8f45174b6633c940a15,61ad71e11ddd29ccf7a27d5b,61ad72ab8e98e9fa0404604c,,,,,,43,-106,1,0,0,response3disk,3.0165,-7,15,1,0,0,rectangle,-7,15,1,0,0,1,-1,"[139,89,10,153,30,81,134,95,39,94]",-7,15,1,0,0,1,17,98,68,1,DarkBlue,DarkBlue.jpg,DarkGreen,DarkGreen.jpg,,
,,,,,,,,,,,,,,,,,,-4,,,,,,,,,,,,,,,,,,,,,,,,,,,,001,2021-12-06_02h17.42.365,jm_natural_scene_simialrity_2-12-2021,2021.2.3,Win32,60.10337781,60a7d8f45174b6633c940a15,61ad71e11ddd29ccf7a27d5b,61ad72ab8e98e9fa0404604c,,,,,,-59,81,1,0,0,response7disk,2.069,-11,-11,1,0,0,rectangle,-11,-11,1,0,0,1,3,"[139,89,10,153,30,81,134,95,39,94]",-11,-11,1,0,0,1,18,99,76,1,Pink,Pink.jpg,LightBlue,LightBlue.jpg,,
,,,,,,,,,,,,,,,,,,-3,,,,,,,,,,,,,,,,,,,,,,,,,,,,001,2021-12-06_02h17.42.365,jm_natural_scene_simialrity_2-12-2021,2021.2.3,Win32,60.10337781,60a7d8f45174b6633c940a15,61ad71e11ddd29ccf7a27d5b,61ad72ab8e98e9fa0404604c,,,,,,-89,52,1,0,0,response7disk,2.3657,-4,-7,1,0,0,rectangle,-4,-7,1,0,0,1,1,"[139,89,10,153,30,81,134,95,39,94]",-4,-7,1,0,0,1,19,100,61,1,Turquiose,Turquiose.jpg,LightGreen,LightGreen.jpg,,
,,,,,,,,,,,,,,,,,,-3,,,,,,,,,,,,,,,,,,,,,,,,,,,,001,2021-12-06_02h17.42.365,jm_natural_scene_simialrity_2-12-2021,2021.2.3,Win32,60.10337781,60a7d8f45174b6633c940a15,61ad71e11ddd29ccf7a27d5b,61ad72ab8e98e9fa0404604c,,,,,,-72,41,1,0,0,response7disk,1.2485,7,0,1,0,0,rectangle,7,0,1,0,0,1,2,"[139,89,10,153,30,81,134,95,39,94]",7,0,1,0,0,1,20,101,63,1,DarkBlue,DarkBlue.jpg,LightGreen,LightGreen.jpg,,
,,,,,,,,,,,,,,,,,,-3,,,,,,,,,,,,,,,,,,,,,,,,,,,,001,2021-12-06_02h17.42.365,jm_natural_scene_simialrity_2-12-2021,2021.2.3,Win32,60.10337781,60a7d8f45174b6633c940a15,61ad71e11ddd29ccf7a27d5b,61ad72ab8e98e9fa0404604c,,,,,,-83,50,1,0,0,response7disk,1.7493,-9,5,1,0,0,rectangle,-9,5,1,0,0,1,-2,"[139,89,10,153,30,81,134,95,39,94]",-9,5,1,0,0,1,21,102,11,1,Yellow,Yellow.jpg,DarkGreen,DarkGreen.jpg,,
,,,,,,,,,,,,,,,,,,-4,,,,,,,,,,,,,,,,,,,,,,,,,,,,001,2021-12-06_02h17.42.365,jm_natural_scene_simialrity_2-12-2021,2021.2.3,Win32,60.10337781,60a7d8f45174b6633c940a15,61ad71e11ddd29ccf7a27d5b,61ad72ab8e98e9fa0404604c,,,,,,-44,91,1,0,0,response7disk,2.0002,-9,6,1,0,0,rectangle,-9,6,1,0,0,1,1,"[139,89,10,153,30,81,134,95,39,94]",-9,6,1,0,0,1,22,103,13,1,Yellow,Yellow.jpg,LightBlue,LightBlue.jpg,,
,,,,,,,,,,,,,,,,,,-4,,,,,,,,,,,,,,,,,,,,,,,,,,,,001,2021-12-06_02h17.42.365,jm_natural_scene_simialrity_2-12-2021,2021.2.3,Win32,60.10337781,60a7d8f45174b6633c940a15,61ad71e11ddd29ccf7a27d5b,61ad72ab8e98e9fa0404604c,,,,,,-42,74,1,0,0,response7disk,1.5508,-6,7,1,0,0,rectangle,-6,7,1,0,0,1,1,"[139,89,10,153,30,81,134,95,39,94]",-6,7,1,0,0,1,23,104,59,1,Purple,Purple.jpg,Yellow,Yellow.jpg,,
,,,,,,,,,,,,,,,,,,-4,,,,,,,,,,,,,,,,,,,,,,,,,,,,001,2021-12-06_02h17.42.365,jm_natural_scene_simialrity_2-12-2021,2021.2.3,Win32,60.10337781,60a7d8f45174b6633c940a15,61ad71e11ddd29ccf7a27d5b,61ad72ab8e98e9fa0404604c,,,,,,-36,77,1,0,0,response7disk,1.2163,-2,-4,1,0,0,rectangle,-2,-4,1,0,0,1,2,"[139,89,10,153,30,81,134,95,39,94]",-2,-4,1,0,0,1,24,105,28,1,DarkGreen,DarkGreen.jpg,Pink,Pink.jpg,,
,,,,,,,,,,,,,,,,,,-4,,,,,,,,,,,,,,,,,,,,,,,,,,,,001,2021-12-06_02h17.42.365,jm_natural_scene_simialrity_2-12-2021,2021.2.3,Win32,60.10337781,60a7d8f45174b6633c940a15,61ad71e11ddd29ccf7a27d5b,61ad72ab8e98e9fa0404604c,,,,,,-43,73,1,0,0,response7disk,1.7156,-1,-7,1,0,0,rectangle,-1,-7,1,0,0,1,-2,"[139,89,10,153,30,81,134,95,39,94]",-1,-7,1,0,0,1,25,106,56,1,LightBlue,LightBlue.jpg,Yellow,Yellow.jpg,,
,,,,,,,,,,,,,,,,,,2,,,,,,,,,,,,,,,,,,,,,,,,,,,,001,2021-12-06_02h17.42.365,jm_natural_scene_simialrity_2-12-2021,2021.2.3,Win32,60.10337781,60a7d8f45174b6633c940a15,61ad71e11ddd29ccf7a27d5b,61ad72ab8e98e9fa0404604c,,,,,,102,-49,1,0,0,response3disk,5.3791,-3,3,1,0,0,rectangle,-3,3,1,0,0,1,3,"[139,89,10,153,30,81,134,95,39,94]",-3,3,1,0,0,1,26,107,7,1,Red,Red.jpg,Pink,Pink.jpg,,
,,,,,,,,,,,,,,,,,,3,,,,,,,,,,,,,,,,,,,,,,,,,,,,001,2021-12-06_02h17.42.365,jm_natural_scene_simialrity_2-12-2021,2021.2.3,Win32,60.10337781,60a7d8f45174b6633c940a15,61ad71e11ddd29ccf7a27d5b,61ad72ab8e98e9fa0404604c,,,,,,95,69,1,0,0,response1disk,2.2501,7,12,1,0,0,rectangle,7,12,1,0,0,1,3,"[139,89,10,153,30,81,134,95,39,94]",7,12,1,0,0,1,27,108,77,1,Purple,Purple.jpg,LightBlue,LightBlue.jpg,,
,,,,,,,,,,,,,,,,,,4,,,,,,,,,,,,,,,,,,,,,,,,,,,,001,2021-12-06_02h17.42.365,jm_natural_scene_simialrity_2-12-2021,2021.2.3,Win32,60.10337781,60a7d8f45174b6633c940a15,61ad71e11ddd29ccf7a27d5b,61ad72ab8e98e9fa0404604c,,,,,,51,93,1,0,0,response1disk,1.2502,-6,-10,1,0,0,rectangle,-6,-10,1,0,0,1,-2,"[139,89,10,153,30,81,134,95,39,94]",-6,-10,1,0,0,1,28,109,0,1,Red,Red.jpg,Red,Red.jpg,,
,,,,,,,,,,,,,,,,,,4,,,,,,,,,,,,,,,,,,,,,,,,,,,,001,2021-12-06_02h17.42.365,jm_natural_scene_simialrity_2-12-2021,2021.2.3,Win32,60.10337781,60a7d8f45174b6633c940a15,61ad71e11ddd29ccf7a27d5b,61ad72ab8e98e9fa0404604c,,,,,,57,111,1,0,0,response1disk,1.3003,5,8,1,0,0,rectangle,5,8,1,0,0,1,-3,"[139,89,10,153,30,81,134,95,39,94]",5,8,1,0,0,1,29,110,30,1,Turquiose,Turquiose.jpg,Turquiose,Turquiose.jpg,,
,,,,,,,,,,,,,,,,,,2,,,,,,,,,,,,,,,,,,,,,,,,,,,,001,2021-12-06_02h17.42.365,jm_natural_scene_simialrity_2-12-2021,2021.2.3,Win32,60.10337781,60a7d8f45174b6633c940a15,61ad71e11ddd29ccf7a27d5b,61ad72ab8e98e9fa0404604c,,,,,,101,-40,1,0,0,response3disk,2.9036,16,-1,1,0,0,rectangle,16,-1,1,0,0,1,-1,"[139,89,10,153,30,81,134,95,39,94]",16,-1,1,0,0,1,30,111,51,1,Pink,Pink.jpg,Red,Red.jpg,,
,,,,,,,,,,,,,,,,,,-3,,,,,,,,,,,,,,,,,,,,,,,,,,,,001,2021-12-06_02h17.42.365,jm_natural_scene_simialrity_2-12-2021,2021.2.3,Win32,60.10337781,60a7d8f45174b6633c940a15,61ad71e11ddd29ccf7a27d5b,61ad72ab8e98e9fa0404604c,,,,,,-86,46,1,0,0,response7disk,1.7533,-13,-9,1,0,0,rectangle,-13,-9,1,0,0,1,-1,"[139,89,10,153,30,81,134,95,39,94]",-13,-9,1,0,0,1,31,112,62,1,LightBlue,LightBlue.jpg,LightGreen,LightGreen.jpg,,
,,,,,,,,,,,,,,,,,,-4,,,,,,,,,,,,,,,,,,,,,,,,,,,,001,2021-12-06_02h17.42.365,jm_natural_scene_simialrity_2-12-2021,2021.2.3,Win32,60.10337781,60a7d8f45174b6633c940a15,61ad71e11ddd29ccf7a27d5b,61ad72ab8e98e9fa0404604c,,,,,,-71,104,1,0,0,response7disk,1.4503,-2,-20,1,0,0,rectangle,-2,-20,1,0,0,1,3,"[139,89,10,153,30,81,134,95,39,94]",-2,-20,1,0,0,1,32,113,49,1,LightBlue,LightBlue.jpg,Red,Red.jpg,,
,,,,,,,,,,,,,,,,,,-4,,,,,,,,,,,,,,,,,,,,,,,,,,,,001,2021-12-06_02h17.42.365,jm_natural_scene_simialrity_2-12-2021,2021.2.3,Win32,60.10337781,60a7d8f45174b6633c940a15,61ad71e11ddd29ccf7a27d5b,61ad72ab8e98e9fa0404604c,,,,,,-46,77,1,0,0,response7disk,1.2152,-7,9,1,0,0,rectangle,-7,9,1,0,0,1,-2,"[139,89,10,153,30,81,134,95,39,94]",-7,9,1,0,0,1,33,114,16,1,Yellow,Yellow.jpg,Purple,Purple.jpg,,
,,,,,,,,,,,,,,,,,,-4,,,,,,,,,,,,,,,,,,,,,,,,,,,,001,2021-12-06_02h17.42.365,jm_natural_scene_simialrity_2-12-2021,2021.2.3,Win32,60.10337781,60a7d8f45174b6633c940a15,61ad71e11ddd29ccf7a27d5b,61ad72ab8e98e9fa0404604c,,,,,,-49,98,1,0,0,response7disk,1.1491,2,9,1,0,0,rectangle,2,9,1,0,0,1,-4,"[139,89,10,153,30,81,134,95,39,94]",2,9,1,0,0,1,34,115,6,1,Red,Red.jpg,DarkBlue,DarkBlue.jpg,,
,,,,,,,,,,,,,,,,,,-4,,,,,,,,,,,,,,,,,,,,,,,,,,,,001,2021-12-06_02h17.42.365,jm_natural_scene_simialrity_2-12-2021,2021.2.3,Win32,60.10337781,60a7d8f45174b6633c940a15,61ad71e11ddd29ccf7a27d5b,61ad72ab8e98e9fa0404604c,,,,,,-34,82,1,0,0,response7disk,1.6364,-5,3,1,0,0,rectangle,-5,3,1,0,0,1,-2,"[139,89,10,153,30,81,134,95,39,94]",-5,3,1,0,0,1,35,116,69,1,Pink,Pink.jpg,DarkGreen,DarkGreen.jpg,,
,,,,,,,,,,,,,,,,,,4,,,,,,,,,,,,,,,,,,,,,,,,,,,,001,2021-12-06_02h17.42.365,jm_natural_scene_simialrity_2-12-2021,2021.2.3,Win32,60.10337781,60a7d8f45174b6633c940a15,61ad71e11ddd29ccf7a27d5b,61ad72ab8e98e9fa0404604c,,,,,,29,82,1,0,0,response1disk,1.2019,2,11,1,0,0,rectangle,2,11,1,0,0,1,-2,"[139,89,10,153,30,81,134,95,39,94]",2,11,1,0,0,1,36,117,9,1,Yellow,Yellow.jpg,Yellow,Yellow.jpg,,
,,,,,,,,,,,,,,,,,,4,,,,,,,,,,,,,,,,,,,,,,,,,,,,001,2021-12-06_02h17.42.365,jm_natural_scene_simialrity_2-12-2021,2021.2.3,Win32,60.10337781,60a7d8f45174b6633c940a15,61ad71e11ddd29ccf7a27d5b,61ad72ab8e98e9fa0404604c,,,,,,38,100,1,0,0,response1disk,1.1841,8,18,1,0,0,rectangle,8,18,1,0,0,1,-3,"[139,89,10,153,30,81,134,95,39,94]",8,18,1,0,0,1,37,118,17,1,LightGreen,LightGreen.jpg,LightGreen,LightGreen.jpg,,
,,,,,,,,,,,,,,,,,,2,,,,,,,,,,,,,,,,,,,,,,,,,,,,001,2021-12-06_02h17.42.365,jm_natural_scene_simialrity_2-12-2021,2021.2.3,Win32,60.10337781,60a7d8f45174b6633c940a15,61ad71e11ddd29ccf7a27d5b,61ad72ab8e98e9fa0404604c,,,,,,89,-56,1,0,0,response3disk,3.0015,2,-14,1,0,0,rectangle,2,-14,1,0,0,1,-1,"[139,89,10,153,30,81,134,95,39,94]",2,-14,1,0,0,1,38,119,41,1,DarkBlue,DarkBlue.jpg,Purple,Purple.jpg,,
,,,,,,,,,,,,,,,,,,-3,,,,,,,,,,,,,,,,,,,,,,,,,,,,001,2021-12-06_02h17.42.365,jm_natural_scene_simialrity_2-12-2021,2021.2.3,Win32,60.10337781,60a7d8f45174b6633c940a15,61ad71e11ddd29ccf7a27d5b,61ad72ab8e98e9fa0404604c,,,,,,-73,62,1,0,0,response7disk,2.0332,1,-3,1,0,0,rectangle,1,-3,1,0,0,1,2,"[139,89,10,153,30,81,134,95,39,94]",1,-3,1,0,0,1,39,120,52,1,Purple,Purple.jpg,Red,Red.jpg,,
,,,,,,,,,,,,,,,,,,-4,,,,,,,,,,,,,,,,,,,,,,,,,,,,001,2021-12-06_02h17.42.365,jm_natural_scene_simialrity_2-12-2021,2021.2.3,Win32,60.10337781,60a7d8f45174b6633c940a15,61ad71e11ddd29ccf7a27d5b,61ad72ab8e98e9fa0404604c,,,,,,-51,90,1,0,0,response7disk,1.1823,-13,3,1,0,0,rectangle,-13,3,1,0,0,1,-3,"[139,89,10,153,30,81,134,95,39,94]",-13,3,1,0,0,1,40,121,43,1,Pink,Pink.jpg,Purple,Purple.jpg,,
,,,,,,,,,,,,,,,,,,4,,,,,,,,,,,,,,,,,,,,,,,,,,,,001,2021-12-06_02h17.42.365,jm_natural_scene_simialrity_2-12-2021,2021.2.3,Win32,60.10337781,60a7d8f45174b6633c940a15,61ad71e11ddd29ccf7a27d5b,61ad72ab8e98e9fa0404604c,,,,,,33,71,1,0,0,response1disk,1.2837,14,13,1,0,0,rectangle,14,13,1,0,0,1,2,"[139,89,10,153,30,81,134,95,39,94]",14,13,1,0,0,1,41,122,24,1,DarkGreen,DarkGreen.jpg,DarkGreen,DarkGreen.jpg,,
,,,,,,,,,,,,,,,,,,-3,,,,,,,,,,,,,,,,,,,,,,,,,,,,001,2021-12-06_02h17.42.365,jm_natural_scene_simialrity_2-12-2021,2021.2.3,Win32,60.10337781,60a7d8f45174b6633c940a15,61ad71e11ddd29ccf7a27d5b,61ad72ab8e98e9fa0404604c,,,,,,-95,59,1,0,0,response7disk,3.3987,-19,3,1,0,0,rectangle,-19,3,1,0,0,1,-4,"[139,89,10,153,30,81,134,95,39,94]",-19,3,1,0,0,1,42,123,23,1,LightGreen,LightGreen.jpg,Purple,Purple.jpg,,
,,,,,,,,,,,,,,,,,,-1,,,,,,,,,,,,,,,,,,,,,,,,,,,,001,2021-12-06_02h17.42.365,jm_natural_scene_simialrity_2-12-2021,2021.2.3,Win32,60.10337781,60a7d8f45174b6633c940a15,61ad71e11ddd29ccf7a27d5b,61ad72ab8e98e9fa0404604c,,,,,,-44,-101,1,0,0,response5disk,4.8153,-13,-6,1,0,0,rectangle,-13,-6,1,0,0,1,-4,"[139,89,10,153,30,81,134,95,39,94]",-13,-6,1,0,0,1,43,124,27,1,DarkGreen,DarkGreen.jpg,DarkBlue,DarkBlue.jpg,,
,,,,,,,,,,,,,,,,,,-3,,,,,,,,,,,,,,,,,,,,,,,,,,,,001,2021-12-06_02h17.42.365,jm_natural_scene_simialrity_2-12-2021,2021.2.3,Win32,60.10337781,60a7d8f45174b6633c940a15,61ad71e11ddd29ccf7a27d5b,61ad72ab8e98e9fa0404604c,,,,,,-66,41,1,0,0,response7disk,3.066,-5,7,1,0,0,rectangle,-5,7,1,0,0,1,-1,"[139,89,10,153,30,81,134,95,39,94]",-5,7,1,0,0,1,44,125,19,1,LightGreen,LightGreen.jpg,Turquiose,Turquiose.jpg,,
,,,,,,,,,,,,,,,,,,4,,,,,,,,,,,,,,,,,,,,,,,,,,,,001,2021-12-06_02h17.42.365,jm_natural_scene_simialrity_2-12-2021,2021.2.3,Win32,60.10337781,60a7d8f45174b6633c940a15,61ad71e11ddd29ccf7a27d5b,61ad72ab8e98e9fa0404604c,,,,,,47,87,1,0,0,response1disk,1.1505,-10,-5,1,0,0,rectangle,-10,-5,1,0,0,1,2,"[139,89,10,153,30,81,134,95,39,94]",-10,-5,1,0,0,1,45,126,44,1,Purple,Purple.jpg,Purple,Purple.jpg,,
,,,,,,,,,,,,,,,,,,-3,,,,,,,,,,,,,,,,,,,,,,,,,,,,001,2021-12-06_02h17.42.365,jm_natural_scene_simialrity_2-12-2021,2021.2.3,Win32,60.10337781,60a7d8f45174b6633c940a15,61ad71e11ddd29ccf7a27d5b,61ad72ab8e98e9fa0404604c,,,,,,-93,46,1,0,0,response7disk,1.7332,-10,-1,1,0,0,rectangle,-10,-1,1,0,0,1,-4,"[139,89,10,153,30,81,134,95,39,94]",-10,-1,1,0,0,1,46,127,65,1,Purple,Purple.jpg,LightGreen,LightGreen.jpg,,
,,,,,,,,,,,,,,,,,,-3,,,,,,,,,,,,,,,,,,,,,,,,,,,,001,2021-12-06_02h17.42.365,jm_natural_scene_simialrity_2-12-2021,2021.2.3,Win32,60.10337781,60a7d8f45174b6633c940a15,61ad71e11ddd29ccf7a27d5b,61ad72ab8e98e9fa0404604c,,,,,,-75,39,1,0,0,response7disk,1.2365,-3,-5,1,0,0,rectangle,-3,-5,1,0,0,1,-3,"[139,89,10,153,30,81,134,95,39,94]",-3,-5,1,0,0,1,47,128,37,1,LightBlue,LightBlue.jpg,Pink,Pink.jpg,,
,,,,,,,,,,,,,,,,,,-4,,,,,,,,,,,,,,,,,,,,,,,,,,,,001,2021-12-06_02h17.42.365,jm_natural_scene_simialrity_2-12-2021,2021.2.3,Win32,60.10337781,60a7d8f45174b6633c940a15,61ad71e11ddd29ccf7a27d5b,61ad72ab8e98e9fa0404604c,,,,,,-56,80,1,0,0,response7disk,1.4651,-5,1,1,0,0,rectangle,-5,1,1,0,0,1,-3,"[139,89,10,153,30,81,134,95,39,94]",-5,1,1,0,0,1,48,129,10,1,Yellow,Yellow.jpg,LightGreen,LightGreen.jpg,,
,,,,,,,,,,,,,,,,,,-3,,,,,,,,,,,,,,,,,,,,,,,,,,,,001,2021-12-06_02h17.42.365,jm_natural_scene_simialrity_2-12-2021,2021.2.3,Win32,60.10337781,60a7d8f45174b6633c940a15,61ad71e11ddd29ccf7a27d5b,61ad72ab8e98e9fa0404604c,,,,,,-86,65,1,0,0,response7disk,2.065,-13,-3,1,0,0,rectangle,-13,-3,1,0,0,1,2,"[139,89,10,153,30,81,134,95,39,94]",-13,-3,1,0,0,1,49,130,25,1,DarkGreen,DarkGreen.jpg,Turquiose,Turquiose.jpg,,
,,,,,,,,,,,,,,,,,,-4,,,,,,,,,,,,,,,,,,,,,,,,,,,,001,2021-12-06_02h17.42.365,jm_natural_scene_simialrity_2-12-2021,2021.2.3,Win32,60.10337781,60a7d8f45174b6633c940a15,61ad71e11ddd29ccf7a27d5b,61ad72ab8e98e9fa0404604c,,,,,,-64,84,1,0,0,response7disk,1.2367,-14,-11,1,0,0,rectangle,-14,-11,1,0,0,1,1,"[139,89,10,153,30,81,134,95,39,94]",-14,-11,1,0,0,1,50,131,2,1,Red,Red.jpg,LightGreen,LightGreen.jpg,,
,,,,,,,,,,,,,,,,,,-4,,,,,,,,,,,,,,,,,,,,,,,,,,,,001,2021-12-06_02h17.42.365,jm_natural_scene_simialrity_2-12-2021,2021.2.3,Win32,60.10337781,60a7d8f45174b6633c940a15,61ad71e11ddd29ccf7a27d5b,61ad72ab8e98e9fa0404604c,,,,,,-42,92,1,0,0,response7disk,1.2509,-9,2,1,0,0,rectangle,-9,2,1,0,0,1,3,"[139,89,10,153,30,81,134,95,39,94]",-9,2,1,0,0,1,51,132,78,1,Pink,Pink.jpg,DarkBlue,DarkBlue.jpg,,
,,,,,,,,,,,,,,,,,,-4,,,,,,,,,,,,,,,,,,,,,,,,,,,,001,2021-12-06_02h17.42.365,jm_natural_scene_simialrity_2-12-2021,2021.2.3,Win32,60.10337781,60a7d8f45174b6633c940a15,61ad71e11ddd29ccf7a27d5b,61ad72ab8e98e9fa0404604c,,,,,,-49,86,1,0,0,response7disk,1.0657,10,-9,1,0,0,rectangle,59,-101,1,0,0,1,1,"[139,89,10,153,30,81,134,95,39,94]",-7,0,1,0,0,1,52,133,54,1,DarkGreen,DarkGreen.jpg,Yellow,Yellow.jpg,response3disk_3,rectangle
,,,,,,,,,,,,,,,,,,-4,,,,,,,,,,,,,,,,,,,,,,,,,,,,001,2021-12-06_02h17.42.365,jm_natural_scene_simialrity_2-12-2021,2021.2.3,Win32,60.10337781,60a7d8f45174b6633c940a15,61ad71e11ddd29ccf7a27d5b,61ad72ab8e98e9fa0404604c,,,,,,-50,72,1,0,0,response7disk,1.2029,-8,-2,1,0,0,rectangle,-8,-2,1,0,0,1,-1,"[139,89,10,153,30,81,134,95,39,94]",-8,-2,1,0,0,1,53,134,73,1,Pink,Pink.jpg,Turquiose,Turquiose.jpg,,
,,,,,,,,,,,,,,,,,,-4,,,,,,,,,,,,,,,,,,,,,,,,,,,,001,2021-12-06_02h17.42.365,jm_natural_scene_simialrity_2-12-2021,2021.2.3,Win32,60.10337781,60a7d8f45174b6633c940a15,61ad71e11ddd29ccf7a27d5b,61ad72ab8e98e9fa0404604c,,,,,,-38,73,1,0,0,response7disk,1.2646,-4,-3,1,0,0,rectangle,-4,-3,1,0,0,1,3,"[139,89,10,153,30,81,134,95,39,94]",-4,-3,1,0,0,1,54,135,53,1,LightGreen,LightGreen.jpg,Yellow,Yellow.jpg,,
,,,,,,,,,,,,,,,,,,-4,,,,,,,,,,,,,,,,,,,,,,,,,,,,001,2021-12-06_02h17.42.365,jm_natural_scene_simialrity_2-12-2021,2021.2.3,Win32,60.10337781,60a7d8f45174b6633c940a15,61ad71e11ddd29ccf7a27d5b,61ad72ab8e98e9fa0404604c,,,,,,-37,81,1,0,0,response7disk,1.1001,-3,17,1,0,0,rectangle,-3,17,1,0,0,1,-4,"[139,89,10,153,30,81,134,95,39,94]",-3,17,1,0,0,1,55,136,5,1,Red,Red.jpg,LightBlue,LightBlue.jpg,,
,,,,,,,,,,,,,,,,,,1,,,,,,,,,,,,,,,,,,,,,,,,,,,,001,2021-12-06_02h17.42.365,jm_natural_scene_simialrity_2-12-2021,2021.2.3,Win32,60.10337781,60a7d8f45174b6633c940a15,61ad71e11ddd29ccf7a27d5b,61ad72ab8e98e9fa0404604c,,,,,,49,-121,1,0,0,response3disk,4.1151,-8,-6,1,0,0,rectangle,-8,-6,1,0,0,1,3,"[139,89,10,153,30,81,134,95,39,94]",-8,-6,1,0,0,1,56,137,1,1,Red,Red.jpg,Yellow,Yellow.jpg,,
,,,,,,,,,,,,,,,,,,-3,,,,,,,,,,,,,,,,,,,,,,,,,,,,001,2021-12-06_02h17.42.365,jm_natural_scene_simialrity_2-12-2021,2021.2.3,Win32,60.10337781,60a7d8f45174b6633c940a15,61ad71e11ddd29ccf7a27d5b,61ad72ab8e98e9fa0404604c,,,,,,-79,42,1,0,0,response7disk,1.513,-22,-6,1,0,0,rectangle,60,-109,1,0,0,1,1,"[139,89,10,153,30,81,134,95,39,94]",4,-9,1,0,0,1,57,138,70,1,Purple,Purple.jpg,DarkGreen,DarkGreen.jpg,response3disk_3,rectangle
,,,,,,,,,,,,,,,,,,2,,,,,,,,,,,,,,,,,,,,,,,,,,,,001,2021-12-06_02h17.42.365,jm_natural_scene_simialrity_2-12-2021,2021.2.3,Win32,60.10337781,60a7d8f45174b6633c940a15,61ad71e11ddd29ccf7a27d5b,61ad72ab8e98e9fa0404604c,,,,,,93,-43,1,0,0,response3disk,19.9749,9,5,1,0,0,rectangle,9,5,1,0,0,1,2,"[139,89,10,153,30,81,134,95,39,94]",9,5,1,0,0,1,58,139,36,1,LightBlue,LightBlue.jpg,DarkBlue,DarkBlue.jpg,,
,,,,,,,,,,,,,,,,,,3,,,,,,,,,,,,,,,,,,,,,,,,,,,,001,2021-12-06_02h17.42.365,jm_natural_scene_simialrity_2-12-2021,2021.2.3,Win32,60.10337781,60a7d8f45174b6633c940a15,61ad71e11ddd29ccf7a27d5b,61ad72ab8e98e9fa0404604c,,,,,,87,57,1,0,0,response1disk,1.6858,3,9,1,0,0,rectangle,3,9,1,0,0,1,-1,"[139,89,10,153,30,81,134,95,39,94]",3,9,1,0,0,1,59,140,74,1,Purple,Purple.jpg,Turquiose,Turquiose.jpg,,
,,,,,,,,,,,,,,,,,,-3,,,,,,,,,,,,,,,,,,,,,,,,,,,,001,2021-12-06_02h17.42.365,jm_natural_scene_simialrity_2-12-2021,2021.2.3,Win32,60.10337781,60a7d8f45174b6633c940a15,61ad71e11ddd29ccf7a27d5b,61ad72ab8e98e9fa0404604c,,,,,,-92,34,1,0,0,response7disk,1.9167,-6,-2,1,0,0,rectangle,-6,-2,1,0,0,1,1,"[139,89,10,153,30,81,134,95,39,94]",-6,-2,1,0,0,1,60,141,29,1,DarkGreen,DarkGreen.jpg,Purple,Purple.jpg,,
,,,,,,,,,,,,,,,,,,-2,,,,,,,,,,,,,,,,,,,,,,,,,,,,001,2021-12-06_02h17.42.365,jm_natural_scene_simialrity_2-12-2021,2021.2.3,Win32,60.10337781,60a7d8f45174b6633c940a15,61ad71e11ddd29ccf7a27d5b,61ad72ab8e98e9fa0404604c,,,,,,-72,-39,1,0,0,response5disk,2.3172,3,-7,1,0,0,rectangle,3,-7,1,0,0,1,-2,"[139,89,10,153,30,81,134,95,39,94]",3,-7,1,0,0,1,61,142,66,1,Turquiose,Turquiose.jpg,DarkGreen,DarkGreen.jpg,,
,,,,,,,,,,,,,,,,,,-4,,,,,,,,,,,,,,,,,,,,,,,,,,,,001,2021-12-06_02h17.42.365,jm_natural_scene_simialrity_2-12-2021,2021.2.3,Win32,60.10337781,60a7d8f45174b6633c940a15,61ad71e11ddd29ccf7a27d5b,61ad72ab8e98e9fa0404604c,,,,,,-48,89,1,0,0,response7disk,1.1497,-5,1,1,0,0,rectangle,-5,1,1,0,0,1,-2,"[139,89,10,153,30,81,134,95,39,94]",-5,1,1,0,0,1,62,143,47,1,DarkGreen,DarkGreen.jpg,Red,Red.jpg,,
,,,,,,,,,,,,,,,,,,-4,,,,,,,,,,,,,,,,,,,,,,,,,,,,001,2021-12-06_02h17.42.365,jm_natural_scene_simialrity_2-12-2021,2021.2.3,Win32,60.10337781,60a7d8f45174b6633c940a15,61ad71e11ddd29ccf7a27d5b,61ad72ab8e98e9fa0404604c,,,,,,-45,78,1,0,0,response7disk,1.1834,-4,1,1,0,0,rectangle,-4,1,1,0,0,1,-1,"[139,89,10,153,30,81,134,95,39,94]",-4,1,1,0,0,1,63,144,33,1,Turquiose,Turquiose.jpg,Pink,Pink.jpg,,
,,,,,,,,,,,,,,,,,,-4,,,,,,,,,,,,,,,,,,,,,,,,,,,,001,2021-12-06_02h17.42.365,jm_natural_scene_simialrity_2-12-2021,2021.2.3,Win32,60.10337781,60a7d8f45174b6633c940a15,61ad71e11ddd29ccf7a27d5b,61ad72ab8e98e9fa0404604c,,,,,,-38,71,1,0,0,response7disk,1.3644,-11,5,1,0,0,rectangle,-11,5,1,0,0,1,-4,"[139,89,10,153,30,81,134,95,39,94]",-11,5,1,0,0,1,64,145,8,1,Red,Red.jpg,Purple,Purple.jpg,,
,,,,,,,,,,,,,,,,,,1,,,,,,,,,,,,,,,,,,,,,,,,,,,,001,2021-12-06_02h17.42.365,jm_natural_scene_simialrity_2-12-2021,2021.2.3,Win32,60.10337781,60a7d8f45174b6633c940a15,61ad71e11ddd29ccf7a27d5b,61ad72ab8e98e9fa0404604c,,,,,,46,-101,1,0,0,response3disk,3.5824,1,-4,1,0,0,rectangle,1,-4,1,0,0,1,-3,"[139,89,10,153,30,81,134,95,39,94]",1,-4,1,0,0,1,65,146,75,1,DarkBlue,DarkBlue.jpg,LightBlue,LightBlue.jpg,,
,,,,,,,,,,,,,,,,,,4,,,,,,,,,,,,,,,,,,,,,,,,,,,,001,2021-12-06_02h17.42.365,jm_natural_scene_simialrity_2-12-2021,2021.2.3,Win32,60.10337781,60a7d8f45174b6633c940a15,61ad71e11ddd29ccf7a27d5b,61ad72ab8e98e9fa0404604c,,,,,,37,100,1,0,0,response1disk,1.1495,1,7,1,0,0,rectangle,1,7,1,0,0,1,-2,"[139,89,10,153,30,81,134,95,39,94]",1,7,1,0,0,1,66,147,35,1,LightBlue,LightBlue.jpg,LightBlue,LightBlue.jpg,,
,,,,,,,,,,,,,,,,,,-3,,,,,,,,,,,,,,,,,,,,,,,,,,,,001,2021-12-06_02h17.42.365,jm_natural_scene_simialrity_2-12-2021,2021.2.3,Win32,60.10337781,60a7d8f45174b6633c940a15,61ad71e11ddd29ccf7a27d5b,61ad72ab8e98e9fa0404604c,,,,,,-82,49,1,0,0,response7disk,1.8158,-2,7,1,0,0,rectangle,-2,7,1,0,0,1,-4,"[139,89,10,153,30,81,134,95,39,94]",-2,7,1,0,0,1,67,148,4,1,Red,Red.jpg,Turquiose,Turquiose.jpg,,
,,,,,,,,,,,,,,,,,,-4,,,,,,,,,,,,,,,,,,,,,,,,,,,,001,2021-12-06_02h17.42.365,jm_natural_scene_simialrity_2-12-2021,2021.2.3,Win32,60.10337781,60a7d8f45174b6633c940a15,61ad71e11ddd29ccf7a27d5b,61ad72ab8e98e9fa0404604c,,,,,,-51,85,1,0,0,response7disk,2.3999,-5,-10,1,0,0,rectangle,-5,-10,1,0,0,1,2,"[139,89,10,153,30,81,134,95,39,94]",-5,-10,1,0,0,1,68,149,57,1,DarkBlue,DarkBlue.jpg,Yellow,Yellow.jpg,,
,,,,,,,,,,,,,,,,,,1,,,,,,,,,,,,,,,,,,,,,,,,,,,,001,2021-12-06_02h17.42.365,jm_natural_scene_simialrity_2-12-2021,2021.2.3,Win32,60.10337781,60a7d8f45174b6633c940a15,61ad71e11ddd29ccf7a27d5b,61ad72ab8e98e9fa0404604c,,,,,,57,-94,1,0,0,response3disk,4.0487,-4,-8,1,0,0,rectangle,-4,-8,1,0,0,1,1,"[139,89,10,153,30,81,134,95,39,94]",-4,-8,1,0,0,1,69,150,34,1,Turquiose,Turquiose.jpg,Purple,Purple.jpg,,
,,,,,,,,,,,,,,,,,,4,,,,,,,,,,,,,,,,,,,,,,,,,,,,001,2021-12-06_02h17.42.365,jm_natural_scene_simialrity_2-12-2021,2021.2.3,Win32,60.10337781,60a7d8f45174b6633c940a15,61ad71e11ddd29ccf7a27d5b,61ad72ab8e98e9fa0404604c,,,,,,37,73,1,0,0,response1disk,1.5011,4,4,1,0,0,rectangle,4,4,1,0,0,1,-3,"[139,89,10,153,30,81,134,95,39,94]",4,4,1,0,0,1,70,151,39,1,DarkBlue,DarkBlue.jpg,DarkBlue,DarkBlue.jpg,,
,,,,,,,,,,,,,,,,,,4,,,,,,,,,,,,,,,,,,,,,,,,,,,,001,2021-12-06_02h17.42.365,jm_natural_scene_simialrity_2-12-2021,2021.2.3,Win32,60.10337781,60a7d8f45174b6633c940a15,61ad71e11ddd29ccf7a27d5b,61ad72ab8e98e9fa0404604c,,,,,,77,103,1,0,0,response1disk,2.0165,11,12,1,0,0,rectangle,108,52,1,0,0,3,3,"[139,89,10,153,30,81,134,95,39,94]",1,12,1,0,0,1,71,152,60,1,DarkGreen,DarkGreen.jpg,LightGreen,LightGreen.jpg,response1disk_3,rectangle
,,,,,,,,,,,,,,,,,,-1,,,,,,,,,,,,,,,,,,,,,,,,,,,,001,2021-12-06_02h17.42.365,jm_natural_scene_simialrity_2-12-2021,2021.2.3,Win32,60.10337781,60a7d8f45174b6633c940a15,61ad71e11ddd29ccf7a27d5b,61ad72ab8e98e9fa0404604c,,,,,,-60,-102,1,0,0,response5disk,3.6511,-6,1,1,0,0,rectangle,-6,1,1,0,0,3,-2,"[139,89,10,153,30,81,134,95,39,94]",-6,1,1,0,0,1,72,153,21,1,LightGreen,LightGreen.jpg,DarkBlue,DarkBlue.jpg,,
,,,,,,,,,,,,,,,,,,1,,,,,,,,,,,,,,,,,,,,,,,,,,,,001,2021-12-06_02h17.42.365,jm_natural_scene_simialrity_2-12-2021,2021.2.3,Win32,60.10337781,60a7d8f45174b6633c940a15,61ad71e11ddd29ccf7a27d5b,61ad72ab8e98e9fa0404604c,,,,,,44,-88,1,0,0,response3disk,3.4677,-3,-5,1,0,0,rectangle,-3,-5,1,0,0,3,-3,"[139,89,10,153,30,81,134,95,39,94]",-3,-5,1,0,0,1,73,154,58,1,Pink,Pink.jpg,Yellow,Yellow.jpg,,
,,,,,,,,,,,,,,,,,,-4,,,,,,,,,,,,,,,,,,,,,,,,,,,,001,2021-12-06_02h17.42.365,jm_natural_scene_simialrity_2-12-2021,2021.2.3,Win32,60.10337781,60a7d8f45174b6633c940a15,61ad71e11ddd29ccf7a27d5b,61ad72ab8e98e9fa0404604c,,,,,,-53,93,1,0,0,response7disk,1.586,-12,-3,1,0,0,rectangle,-12,-3,1,0,0,3,-3,"[139,89,10,153,30,81,134,95,39,94]",-12,-3,1,0,0,1,74,155,55,1,Turquiose,Turquiose.jpg,Yellow,Yellow.jpg,,
,,,,,,,,,,,,,,,,,,-4,,,,,,,,,,,,,,,,,,,,,,,,,,,,001,2021-12-06_02h17.42.365,jm_natural_scene_simialrity_2-12-2021,2021.2.3,Win32,60.10337781,60a7d8f45174b6633c940a15,61ad71e11ddd29ccf7a27d5b,61ad72ab8e98e9fa0404604c,,,,,,-58,90,1,0,0,response7disk,1.0836,-17,-1,1,0,0,rectangle,-17,-1,1,0,0,3,3,"[139,89,10,153,30,81,134,95,39,94]",-17,-1,1,0,0,1,75,156,22,1,LightGreen,LightGreen.jpg,Pink,Pink.jpg,,
,,,,,,,,,,,,,,,,,,-4,,,,,,,,,,,,,,,,,,,,,,,,,,,,001,2021-12-06_02h17.42.365,jm_natural_scene_simialrity_2-12-2021,2021.2.3,Win32,60.10337781,60a7d8f45174b6633c940a15,61ad71e11ddd29ccf7a27d5b,61ad72ab8e98e9fa0404604c,,,,,,-58,96,1,0,0,response7disk,1.3194,0,-17,1,0,0,rectangle,0,-17,1,0,0,3,-3,"[139,89,10,153,30,81,134,95,39,94]",0,-17,1,0,0,1,76,157,12,1,Yellow,Yellow.jpg,Turquiose,Turquiose.jpg,,
,,,,,,,,,,,,,,,,,,-3,,,,,,,,,,,,,,,,,,,,,,,,,,,,001,2021-12-06_02h17.42.365,jm_natural_scene_simialrity_2-12-2021,2021.2.3,Win32,60.10337781,60a7d8f45174b6633c940a15,61ad71e11ddd29ccf7a27d5b,61ad72ab8e98e9fa0404604c,,,,,,-88,57,1,0,0,response7disk,2.9158,-4,1,1,0,0,rectangle,-4,1,1,0,0,3,1,"[139,89,10,153,30,81,134,95,39,94]",-4,1,1,0,0,1,77,158,26,1,DarkGreen,DarkGreen.jpg,LightBlue,LightBlue.jpg,,
,,,,,,,,,,,,,,,,,,-3,,,,,,,,,,,,,,,,,,,,,,,,,,,,001,2021-12-06_02h17.42.365,jm_natural_scene_simialrity_2-12-2021,2021.2.3,Win32,60.10337781,60a7d8f45174b6633c940a15,61ad71e11ddd29ccf7a27d5b,61ad72ab8e98e9fa0404604c,,,,,,-90,56,1,0,0,response7disk,1.3501,-10,-2,1,0,0,rectangle,-10,-2,1,0,0,3,1,"[139,89,10,153,30,81,134,95,39,94]",-10,-2,1,0,0,1,78,159,14,1,Yellow,Yellow.jpg,DarkBlue,DarkBlue.jpg,,
,,,,,,,,,,,,,,,,,,-3,,,,,,,,,,,,,,,,,,,,,,,,,,,,001,2021-12-06_02h17.42.365,jm_natural_scene_simialrity_2-12-2021,2021.2.3,Win32,60.10337781,60a7d8f45174b6633c940a15,61ad71e11ddd29ccf7a27d5b,61ad72ab8e98e9fa0404604c,,,,,,-73,29,1,0,0,response7disk,2.3496,-8,-9,1,0,0,rectangle,-8,-9,1,0,0,3,-1,"[139,89,10,153,30,81,134,95,39,94]",-8,-9,1,0,0,1,79,160,20,1,LightGreen,LightGreen.jpg,LightBlue,LightBlue.jpg,,
,,,,,,,,,,,,,,,,,,-4,,,,,,,,,,,,,,,,,,,,,,,,,,,,001,2021-12-06_02h17.42.365,jm_natural_scene_simialrity_2-12-2021,2021.2.3,Win32,60.10337781,60a7d8f45174b6633c940a15,61ad71e11ddd29ccf7a27d5b,61ad72ab8e98e9fa0404604c,,,,,,-51,116,1,0,0,response7disk,2.6332,-8,12,1,0,0,rectangle,-8,12,1,0,0,3,1,"[139,89,10,153,30,81,134,95,39,94]",-8,12,1,0,0,1,80,161,48,1,Turquiose,Turquiose.jpg,Red,Red.jpg,,
