key_resp.keys,key_resp.rt,key_resp_16.keys,key_resp_16.rt,key_resp_2.keys,key_resp_2.rt,key_resp_3.keys,key_resp_3.rt,key_resp_19.keys,key_resp_19.rt,key_resp_10.keys,key_resp_10.rt,mouse_prac.x,mouse_prac.y,mouse_prac.leftButton,mouse_prac.midButton,mouse_prac.rightButton,mouse_prac.clicked_name,similarity,mouse_10.x,mouse_10.y,mouse_10.leftButton,mouse_10.midButton,mouse_10.rightButton,mouse_10.clicked_name,mouse_catch_prac.x,mouse_catch_prac.y,mouse_catch_prac.leftButton,mouse_catch_prac.midButton,mouse_catch_prac.rightButton,catchnumberprac,mouse_6.x,mouse_6.y,mouse_6.leftButton,mouse_6.midButton,mouse_6.rightButton,during_prac.thisRepN,during_prac.thisTrialN,during_prac.thisN,during_prac.thisIndex,during_prac.ran,trailimage1,trial1adress,trailimage2,trial2adress,participant,session,date,expName,psychopyVersion,OS,frameRate,PROLIFIC_PID,STUDY_ID,SESSION_ID,mouse_catch_prac.clicked_name,catchprac,mouse_6.clicked_name,key_resp_22.keys,key_resp_22.rt,mouse.x,mouse.y,mouse.leftButton,mouse.midButton,mouse.rightButton,mouse.clicked_name,response_time,mouse_2.x,mouse_2.y,mouse_2.leftButton,mouse_2.midButton,mouse_2.rightButton,mouse_2.clicked_name,mouse_3.x,mouse_3.y,mouse_3.leftButton,mouse_3.midButton,mouse_3.rightButton,catchresponse,catchnumber,catchtrialorder,mouse_11.x,mouse_11.y,mouse_11.leftButton,mouse_11.midButton,mouse_11.rightButton,trials_2.thisRepN,trials_2.thisTrialN,trials_2.thisN,trials_2.thisIndex,trials_2.ran,image1,image1adress,image2,image2adress,mouse_3.clicked_name,mouse_11.clicked_name
space,3.1383,space,10.5953,space,6.8765,space,30.0754,space,36.2393,space,9.3175,-28,99,1,0,0,response7disk_5,-4,2,6,1,0,0,rectangle_8,2,6,1,0,0,-3,2,6,1,0,0,0,0,0,0,1,trail1,trail1.jpg,trail1,trail1.jpg,,001,2021-12-06_04h16.27.829,jm_natural_scene_simialrity_2-12-2021,2021.2.3,Win32,59.42123715,5cdf55535a78bf00195d3715,61ad71e11ddd29ccf7a27d5b,61ad7251d88195a17fc3e892,,,,,,,,,,,,,,,,,,,,,,,,,,,,,,,,,,,,,,,,,,
,,,,,,,,,,,,-43,67,1,0,0,response7disk_5,-4,-6,5,1,0,0,rectangle_8,-6,5,1,0,0,-3,-6,5,1,0,0,0,1,1,4,1,trail2,trail2.jpg,trail3,trail3.jpg,,001,2021-12-06_04h16.27.829,jm_natural_scene_simialrity_2-12-2021,2021.2.3,Win32,59.42123715,5cdf55535a78bf00195d3715,61ad71e11ddd29ccf7a27d5b,61ad7251d88195a17fc3e892,,,,,,,,,,,,,,,,,,,,,,,,,,,,,,,,,,,,,,,,,,
,,,,,,,,,,,,-75,48,1,0,0,response7disk_5,-3,-5,-7,1,0,0,rectangle_8,-5,-7,1,0,0,-3,-5,-7,1,0,0,0,2,2,2,1,trail1,trail1.jpg,trail3,trail3.jpg,,001,2021-12-06_04h16.27.829,jm_natural_scene_simialrity_2-12-2021,2021.2.3,Win32,59.42123715,5cdf55535a78bf00195d3715,61ad71e11ddd29ccf7a27d5b,61ad7251d88195a17fc3e892,,,,,,,,,,,,,,,,,,,,,,,,,,,,,,,,,,,,,,,,,,
,,,,,,,,,,,,-94,39,1,0,0,response7disk_5,-3,-8,13,1,0,0,rectangle_8,-75,34,1,0,0,-3,-13,-4,1,0,0,0,3,3,1,1,trail1,trail1.jpg,trail2,trail2.jpg,,001,2021-12-06_04h16.27.829,jm_natural_scene_simialrity_2-12-2021,2021.2.3,Win32,59.42123715,5cdf55535a78bf00195d3715,61ad71e11ddd29ccf7a27d5b,61ad7251d88195a17fc3e892,response7disk_7,-3,rectangle_4,,,,,,,,,,,,,,,,,,,,,,,,,,,,,,,,,,,,,,,
,,,,,,,,,,,,-88,40,1,0,0,response7disk_5,-3,-13,-5,1,0,0,rectangle_8,-13,-5,1,0,0,-3,-13,-5,1,0,0,0,4,4,3,1,trail2,trail2.jpg,trail2,trail2.jpg,,001,2021-12-06_04h16.27.829,jm_natural_scene_simialrity_2-12-2021,2021.2.3,Win32,59.42123715,5cdf55535a78bf00195d3715,61ad71e11ddd29ccf7a27d5b,61ad7251d88195a17fc3e892,,,,,,,,,,,,,,,,,,,,,,,,,,,,,,,,,,,,,,,,,,
,,,,,,,,,,,,67,115,1,0,0,response1disk_5,4,2,4,1,0,0,rectangle_8,2,4,1,0,0,-3,2,4,1,0,0,0,5,5,5,1,trail3,trail3.jpg,trail3,trail3.jpg,,001,2021-12-06_04h16.27.829,jm_natural_scene_simialrity_2-12-2021,2021.2.3,Win32,59.42123715,5cdf55535a78bf00195d3715,61ad71e11ddd29ccf7a27d5b,61ad7251d88195a17fc3e892,,,,,,,,,,,,,,,,,,,,,,,,,,,,,,,,,,,,,,,,,,
,,,,,,,,,,,,,,,,,,-4,,,,,,,,,,,,,,,,,,,,,,,,,,,,001,2021-12-06_04h16.27.829,jm_natural_scene_simialrity_2-12-2021,2021.2.3,Win32,59.42123715,5cdf55535a78bf00195d3715,61ad71e11ddd29ccf7a27d5b,61ad7251d88195a17fc3e892,,,,space,2.735,-51,108,1,0,0,response7disk,6.9687,2,1,1,0,0,rectangle,2,1,1,0,0,,3,"[67,36,3,45,135,23,109,105,103,80]",2,1,1,0,0,0,0,0,62,1,LightBlue,LightBlue.jpg,LightGreen,LightGreen.jpg,,
,,,,,,,,,,,,,,,,,,-4,,,,,,,,,,,,,,,,,,,,,,,,,,,,001,2021-12-06_04h16.27.829,jm_natural_scene_simialrity_2-12-2021,2021.2.3,Win32,59.42123715,5cdf55535a78bf00195d3715,61ad71e11ddd29ccf7a27d5b,61ad7251d88195a17fc3e892,,,,,,-58,124,1,0,0,response7disk,1.9339,-10,6,1,0,0,rectangle,-10,6,1,0,0,,3,"[67,36,3,45,135,23,109,105,103,80]",-10,6,1,0,0,0,1,1,57,1,DarkBlue,DarkBlue.jpg,Yellow,Yellow.jpg,,
,,,,,,,,,,,,,,,,,,-4,,,,,,,,,,,,,,,,,,,,,,,,,,,,001,2021-12-06_04h16.27.829,jm_natural_scene_simialrity_2-12-2021,2021.2.3,Win32,59.42123715,5cdf55535a78bf00195d3715,61ad71e11ddd29ccf7a27d5b,61ad7251d88195a17fc3e892,,,,,,-54,92,1,0,0,response7disk,4.4902,-7,9,1,0,0,rectangle,-75,34,1,0,0,-3,-3,"[67,36,3,45,135,23,109,105,103,80]",0,2,1,0,0,0,2,2,56,1,LightBlue,LightBlue.jpg,Yellow,Yellow.jpg,response7disk_3,rectangle
,,,,,,,,,,,,,,,,,,-2,,,,,,,,,,,,,,,,,,,,,,,,,,,,001,2021-12-06_04h16.27.829,jm_natural_scene_simialrity_2-12-2021,2021.2.3,Win32,59.42123715,5cdf55535a78bf00195d3715,61ad71e11ddd29ccf7a27d5b,61ad7251d88195a17fc3e892,,,,,,-91,-30,1,0,0,response5disk,2.9665,7,6,1,0,0,rectangle,7,6,1,0,0,-3,3,"[67,36,3,45,135,23,109,105,103,80]",7,6,1,0,0,0,3,3,44,1,Purple,Purple.jpg,Purple,Purple.jpg,,
,,,,,,,,,,,,,,,,,,-4,,,,,,,,,,,,,,,,,,,,,,,,,,,,001,2021-12-06_04h16.27.829,jm_natural_scene_simialrity_2-12-2021,2021.2.3,Win32,59.42123715,5cdf55535a78bf00195d3715,61ad71e11ddd29ccf7a27d5b,61ad7251d88195a17fc3e892,,,,,,-48,100,1,0,0,response7disk,2.4849,-13,-16,1,0,0,rectangle,-13,-16,1,0,0,-3,-3,"[67,36,3,45,135,23,109,105,103,80]",-13,-16,1,0,0,0,4,4,49,1,LightBlue,LightBlue.jpg,Red,Red.jpg,,
,,,,,,,,,,,,,,,,,,-4,,,,,,,,,,,,,,,,,,,,,,,,,,,,001,2021-12-06_04h16.27.829,jm_natural_scene_simialrity_2-12-2021,2021.2.3,Win32,59.42123715,5cdf55535a78bf00195d3715,61ad71e11ddd29ccf7a27d5b,61ad7251d88195a17fc3e892,,,,,,-68,107,1,0,0,response7disk,2.0072,-6,6,1,0,0,rectangle,-6,6,1,0,0,-3,-1,"[67,36,3,45,135,23,109,105,103,80]",-6,6,1,0,0,0,5,5,80,1,Purple,Purple.jpg,Pink,Pink.jpg,,
,,,,,,,,,,,,,,,,,,-1,,,,,,,,,,,,,,,,,,,,,,,,,,,,001,2021-12-06_04h16.27.829,jm_natural_scene_simialrity_2-12-2021,2021.2.3,Win32,59.42123715,5cdf55535a78bf00195d3715,61ad71e11ddd29ccf7a27d5b,61ad7251d88195a17fc3e892,,,,,,-51,-73,1,0,0,response5disk,3.7026,7,6,1,0,0,rectangle,7,6,1,0,0,-3,2,"[67,36,3,45,135,23,109,105,103,80]",7,6,1,0,0,0,6,6,77,1,Purple,Purple.jpg,LightBlue,LightBlue.jpg,,
,,,,,,,,,,,,,,,,,,-4,,,,,,,,,,,,,,,,,,,,,,,,,,,,001,2021-12-06_04h16.27.829,jm_natural_scene_simialrity_2-12-2021,2021.2.3,Win32,59.42123715,5cdf55535a78bf00195d3715,61ad71e11ddd29ccf7a27d5b,61ad7251d88195a17fc3e892,,,,,,-49,99,1,0,0,response7disk,2.1072,6,-9,1,0,0,rectangle,6,-9,1,0,0,-3,-2,"[67,36,3,45,135,23,109,105,103,80]",6,-9,1,0,0,0,7,7,1,1,Red,Red.jpg,Yellow,Yellow.jpg,,
,,,,,,,,,,,,,,,,,,-4,,,,,,,,,,,,,,,,,,,,,,,,,,,,001,2021-12-06_04h16.27.829,jm_natural_scene_simialrity_2-12-2021,2021.2.3,Win32,59.42123715,5cdf55535a78bf00195d3715,61ad71e11ddd29ccf7a27d5b,61ad7251d88195a17fc3e892,,,,,,-37,95,1,0,0,response7disk,2.2652,-5,11,1,0,0,rectangle,-5,11,1,0,0,-3,1,"[67,36,3,45,135,23,109,105,103,80]",-5,11,1,0,0,0,8,8,10,1,Yellow,Yellow.jpg,LightGreen,LightGreen.jpg,,
,,,,,,,,,,,,,,,,,,-3,,,,,,,,,,,,,,,,,,,,,,,,,,,,001,2021-12-06_04h16.27.829,jm_natural_scene_simialrity_2-12-2021,2021.2.3,Win32,59.42123715,5cdf55535a78bf00195d3715,61ad71e11ddd29ccf7a27d5b,61ad7251d88195a17fc3e892,,,,,,-100,47,1,0,0,response7disk,1.9608,1,-7,1,0,0,rectangle,1,-7,1,0,0,-3,2,"[67,36,3,45,135,23,109,105,103,80]",1,-7,1,0,0,0,9,9,53,1,LightGreen,LightGreen.jpg,Yellow,Yellow.jpg,,
,,,,,,,,,,,,,,,,,,1,,,,,,,,,,,,,,,,,,,,,,,,,,,,001,2021-12-06_04h16.27.829,jm_natural_scene_simialrity_2-12-2021,2021.2.3,Win32,59.42123715,5cdf55535a78bf00195d3715,61ad71e11ddd29ccf7a27d5b,61ad7251d88195a17fc3e892,,,,,,53,-79,1,0,0,response3disk,4.2734,8,-10,1,0,0,rectangle,8,-10,1,0,0,-3,3,"[67,36,3,45,135,23,109,105,103,80]",8,-10,1,0,0,0,10,10,18,1,LightGreen,LightGreen.jpg,DarkGreen,DarkGreen.jpg,,
,,,,,,,,,,,,,,,,,,-4,,,,,,,,,,,,,,,,,,,,,,,,,,,,001,2021-12-06_04h16.27.829,jm_natural_scene_simialrity_2-12-2021,2021.2.3,Win32,59.42123715,5cdf55535a78bf00195d3715,61ad71e11ddd29ccf7a27d5b,61ad7251d88195a17fc3e892,,,,,,-35,66,1,0,0,response7disk,2.2179,-8,6,1,0,0,rectangle,-8,6,1,0,0,-3,-2,"[67,36,3,45,135,23,109,105,103,80]",-8,6,1,0,0,0,11,11,67,1,LightBlue,LightBlue.jpg,DarkGreen,DarkGreen.jpg,,
,,,,,,,,,,,,,,,,,,-4,,,,,,,,,,,,,,,,,,,,,,,,,,,,001,2021-12-06_04h16.27.829,jm_natural_scene_simialrity_2-12-2021,2021.2.3,Win32,59.42123715,5cdf55535a78bf00195d3715,61ad71e11ddd29ccf7a27d5b,61ad7251d88195a17fc3e892,,,,,,-50,100,1,0,0,response7disk,1.9828,0,-1,1,0,0,rectangle,0,-1,1,0,0,-3,2,"[67,36,3,45,135,23,109,105,103,80]",0,-1,1,0,0,0,12,12,54,1,DarkGreen,DarkGreen.jpg,Yellow,Yellow.jpg,,
,,,,,,,,,,,,,,,,,,-4,,,,,,,,,,,,,,,,,,,,,,,,,,,,001,2021-12-06_04h16.27.829,jm_natural_scene_simialrity_2-12-2021,2021.2.3,Win32,59.42123715,5cdf55535a78bf00195d3715,61ad71e11ddd29ccf7a27d5b,61ad7251d88195a17fc3e892,,,,,,-48,106,1,0,0,response7disk,1.551,-14,0,1,0,0,rectangle,-14,0,1,0,0,-3,-3,"[67,36,3,45,135,23,109,105,103,80]",-14,0,1,0,0,0,13,13,11,1,Yellow,Yellow.jpg,DarkGreen,DarkGreen.jpg,,
,,,,,,,,,,,,,,,,,,-3,,,,,,,,,,,,,,,,,,,,,,,,,,,,001,2021-12-06_04h16.27.829,jm_natural_scene_simialrity_2-12-2021,2021.2.3,Win32,59.42123715,5cdf55535a78bf00195d3715,61ad71e11ddd29ccf7a27d5b,61ad7251d88195a17fc3e892,,,,,,-103,54,1,0,0,response7disk,2.1177,-6,9,1,0,0,rectangle,-6,9,1,0,0,-3,1,"[67,36,3,45,135,23,109,105,103,80]",-6,9,1,0,0,0,14,14,33,1,Turquiose,Turquiose.jpg,Pink,Pink.jpg,,
,,,,,,,,,,,,,,,,,,-3,,,,,,,,,,,,,,,,,,,,,,,,,,,,001,2021-12-06_04h16.27.829,jm_natural_scene_simialrity_2-12-2021,2021.2.3,Win32,59.42123715,5cdf55535a78bf00195d3715,61ad71e11ddd29ccf7a27d5b,61ad7251d88195a17fc3e892,,,,,,-76,43,1,0,0,response7disk,2.4006,10,11,1,0,0,rectangle,10,11,1,0,0,-3,-4,"[67,36,3,45,135,23,109,105,103,80]",10,11,1,0,0,0,15,15,74,1,Purple,Purple.jpg,Turquiose,Turquiose.jpg,,
,,,,,,,,,,,,,,,,,,2,,,,,,,,,,,,,,,,,,,,,,,,,,,,001,2021-12-06_04h16.27.829,jm_natural_scene_simialrity_2-12-2021,2021.2.3,Win32,59.42123715,5cdf55535a78bf00195d3715,61ad71e11ddd29ccf7a27d5b,61ad7251d88195a17fc3e892,,,,,,97,-46,1,0,0,response3disk,6.5355,-3,-13,1,0,0,rectangle,-3,-13,1,0,0,-3,-1,"[67,36,3,45,135,23,109,105,103,80]",-3,-13,1,0,0,0,16,16,60,1,DarkGreen,DarkGreen.jpg,LightGreen,LightGreen.jpg,,
,,,,,,,,,,,,,,,,,,4,,,,,,,,,,,,,,,,,,,,,,,,,,,,001,2021-12-06_04h16.27.829,jm_natural_scene_simialrity_2-12-2021,2021.2.3,Win32,59.42123715,5cdf55535a78bf00195d3715,61ad71e11ddd29ccf7a27d5b,61ad7251d88195a17fc3e892,,,,,,63,89,1,0,0,response1disk,1.6516,-17,-10,1,0,0,rectangle,-17,-10,1,0,0,-3,3,"[67,36,3,45,135,23,109,105,103,80]",-17,-10,1,0,0,0,17,17,0,1,Red,Red.jpg,Red,Red.jpg,,
,,,,,,,,,,,,,,,,,,-4,,,,,,,,,,,,,,,,,,,,,,,,,,,,001,2021-12-06_04h16.27.829,jm_natural_scene_simialrity_2-12-2021,2021.2.3,Win32,59.42123715,5cdf55535a78bf00195d3715,61ad71e11ddd29ccf7a27d5b,61ad7251d88195a17fc3e892,,,,,,-51,106,1,0,0,response7disk,1.4324,-7,-3,1,0,0,rectangle,-7,-3,1,0,0,-3,-4,"[67,36,3,45,135,23,109,105,103,80]",-7,-3,1,0,0,0,18,18,37,1,LightBlue,LightBlue.jpg,Pink,Pink.jpg,,
,,,,,,,,,,,,,,,,,,-2,,,,,,,,,,,,,,,,,,,,,,,,,,,,001,2021-12-06_04h16.27.829,jm_natural_scene_simialrity_2-12-2021,2021.2.3,Win32,59.42123715,5cdf55535a78bf00195d3715,61ad71e11ddd29ccf7a27d5b,61ad7251d88195a17fc3e892,,,,,,-81,-39,1,0,0,response5disk,3.1497,13,18,1,0,0,rectangle,13,18,1,0,0,-3,3,"[67,36,3,45,135,23,109,105,103,80]",13,18,1,0,0,0,19,19,52,1,Purple,Purple.jpg,Red,Red.jpg,,
,,,,,,,,,,,,,,,,,,-4,,,,,,,,,,,,,,,,,,,,,,,,,,,,001,2021-12-06_04h16.27.829,jm_natural_scene_simialrity_2-12-2021,2021.2.3,Win32,59.42123715,5cdf55535a78bf00195d3715,61ad71e11ddd29ccf7a27d5b,61ad7251d88195a17fc3e892,,,,,,-44,93,1,0,0,response7disk,1.9884,9,6,1,0,0,rectangle,9,6,1,0,0,-3,1,"[67,36,3,45,135,23,109,105,103,80]",9,6,1,0,0,0,20,20,64,1,Pink,Pink.jpg,LightGreen,LightGreen.jpg,,
,,,,,,,,,,,,,,,,,,-4,,,,,,,,,,,,,,,,,,,,,,,,,,,,001,2021-12-06_04h16.27.829,jm_natural_scene_simialrity_2-12-2021,2021.2.3,Win32,59.42123715,5cdf55535a78bf00195d3715,61ad71e11ddd29ccf7a27d5b,61ad7251d88195a17fc3e892,,,,,,-41,63,1,0,0,response7disk,1.2661,-6,-7,1,0,0,rectangle,-6,-7,1,0,0,-3,3,"[67,36,3,45,135,23,109,105,103,80]",-6,-7,1,0,0,0,21,21,20,1,LightGreen,LightGreen.jpg,LightBlue,LightBlue.jpg,,
,,,,,,,,,,,,,,,,,,-4,,,,,,,,,,,,,,,,,,,,,,,,,,,,001,2021-12-06_04h16.27.829,jm_natural_scene_simialrity_2-12-2021,2021.2.3,Win32,59.42123715,5cdf55535a78bf00195d3715,61ad71e11ddd29ccf7a27d5b,61ad7251d88195a17fc3e892,,,,,,-25,85,1,0,0,response7disk,2.3487,-1,11,1,0,0,rectangle,-42,91,1,0,0,-4,-4,"[67,36,3,45,135,23,109,105,103,80]",-8,-6,1,0,0,0,22,22,61,1,Turquiose,Turquiose.jpg,LightGreen,LightGreen.jpg,response7disk_3,rectangle
,,,,,,,,,,,,,,,,,,-4,,,,,,,,,,,,,,,,,,,,,,,,,,,,001,2021-12-06_04h16.27.829,jm_natural_scene_simialrity_2-12-2021,2021.2.3,Win32,59.42123715,5cdf55535a78bf00195d3715,61ad71e11ddd29ccf7a27d5b,61ad7251d88195a17fc3e892,,,,,,-33,98,1,0,0,response7disk,3.9332,-4,11,1,0,0,rectangle,-4,11,1,0,0,-4,-3,"[67,36,3,45,135,23,109,105,103,80]",-4,11,1,0,0,0,23,23,16,1,Yellow,Yellow.jpg,Purple,Purple.jpg,,
,,,,,,,,,,,,,,,,,,-3,,,,,,,,,,,,,,,,,,,,,,,,,,,,001,2021-12-06_04h16.27.829,jm_natural_scene_simialrity_2-12-2021,2021.2.3,Win32,59.42123715,5cdf55535a78bf00195d3715,61ad71e11ddd29ccf7a27d5b,61ad7251d88195a17fc3e892,,,,,,-120,70,1,0,0,response7disk,1.2836,-16,-3,1,0,0,rectangle,-16,-3,1,0,0,-4,2,"[67,36,3,45,135,23,109,105,103,80]",-16,-3,1,0,0,0,24,24,66,1,Turquiose,Turquiose.jpg,DarkGreen,DarkGreen.jpg,,
,,,,,,,,,,,,,,,,,,-4,,,,,,,,,,,,,,,,,,,,,,,,,,,,001,2021-12-06_04h16.27.829,jm_natural_scene_simialrity_2-12-2021,2021.2.3,Win32,59.42123715,5cdf55535a78bf00195d3715,61ad71e11ddd29ccf7a27d5b,61ad7251d88195a17fc3e892,,,,,,-51,66,1,0,0,response7disk,1.6828,1,13,1,0,0,rectangle,1,13,1,0,0,-4,3,"[67,36,3,45,135,23,109,105,103,80]",1,13,1,0,0,0,25,25,2,1,Red,Red.jpg,LightGreen,LightGreen.jpg,,
,,,,,,,,,,,,,,,,,,-3,,,,,,,,,,,,,,,,,,,,,,,,,,,,001,2021-12-06_04h16.27.829,jm_natural_scene_simialrity_2-12-2021,2021.2.3,Win32,59.42123715,5cdf55535a78bf00195d3715,61ad71e11ddd29ccf7a27d5b,61ad7251d88195a17fc3e892,,,,,,-72,40,1,0,0,response7disk,1.438,-12,4,1,0,0,rectangle,-12,4,1,0,0,-4,1,"[67,36,3,45,135,23,109,105,103,80]",-12,4,1,0,0,0,26,26,5,1,Red,Red.jpg,LightBlue,LightBlue.jpg,,
,,,,,,,,,,,,,,,,,,-3,,,,,,,,,,,,,,,,,,,,,,,,,,,,001,2021-12-06_04h16.27.829,jm_natural_scene_simialrity_2-12-2021,2021.2.3,Win32,59.42123715,5cdf55535a78bf00195d3715,61ad71e11ddd29ccf7a27d5b,61ad7251d88195a17fc3e892,,,,,,-88,47,1,0,0,response7disk,1.4849,-17,2,1,0,0,rectangle,-17,2,1,0,0,-4,1,"[67,36,3,45,135,23,109,105,103,80]",-17,2,1,0,0,0,27,27,12,1,Yellow,Yellow.jpg,Turquiose,Turquiose.jpg,,
,,,,,,,,,,,,,,,,,,4,,,,,,,,,,,,,,,,,,,,,,,,,,,,001,2021-12-06_04h16.27.829,jm_natural_scene_simialrity_2-12-2021,2021.2.3,Win32,59.42123715,5cdf55535a78bf00195d3715,61ad71e11ddd29ccf7a27d5b,61ad7251d88195a17fc3e892,,,,,,39,108,1,0,0,response1disk,1.7181,19,11,1,0,0,rectangle,19,11,1,0,0,-4,-2,"[67,36,3,45,135,23,109,105,103,80]",19,11,1,0,0,0,28,28,17,1,LightGreen,LightGreen.jpg,LightGreen,LightGreen.jpg,,
,,,,,,,,,,,,,,,,,,-3,,,,,,,,,,,,,,,,,,,,,,,,,,,,001,2021-12-06_04h16.27.829,jm_natural_scene_simialrity_2-12-2021,2021.2.3,Win32,59.42123715,5cdf55535a78bf00195d3715,61ad71e11ddd29ccf7a27d5b,61ad7251d88195a17fc3e892,,,,,,-90,53,1,0,0,response7disk,1.8675,-23,22,1,0,0,rectangle,-23,22,1,0,0,-3,-1,"[67,36,3,45,135,23,109,105,103,80]",-23,22,1,0,0,0,29,29,48,1,Turquiose,Turquiose.jpg,Red,Red.jpg,,
,,,,,,,,,,,,,,,,,,-4,,,,,,,,,,,,,,,,,,,,,,,,,,,,001,2021-12-06_04h16.27.829,jm_natural_scene_simialrity_2-12-2021,2021.2.3,Win32,59.42123715,5cdf55535a78bf00195d3715,61ad71e11ddd29ccf7a27d5b,61ad7251d88195a17fc3e892,,,,,,-53,93,1,0,0,response7disk,1.2337,-17,14,1,0,0,rectangle,-17,14,1,0,0,-3,3,"[67,36,3,45,135,23,109,105,103,80]",-17,14,1,0,0,0,30,30,78,1,Pink,Pink.jpg,DarkBlue,DarkBlue.jpg,,
,,,,,,,,,,,,,,,,,,-4,,,,,,,,,,,,,,,,,,,,,,,,,,,,001,2021-12-06_04h16.27.829,jm_natural_scene_simialrity_2-12-2021,2021.2.3,Win32,59.42123715,5cdf55535a78bf00195d3715,61ad71e11ddd29ccf7a27d5b,61ad7251d88195a17fc3e892,,,,,,-51,133,1,0,0,response7disk,2.1507,-15,22,1,0,0,rectangle,-15,22,1,0,0,-3,1,"[67,36,3,45,135,23,109,105,103,80]",-15,22,1,0,0,0,31,31,19,1,LightGreen,LightGreen.jpg,Turquiose,Turquiose.jpg,,
,,,,,,,,,,,,,,,,,,-3,,,,,,,,,,,,,,,,,,,,,,,,,,,,001,2021-12-06_04h16.27.829,jm_natural_scene_simialrity_2-12-2021,2021.2.3,Win32,59.42123715,5cdf55535a78bf00195d3715,61ad71e11ddd29ccf7a27d5b,61ad7251d88195a17fc3e892,,,,,,-107,33,1,0,0,response7disk,3.6672,-2,7,1,0,0,rectangle,-2,7,1,0,0,-3,-1,"[67,36,3,45,135,23,109,105,103,80]",-2,7,1,0,0,0,32,32,45,1,Yellow,Yellow.jpg,Red,Red.jpg,,
,,,,,,,,,,,,,,,,,,-2,,,,,,,,,,,,,,,,,,,,,,,,,,,,001,2021-12-06_04h16.27.829,jm_natural_scene_simialrity_2-12-2021,2021.2.3,Win32,59.42123715,5cdf55535a78bf00195d3715,61ad71e11ddd29ccf7a27d5b,61ad7251d88195a17fc3e892,,,,,,-84,-57,1,0,0,response5disk,2.8517,1,11,1,0,0,rectangle,1,11,1,0,0,-3,-4,"[67,36,3,45,135,23,109,105,103,80]",1,11,1,0,0,0,33,33,51,1,Pink,Pink.jpg,Red,Red.jpg,,
,,,,,,,,,,,,,,,,,,-4,,,,,,,,,,,,,,,,,,,,,,,,,,,,001,2021-12-06_04h16.27.829,jm_natural_scene_simialrity_2-12-2021,2021.2.3,Win32,59.42123715,5cdf55535a78bf00195d3715,61ad71e11ddd29ccf7a27d5b,61ad7251d88195a17fc3e892,,,,,,-40,87,1,0,0,response7disk,1.5334,1,10,1,0,0,rectangle,1,10,1,0,0,-3,-2,"[67,36,3,45,135,23,109,105,103,80]",1,10,1,0,0,0,34,34,73,1,Pink,Pink.jpg,Turquiose,Turquiose.jpg,,
,,,,,,,,,,,,,,,,,,-4,,,,,,,,,,,,,,,,,,,,,,,,,,,,001,2021-12-06_04h16.27.829,jm_natural_scene_simialrity_2-12-2021,2021.2.3,Win32,59.42123715,5cdf55535a78bf00195d3715,61ad71e11ddd29ccf7a27d5b,61ad7251d88195a17fc3e892,,,,,,-38,70,1,0,0,response7disk,2.291,-1,8,1,0,0,rectangle,-39,124,1,0,0,-4,-4,"[67,36,3,45,135,23,109,105,103,80]",-3,9,1,0,0,0,35,35,70,1,Purple,Purple.jpg,DarkGreen,DarkGreen.jpg,response7disk_3,rectangle
,,,,,,,,,,,,,,,,,,-3,,,,,,,,,,,,,,,,,,,,,,,,,,,,001,2021-12-06_04h16.27.829,jm_natural_scene_simialrity_2-12-2021,2021.2.3,Win32,59.42123715,5cdf55535a78bf00195d3715,61ad71e11ddd29ccf7a27d5b,61ad7251d88195a17fc3e892,,,,,,-83,30,1,0,0,response7disk,1.1835,-2,14,1,0,0,rectangle,-2,14,1,0,0,-4,-1,"[67,36,3,45,135,23,109,105,103,80]",-2,14,1,0,0,0,36,36,28,1,DarkGreen,DarkGreen.jpg,Pink,Pink.jpg,,
,,,,,,,,,,,,,,,,,,-3,,,,,,,,,,,,,,,,,,,,,,,,,,,,001,2021-12-06_04h16.27.829,jm_natural_scene_simialrity_2-12-2021,2021.2.3,Win32,59.42123715,5cdf55535a78bf00195d3715,61ad71e11ddd29ccf7a27d5b,61ad7251d88195a17fc3e892,,,,,,-70,37,1,0,0,response7disk,1.0076,5,-3,1,0,0,rectangle,5,-3,1,0,0,-4,-4,"[67,36,3,45,135,23,109,105,103,80]",5,-3,1,0,0,0,37,37,32,1,Turquiose,Turquiose.jpg,DarkBlue,DarkBlue.jpg,,
,,,,,,,,,,,,,,,,,,-4,,,,,,,,,,,,,,,,,,,,,,,,,,,,001,2021-12-06_04h16.27.829,jm_natural_scene_simialrity_2-12-2021,2021.2.3,Win32,59.42123715,5cdf55535a78bf00195d3715,61ad71e11ddd29ccf7a27d5b,61ad7251d88195a17fc3e892,,,,,,-49,83,1,0,0,response7disk,1.866,-5,23,1,0,0,rectangle,-5,23,1,0,0,-4,-3,"[67,36,3,45,135,23,109,105,103,80]",-5,23,1,0,0,0,38,38,46,1,LightGreen,LightGreen.jpg,Red,Red.jpg,,
,,,,,,,,,,,,,,,,,,-4,,,,,,,,,,,,,,,,,,,,,,,,,,,,001,2021-12-06_04h16.27.829,jm_natural_scene_simialrity_2-12-2021,2021.2.3,Win32,59.42123715,5cdf55535a78bf00195d3715,61ad71e11ddd29ccf7a27d5b,61ad7251d88195a17fc3e892,,,,,,-46,66,1,0,0,response7disk,1.2932,7,-4,1,0,0,rectangle,7,-4,1,0,0,-4,2,"[67,36,3,45,135,23,109,105,103,80]",7,-4,1,0,0,0,39,39,21,1,LightGreen,LightGreen.jpg,DarkBlue,DarkBlue.jpg,,
,,,,,,,,,,,,,,,,,,-4,,,,,,,,,,,,,,,,,,,,,,,,,,,,001,2021-12-06_04h16.27.829,jm_natural_scene_simialrity_2-12-2021,2021.2.3,Win32,59.42123715,5cdf55535a78bf00195d3715,61ad71e11ddd29ccf7a27d5b,61ad7251d88195a17fc3e892,,,,,,-30,56,1,0,0,response7disk,0.9666,-6,15,1,0,0,rectangle,-6,15,1,0,0,-4,-3,"[67,36,3,45,135,23,109,105,103,80]",-6,15,1,0,0,0,40,40,6,1,Red,Red.jpg,DarkBlue,DarkBlue.jpg,,
,,,,,,,,,,,,,,,,,,-4,,,,,,,,,,,,,,,,,,,,,,,,,,,,001,2021-12-06_04h16.27.829,jm_natural_scene_simialrity_2-12-2021,2021.2.3,Win32,59.42123715,5cdf55535a78bf00195d3715,61ad71e11ddd29ccf7a27d5b,61ad7251d88195a17fc3e892,,,,,,-42,62,1,0,0,response7disk,0.9841,3,1,1,0,0,rectangle,3,1,1,0,0,-4,-2,"[67,36,3,45,135,23,109,105,103,80]",3,1,1,0,0,0,41,41,50,1,DarkBlue,DarkBlue.jpg,Red,Red.jpg,,
,,,,,,,,,,,,,,,,,,-4,,,,,,,,,,,,,,,,,,,,,,,,,,,,001,2021-12-06_04h16.27.829,jm_natural_scene_simialrity_2-12-2021,2021.2.3,Win32,59.42123715,5cdf55535a78bf00195d3715,61ad71e11ddd29ccf7a27d5b,61ad7251d88195a17fc3e892,,,,,,-29,58,1,0,0,response7disk,1.1845,-3,7,1,0,0,rectangle,-3,7,1,0,0,-4,-1,"[67,36,3,45,135,23,109,105,103,80]",-3,7,1,0,0,0,42,42,36,1,LightBlue,LightBlue.jpg,DarkBlue,DarkBlue.jpg,,
,,,,,,,,,,,,,,,,,,-4,,,,,,,,,,,,,,,,,,,,,,,,,,,,001,2021-12-06_04h16.27.829,jm_natural_scene_simialrity_2-12-2021,2021.2.3,Win32,59.42123715,5cdf55535a78bf00195d3715,61ad71e11ddd29ccf7a27d5b,61ad7251d88195a17fc3e892,,,,,,-33,55,1,0,0,response7disk,1.075,-5,3,1,0,0,rectangle,-5,3,1,0,0,-4,1,"[67,36,3,45,135,23,109,105,103,80]",-5,3,1,0,0,0,43,43,55,1,Turquiose,Turquiose.jpg,Yellow,Yellow.jpg,,
,,,,,,,,,,,,,,,,,,-3,,,,,,,,,,,,,,,,,,,,,,,,,,,,001,2021-12-06_04h16.27.829,jm_natural_scene_simialrity_2-12-2021,2021.2.3,Win32,59.42123715,5cdf55535a78bf00195d3715,61ad71e11ddd29ccf7a27d5b,61ad7251d88195a17fc3e892,,,,,,-57,34,1,0,0,response7disk,1.1066,-14,9,1,0,0,rectangle,-95,58,1,0,0,-3,-3,"[67,36,3,45,135,23,109,105,103,80]",-11,8,1,0,0,0,44,44,59,1,Purple,Purple.jpg,Yellow,Yellow.jpg,response7disk_3,rectangle
,,,,,,,,,,,,,,,,,,-3,,,,,,,,,,,,,,,,,,,,,,,,,,,,001,2021-12-06_04h16.27.829,jm_natural_scene_simialrity_2-12-2021,2021.2.3,Win32,59.42123715,5cdf55535a78bf00195d3715,61ad71e11ddd29ccf7a27d5b,61ad7251d88195a17fc3e892,,,,,,-56,37,1,0,0,response7disk,1.2167,21,-24,1,0,0,rectangle,21,-24,1,0,0,1,3,"[67,36,3,45,135,23,109,105,103,80]",21,-24,1,0,0,0,45,45,4,1,Red,Red.jpg,Turquiose,Turquiose.jpg,,
,,,,,,,,,,,,,,,,,,-3,,,,,,,,,,,,,,,,,,,,,,,,,,,,001,2021-12-06_04h16.27.829,jm_natural_scene_simialrity_2-12-2021,2021.2.3,Win32,59.42123715,5cdf55535a78bf00195d3715,61ad71e11ddd29ccf7a27d5b,61ad7251d88195a17fc3e892,,,,,,-76,41,1,0,0,response7disk,0.9226,-9,-6,1,0,0,rectangle,-9,-6,1,0,0,1,3,"[67,36,3,45,135,23,109,105,103,80]",-9,-6,1,0,0,0,46,46,8,1,Red,Red.jpg,Purple,Purple.jpg,,
,,,,,,,,,,,,,,,,,,4,,,,,,,,,,,,,,,,,,,,,,,,,,,,001,2021-12-06_04h16.27.829,jm_natural_scene_simialrity_2-12-2021,2021.2.3,Win32,59.42123715,5cdf55535a78bf00195d3715,61ad71e11ddd29ccf7a27d5b,61ad7251d88195a17fc3e892,,,,,,42,107,1,0,0,response1disk,1.2205,4,9,1,0,0,rectangle,4,9,1,0,0,1,2,"[67,36,3,45,135,23,109,105,103,80]",4,9,1,0,0,0,47,47,9,1,Yellow,Yellow.jpg,Yellow,Yellow.jpg,,
,,,,,,,,,,,,,,,,,,-4,,,,,,,,,,,,,,,,,,,,,,,,,,,,001,2021-12-06_04h16.27.829,jm_natural_scene_simialrity_2-12-2021,2021.2.3,Win32,59.42123715,5cdf55535a78bf00195d3715,61ad71e11ddd29ccf7a27d5b,61ad7251d88195a17fc3e892,,,,,,-40,101,1,0,0,response7disk,1.823,-18,9,1,0,0,rectangle,-18,9,1,0,0,1,2,"[67,36,3,45,135,23,109,105,103,80]",-18,9,1,0,0,0,48,48,65,1,Purple,Purple.jpg,LightGreen,LightGreen.jpg,,
,,,,,,,,,,,,,,,,,,-4,,,,,,,,,,,,,,,,,,,,,,,,,,,,001,2021-12-06_04h16.27.829,jm_natural_scene_simialrity_2-12-2021,2021.2.3,Win32,59.42123715,5cdf55535a78bf00195d3715,61ad71e11ddd29ccf7a27d5b,61ad7251d88195a17fc3e892,,,,,,-53,69,1,0,0,response7disk,1.5132,0,-7,1,0,0,rectangle,0,-7,1,0,0,1,-3,"[67,36,3,45,135,23,109,105,103,80]",0,-7,1,0,0,0,49,49,69,1,Pink,Pink.jpg,DarkGreen,DarkGreen.jpg,,
,,,,,,,,,,,,,,,,,,-4,,,,,,,,,,,,,,,,,,,,,,,,,,,,001,2021-12-06_04h16.27.829,jm_natural_scene_simialrity_2-12-2021,2021.2.3,Win32,59.42123715,5cdf55535a78bf00195d3715,61ad71e11ddd29ccf7a27d5b,61ad7251d88195a17fc3e892,,,,,,-36,63,1,0,0,response7disk,1.0177,-9,12,1,0,0,rectangle,-9,12,1,0,0,1,3,"[67,36,3,45,135,23,109,105,103,80]",-9,12,1,0,0,0,50,50,75,1,DarkBlue,DarkBlue.jpg,LightBlue,LightBlue.jpg,,
,,,,,,,,,,,,,,,,,,-4,,,,,,,,,,,,,,,,,,,,,,,,,,,,001,2021-12-06_04h16.27.829,jm_natural_scene_simialrity_2-12-2021,2021.2.3,Win32,59.42123715,5cdf55535a78bf00195d3715,61ad71e11ddd29ccf7a27d5b,61ad7251d88195a17fc3e892,,,,,,-29,49,1,0,0,response7disk,1.0402,-1,2,1,0,0,rectangle,-1,2,1,0,0,1,-4,"[67,36,3,45,135,23,109,105,103,80]",-1,2,1,0,0,0,51,51,71,1,LightBlue,LightBlue.jpg,Turquiose,Turquiose.jpg,,
,,,,,,,,,,,,,,,,,,-4,,,,,,,,,,,,,,,,,,,,,,,,,,,,001,2021-12-06_04h16.27.829,jm_natural_scene_simialrity_2-12-2021,2021.2.3,Win32,59.42123715,5cdf55535a78bf00195d3715,61ad71e11ddd29ccf7a27d5b,61ad7251d88195a17fc3e892,,,,,,-30,52,1,0,0,response7disk,1.1959,-2,-3,1,0,0,rectangle,-2,-3,1,0,0,1,3,"[67,36,3,45,135,23,109,105,103,80]",-2,-3,1,0,0,0,52,52,15,1,Yellow,Yellow.jpg,Pink,Pink.jpg,,
,,,,,,,,,,,,,,,,,,-4,,,,,,,,,,,,,,,,,,,,,,,,,,,,001,2021-12-06_04h16.27.829,jm_natural_scene_simialrity_2-12-2021,2021.2.3,Win32,59.42123715,5cdf55535a78bf00195d3715,61ad71e11ddd29ccf7a27d5b,61ad7251d88195a17fc3e892,,,,,,-22,32,1,0,0,response7disk,0.9512,-11,13,1,0,0,rectangle,-11,13,1,0,0,1,-3,"[67,36,3,45,135,23,109,105,103,80]",-11,13,1,0,0,0,53,53,72,1,DarkBlue,DarkBlue.jpg,Turquiose,Turquiose.jpg,,
,,,,,,,,,,,,,,,,,,-4,,,,,,,,,,,,,,,,,,,,,,,,,,,,001,2021-12-06_04h16.27.829,jm_natural_scene_simialrity_2-12-2021,2021.2.3,Win32,59.42123715,5cdf55535a78bf00195d3715,61ad71e11ddd29ccf7a27d5b,61ad7251d88195a17fc3e892,,,,,,-34,56,1,0,0,response7disk,1.2897,-16,15,1,0,0,rectangle,-16,15,1,0,0,1,-4,"[67,36,3,45,135,23,109,105,103,80]",-16,15,1,0,0,0,54,54,27,1,DarkGreen,DarkGreen.jpg,DarkBlue,DarkBlue.jpg,,
,,,,,,,,,,,,,,,,,,-4,,,,,,,,,,,,,,,,,,,,,,,,,,,,001,2021-12-06_04h16.27.829,jm_natural_scene_simialrity_2-12-2021,2021.2.3,Win32,59.42123715,5cdf55535a78bf00195d3715,61ad71e11ddd29ccf7a27d5b,61ad7251d88195a17fc3e892,,,,,,-33,46,1,0,0,response7disk,0.5884,-9,-5,1,0,0,rectangle,-9,-5,1,0,0,1,3,"[67,36,3,45,135,23,109,105,103,80]",-9,-5,1,0,0,0,55,55,68,1,DarkBlue,DarkBlue.jpg,DarkGreen,DarkGreen.jpg,,
,,,,,,,,,,,,,,,,,,-4,,,,,,,,,,,,,,,,,,,,,,,,,,,,001,2021-12-06_04h16.27.829,jm_natural_scene_simialrity_2-12-2021,2021.2.3,Win32,59.42123715,5cdf55535a78bf00195d3715,61ad71e11ddd29ccf7a27d5b,61ad7251d88195a17fc3e892,,,,,,-40,64,1,0,0,response7disk,0.7834,-5,10,1,0,0,rectangle,-5,10,1,0,0,1,-3,"[67,36,3,45,135,23,109,105,103,80]",-5,10,1,0,0,0,56,56,34,1,Turquiose,Turquiose.jpg,Purple,Purple.jpg,,
,,,,,,,,,,,,,,,,,,-4,,,,,,,,,,,,,,,,,,,,,,,,,,,,001,2021-12-06_04h16.27.829,jm_natural_scene_simialrity_2-12-2021,2021.2.3,Win32,59.42123715,5cdf55535a78bf00195d3715,61ad71e11ddd29ccf7a27d5b,61ad7251d88195a17fc3e892,,,,,,-33,52,1,0,0,response7disk,0.8171,-5,12,1,0,0,rectangle,-5,12,1,0,0,1,1,"[67,36,3,45,135,23,109,105,103,80]",-5,12,1,0,0,0,57,57,22,1,LightGreen,LightGreen.jpg,Pink,Pink.jpg,,
,,,,,,,,,,,,,,,,,,-4,,,,,,,,,,,,,,,,,,,,,,,,,,,,001,2021-12-06_04h16.27.829,jm_natural_scene_simialrity_2-12-2021,2021.2.3,Win32,59.42123715,5cdf55535a78bf00195d3715,61ad71e11ddd29ccf7a27d5b,61ad7251d88195a17fc3e892,,,,,,-43,88,1,0,0,response7disk,0.9728,-9,17,1,0,0,rectangle,-9,17,1,0,0,1,1,"[67,36,3,45,135,23,109,105,103,80]",-9,17,1,0,0,0,58,58,13,1,Yellow,Yellow.jpg,LightBlue,LightBlue.jpg,,
,,,,,,,,,,,,,,,,,,-4,,,,,,,,,,,,,,,,,,,,,,,,,,,,001,2021-12-06_04h16.27.829,jm_natural_scene_simialrity_2-12-2021,2021.2.3,Win32,59.42123715,5cdf55535a78bf00195d3715,61ad71e11ddd29ccf7a27d5b,61ad7251d88195a17fc3e892,,,,,,-33,54,1,0,0,response7disk,1.0867,-18,19,1,0,0,rectangle,-18,19,1,0,0,-4,2,"[67,36,3,45,135,23,109,105,103,80]",-18,19,1,0,0,0,59,59,25,1,DarkGreen,DarkGreen.jpg,Turquiose,Turquiose.jpg,,
,,,,,,,,,,,,,,,,,,-4,,,,,,,,,,,,,,,,,,,,,,,,,,,,001,2021-12-06_04h16.27.829,jm_natural_scene_simialrity_2-12-2021,2021.2.3,Win32,59.42123715,5cdf55535a78bf00195d3715,61ad71e11ddd29ccf7a27d5b,61ad7251d88195a17fc3e892,,,,,,-29,41,1,0,0,response7disk,1.5671,-1,-4,1,0,0,rectangle,-1,-4,1,0,0,-4,3,"[67,36,3,45,135,23,109,105,103,80]",-1,-4,1,0,0,0,60,60,43,1,Pink,Pink.jpg,Purple,Purple.jpg,,
,,,,,,,,,,,,,,,,,,-4,,,,,,,,,,,,,,,,,,,,,,,,,,,,001,2021-12-06_04h16.27.829,jm_natural_scene_simialrity_2-12-2021,2021.2.3,Win32,59.42123715,5cdf55535a78bf00195d3715,61ad71e11ddd29ccf7a27d5b,61ad7251d88195a17fc3e892,,,,,,-39,59,1,0,0,response7disk,1.057,-3,-9,1,0,0,rectangle,-3,-9,1,0,0,-4,-2,"[67,36,3,45,135,23,109,105,103,80]",-3,-9,1,0,0,0,61,61,26,1,DarkGreen,DarkGreen.jpg,LightBlue,LightBlue.jpg,,
,,,,,,,,,,,,,,,,,,-4,,,,,,,,,,,,,,,,,,,,,,,,,,,,001,2021-12-06_04h16.27.829,jm_natural_scene_simialrity_2-12-2021,2021.2.3,Win32,59.42123715,5cdf55535a78bf00195d3715,61ad71e11ddd29ccf7a27d5b,61ad7251d88195a17fc3e892,,,,,,-29,35,1,0,0,response7disk,0.9012,-13,8,1,0,0,rectangle,-13,8,1,0,0,-4,-3,"[67,36,3,45,135,23,109,105,103,80]",-13,8,1,0,0,0,62,62,23,1,LightGreen,LightGreen.jpg,Purple,Purple.jpg,,
,,,,,,,,,,,,,,,,,,4,,,,,,,,,,,,,,,,,,,,,,,,,,,,001,2021-12-06_04h16.27.829,jm_natural_scene_simialrity_2-12-2021,2021.2.3,Win32,59.42123715,5cdf55535a78bf00195d3715,61ad71e11ddd29ccf7a27d5b,61ad7251d88195a17fc3e892,,,,,,20,75,1,0,0,response1disk,0.9828,4,16,1,0,0,rectangle,4,16,1,0,0,-4,2,"[67,36,3,45,135,23,109,105,103,80]",4,16,1,0,0,0,63,63,35,1,LightBlue,LightBlue.jpg,LightBlue,LightBlue.jpg,,
,,,,,,,,,,,,,,,,,,-4,,,,,,,,,,,,,,,,,,,,,,,,,,,,001,2021-12-06_04h16.27.829,jm_natural_scene_simialrity_2-12-2021,2021.2.3,Win32,59.42123715,5cdf55535a78bf00195d3715,61ad71e11ddd29ccf7a27d5b,61ad7251d88195a17fc3e892,,,,,,-34,55,1,0,0,response7disk,0.9837,-9,17,1,0,0,rectangle,-9,17,1,0,0,-4,1,"[67,36,3,45,135,23,109,105,103,80]",-9,17,1,0,0,0,64,64,7,1,Red,Red.jpg,Pink,Pink.jpg,,
,,,,,,,,,,,,,,,,,,-4,,,,,,,,,,,,,,,,,,,,,,,,,,,,001,2021-12-06_04h16.27.829,jm_natural_scene_simialrity_2-12-2021,2021.2.3,Win32,59.42123715,5cdf55535a78bf00195d3715,61ad71e11ddd29ccf7a27d5b,61ad7251d88195a17fc3e892,,,,,,-38,59,1,0,0,response7disk,0.9466,-11,18,1,0,0,rectangle,-11,18,1,0,0,-4,3,"[67,36,3,45,135,23,109,105,103,80]",-11,18,1,0,0,0,65,65,76,1,Pink,Pink.jpg,LightBlue,LightBlue.jpg,,
,,,,,,,,,,,,,,,,,,-4,,,,,,,,,,,,,,,,,,,,,,,,,,,,001,2021-12-06_04h16.27.829,jm_natural_scene_simialrity_2-12-2021,2021.2.3,Win32,59.42123715,5cdf55535a78bf00195d3715,61ad71e11ddd29ccf7a27d5b,61ad7251d88195a17fc3e892,,,,,,-28,45,1,0,0,response7disk,0.8559,6,-8,1,0,0,rectangle,-69,36,1,0,0,-3,-3,"[67,36,3,45,135,23,109,105,103,80]",-12,8,1,0,0,0,66,66,31,1,Turquiose,Turquiose.jpg,LightBlue,LightBlue.jpg,response7disk_3,rectangle
,,,,,,,,,,,,,,,,,,-4,,,,,,,,,,,,,,,,,,,,,,,,,,,,001,2021-12-06_04h16.27.829,jm_natural_scene_simialrity_2-12-2021,2021.2.3,Win32,59.42123715,5cdf55535a78bf00195d3715,61ad71e11ddd29ccf7a27d5b,61ad7251d88195a17fc3e892,,,,,,-27,45,1,0,0,response7disk,0.8563,-8,11,1,0,0,rectangle,-8,11,1,0,0,-3,2,"[67,36,3,45,135,23,109,105,103,80]",-8,11,1,0,0,0,67,67,63,1,DarkBlue,DarkBlue.jpg,LightGreen,LightGreen.jpg,,
,,,,,,,,,,,,,,,,,,-4,,,,,,,,,,,,,,,,,,,,,,,,,,,,001,2021-12-06_04h16.27.829,jm_natural_scene_simialrity_2-12-2021,2021.2.3,Win32,59.42123715,5cdf55535a78bf00195d3715,61ad71e11ddd29ccf7a27d5b,61ad7251d88195a17fc3e892,,,,,,-26,46,1,0,0,response7disk,1.0852,-8,15,1,0,0,rectangle,-8,15,1,0,0,-3,1,"[67,36,3,45,135,23,109,105,103,80]",-8,15,1,0,0,0,68,68,38,1,LightBlue,LightBlue.jpg,Purple,Purple.jpg,,
,,,,,,,,,,,,,,,,,,-4,,,,,,,,,,,,,,,,,,,,,,,,,,,,001,2021-12-06_04h16.27.829,jm_natural_scene_simialrity_2-12-2021,2021.2.3,Win32,59.42123715,5cdf55535a78bf00195d3715,61ad71e11ddd29ccf7a27d5b,61ad7251d88195a17fc3e892,,,,,,-40,72,1,0,0,response7disk,0.7496,-1,-3,1,0,0,rectangle,-1,-3,1,0,0,-3,-2,"[67,36,3,45,135,23,109,105,103,80]",-1,-3,1,0,0,0,69,69,79,1,Purple,Purple.jpg,DarkBlue,DarkBlue.jpg,,
,,,,,,,,,,,,,,,,,,4,,,,,,,,,,,,,,,,,,,,,,,,,,,,001,2021-12-06_04h16.27.829,jm_natural_scene_simialrity_2-12-2021,2021.2.3,Win32,59.42123715,5cdf55535a78bf00195d3715,61ad71e11ddd29ccf7a27d5b,61ad7251d88195a17fc3e892,,,,,,66,94,1,0,0,response1disk,1.0167,1,-6,1,0,0,rectangle,1,-6,1,0,0,-3,-3,"[67,36,3,45,135,23,109,105,103,80]",1,-6,1,0,0,0,70,70,42,1,Pink,Pink.jpg,Pink,Pink.jpg,,
,,,,,,,,,,,,,,,,,,-4,,,,,,,,,,,,,,,,,,,,,,,,,,,,001,2021-12-06_04h16.27.829,jm_natural_scene_simialrity_2-12-2021,2021.2.3,Win32,59.42123715,5cdf55535a78bf00195d3715,61ad71e11ddd29ccf7a27d5b,61ad7251d88195a17fc3e892,,,,,,-36,58,1,0,0,response7disk,0.8504,-14,13,1,0,0,rectangle,-14,13,1,0,0,-3,1,"[67,36,3,45,135,23,109,105,103,80]",-14,13,1,0,0,0,71,71,29,1,DarkGreen,DarkGreen.jpg,Purple,Purple.jpg,,
,,,,,,,,,,,,,,,,,,-4,,,,,,,,,,,,,,,,,,,,,,,,,,,,001,2021-12-06_04h16.27.829,jm_natural_scene_simialrity_2-12-2021,2021.2.3,Win32,59.42123715,5cdf55535a78bf00195d3715,61ad71e11ddd29ccf7a27d5b,61ad7251d88195a17fc3e892,,,,,,-42,73,1,0,0,response7disk,0.6673,-9,13,1,0,0,rectangle,-9,13,1,0,0,-3,2,"[67,36,3,45,135,23,109,105,103,80]",-9,13,1,0,0,0,72,72,47,1,DarkGreen,DarkGreen.jpg,Red,Red.jpg,,
,,,,,,,,,,,,,,,,,,-4,,,,,,,,,,,,,,,,,,,,,,,,,,,,001,2021-12-06_04h16.27.829,jm_natural_scene_simialrity_2-12-2021,2021.2.3,Win32,59.42123715,5cdf55535a78bf00195d3715,61ad71e11ddd29ccf7a27d5b,61ad7251d88195a17fc3e892,,,,,,-30,66,1,0,0,response7disk,1.1997,-9,21,1,0,0,rectangle,-9,21,1,0,0,-3,2,"[67,36,3,45,135,23,109,105,103,80]",-9,21,1,0,0,0,73,73,58,1,Pink,Pink.jpg,Yellow,Yellow.jpg,,
,,,,,,,,,,,,,,,,,,-4,,,,,,,,,,,,,,,,,,,,,,,,,,,,001,2021-12-06_04h16.27.829,jm_natural_scene_simialrity_2-12-2021,2021.2.3,Win32,59.42123715,5cdf55535a78bf00195d3715,61ad71e11ddd29ccf7a27d5b,61ad7251d88195a17fc3e892,,,,,,-31,64,1,0,0,response7disk,0.9004,-1,-9,1,0,0,rectangle,-1,-9,1,0,0,-3,-3,"[67,36,3,45,135,23,109,105,103,80]",-1,-9,1,0,0,0,74,74,41,1,DarkBlue,DarkBlue.jpg,Purple,Purple.jpg,,
,,,,,,,,,,,,,,,,,,4,,,,,,,,,,,,,,,,,,,,,,,,,,,,001,2021-12-06_04h16.27.829,jm_natural_scene_simialrity_2-12-2021,2021.2.3,Win32,59.42123715,5cdf55535a78bf00195d3715,61ad71e11ddd29ccf7a27d5b,61ad7251d88195a17fc3e892,,,,,,38,102,1,0,0,response1disk,1.1675,-2,14,1,0,0,rectangle,-2,14,1,0,0,-3,3,"[67,36,3,45,135,23,109,105,103,80]",-2,14,1,0,0,0,75,75,30,1,Turquiose,Turquiose.jpg,Turquiose,Turquiose.jpg,,
,,,,,,,,,,,,,,,,,,-4,,,,,,,,,,,,,,,,,,,,,,,,,,,,001,2021-12-06_04h16.27.829,jm_natural_scene_simialrity_2-12-2021,2021.2.3,Win32,59.42123715,5cdf55535a78bf00195d3715,61ad71e11ddd29ccf7a27d5b,61ad7251d88195a17fc3e892,,,,,,-32,74,1,0,0,response7disk,0.7176,0,-8,1,0,0,rectangle,0,-8,1,0,0,-3,-1,"[67,36,3,45,135,23,109,105,103,80]",0,-8,1,0,0,0,76,76,14,1,Yellow,Yellow.jpg,DarkBlue,DarkBlue.jpg,,
,,,,,,,,,,,,,,,,,,4,,,,,,,,,,,,,,,,,,,,,,,,,,,,001,2021-12-06_04h16.27.829,jm_natural_scene_simialrity_2-12-2021,2021.2.3,Win32,59.42123715,5cdf55535a78bf00195d3715,61ad71e11ddd29ccf7a27d5b,61ad7251d88195a17fc3e892,,,,,,63,92,1,0,0,response1disk,0.9333,5,18,1,0,0,rectangle,5,18,1,0,0,-3,1,"[67,36,3,45,135,23,109,105,103,80]",5,18,1,0,0,0,77,77,24,1,DarkGreen,DarkGreen.jpg,DarkGreen,DarkGreen.jpg,,
,,,,,,,,,,,,,,,,,,-4,,,,,,,,,,,,,,,,,,,,,,,,,,,,001,2021-12-06_04h16.27.829,jm_natural_scene_simialrity_2-12-2021,2021.2.3,Win32,59.42123715,5cdf55535a78bf00195d3715,61ad71e11ddd29ccf7a27d5b,61ad7251d88195a17fc3e892,,,,,,-35,68,1,0,0,response7disk,0.7674,-11,16,1,0,0,rectangle,-11,16,1,0,0,-3,-3,"[67,36,3,45,135,23,109,105,103,80]",-11,16,1,0,0,0,78,78,40,1,DarkBlue,DarkBlue.jpg,Pink,Pink.jpg,,
,,,,,,,,,,,,,,,,,,-4,,,,,,,,,,,,,,,,,,,,,,,,,,,,001,2021-12-06_04h16.27.829,jm_natural_scene_simialrity_2-12-2021,2021.2.3,Win32,59.42123715,5cdf55535a78bf00195d3715,61ad71e11ddd29ccf7a27d5b,61ad7251d88195a17fc3e892,,,,,,-37,65,1,0,0,response7disk,0.8999,-13,14,1,0,0,rectangle,-89,-58,1,0,0,-3,-2,"[67,36,3,45,135,23,109,105,103,80]",-13,0,1,0,0,0,79,79,3,1,Red,Red.jpg,DarkGreen,DarkGreen.jpg,response5disk_3,rectangle
,,,,,,,,,,,,,,,,,,4,,,,,,,,,,,,,,,,,,,,,,,,,,,,001,2021-12-06_04h16.27.829,jm_natural_scene_simialrity_2-12-2021,2021.2.3,Win32,59.42123715,5cdf55535a78bf00195d3715,61ad71e11ddd29ccf7a27d5b,61ad7251d88195a17fc3e892,,,,,,69,100,1,0,0,response1disk,1.1996,-6,16,1,0,0,rectangle,-6,16,1,0,0,-3,-3,"[67,36,3,45,135,23,109,105,103,80]",-6,16,1,0,0,0,80,80,39,1,DarkBlue,DarkBlue.jpg,DarkBlue,DarkBlue.jpg,,
,,,,,,,,,,,,,,,,,,-4,,,,,,,,,,,,,,,,,,,,,,,,,,,,001,2021-12-06_04h16.27.829,jm_natural_scene_simialrity_2-12-2021,2021.2.3,Win32,59.42123715,5cdf55535a78bf00195d3715,61ad71e11ddd29ccf7a27d5b,61ad7251d88195a17fc3e892,,,,,,-44,89,1,0,0,response7disk,0.8826,-16,8,1,0,0,rectangle,-16,8,1,0,0,-3,1,"[67,36,3,45,135,23,109,105,103,80]",-16,8,1,0,0,1,0,81,56,1,LightBlue,LightBlue.jpg,Yellow,Yellow.jpg,,
,,,,,,,,,,,,,,,,,,-4,,,,,,,,,,,,,,,,,,,,,,,,,,,,001,2021-12-06_04h16.27.829,jm_natural_scene_simialrity_2-12-2021,2021.2.3,Win32,59.42123715,5cdf55535a78bf00195d3715,61ad71e11ddd29ccf7a27d5b,61ad7251d88195a17fc3e892,,,,,,-38,53,1,0,0,response7disk,0.7497,-3,6,1,0,0,rectangle,-3,6,1,0,0,-3,-2,"[67,36,3,45,135,23,109,105,103,80]",-3,6,1,0,0,1,1,82,53,1,LightGreen,LightGreen.jpg,Yellow,Yellow.jpg,,
,,,,,,,,,,,,,,,,,,-4,,,,,,,,,,,,,,,,,,,,,,,,,,,,001,2021-12-06_04h16.27.829,jm_natural_scene_simialrity_2-12-2021,2021.2.3,Win32,59.42123715,5cdf55535a78bf00195d3715,61ad71e11ddd29ccf7a27d5b,61ad7251d88195a17fc3e892,,,,,,-37,100,1,0,0,response7disk,0.7995,-5,4,1,0,0,rectangle,-5,4,1,0,0,-3,-3,"[67,36,3,45,135,23,109,105,103,80]",-5,4,1,0,0,1,2,83,41,1,DarkBlue,DarkBlue.jpg,Purple,Purple.jpg,,
,,,,,,,,,,,,,,,,,,-4,,,,,,,,,,,,,,,,,,,,,,,,,,,,001,2021-12-06_04h16.27.829,jm_natural_scene_simialrity_2-12-2021,2021.2.3,Win32,59.42123715,5cdf55535a78bf00195d3715,61ad71e11ddd29ccf7a27d5b,61ad7251d88195a17fc3e892,,,,,,-35,68,1,0,0,response7disk,0.8332,-7,5,1,0,0,rectangle,-7,5,1,0,0,-3,3,"[67,36,3,45,135,23,109,105,103,80]",-7,5,1,0,0,1,3,84,31,1,Turquiose,Turquiose.jpg,LightBlue,LightBlue.jpg,,
,,,,,,,,,,,,,,,,,,-4,,,,,,,,,,,,,,,,,,,,,,,,,,,,001,2021-12-06_04h16.27.829,jm_natural_scene_simialrity_2-12-2021,2021.2.3,Win32,59.42123715,5cdf55535a78bf00195d3715,61ad71e11ddd29ccf7a27d5b,61ad7251d88195a17fc3e892,,,,,,-36,74,1,0,0,response7disk,0.9519,2,-3,1,0,0,rectangle,2,-3,1,0,0,-3,-4,"[67,36,3,45,135,23,109,105,103,80]",2,-3,1,0,0,1,4,85,36,1,LightBlue,LightBlue.jpg,DarkBlue,DarkBlue.jpg,,
,,,,,,,,,,,,,,,,,,-4,,,,,,,,,,,,,,,,,,,,,,,,,,,,001,2021-12-06_04h16.27.829,jm_natural_scene_simialrity_2-12-2021,2021.2.3,Win32,59.42123715,5cdf55535a78bf00195d3715,61ad71e11ddd29ccf7a27d5b,61ad7251d88195a17fc3e892,,,,,,-33,79,1,0,0,response7disk,0.7344,0,-4,1,0,0,rectangle,0,-4,1,0,0,-3,-3,"[67,36,3,45,135,23,109,105,103,80]",0,-4,1,0,0,1,5,86,15,1,Yellow,Yellow.jpg,Pink,Pink.jpg,,
,,,,,,,,,,,,,,,,,,-4,,,,,,,,,,,,,,,,,,,,,,,,,,,,001,2021-12-06_04h16.27.829,jm_natural_scene_simialrity_2-12-2021,2021.2.3,Win32,59.42123715,5cdf55535a78bf00195d3715,61ad71e11ddd29ccf7a27d5b,61ad7251d88195a17fc3e892,,,,,,-46,81,1,0,0,response7disk,0.9512,-11,9,1,0,0,rectangle,-11,9,1,0,0,-3,-2,"[67,36,3,45,135,23,109,105,103,80]",-11,9,1,0,0,1,6,87,6,1,Red,Red.jpg,DarkBlue,DarkBlue.jpg,,
,,,,,,,,,,,,,,,,,,-3,,,,,,,,,,,,,,,,,,,,,,,,,,,,001,2021-12-06_04h16.27.829,jm_natural_scene_simialrity_2-12-2021,2021.2.3,Win32,59.42123715,5cdf55535a78bf00195d3715,61ad71e11ddd29ccf7a27d5b,61ad7251d88195a17fc3e892,,,,,,-62,30,1,0,0,response7disk,1.0838,-7,-13,1,0,0,rectangle,-7,-13,1,0,0,-3,1,"[67,36,3,45,135,23,109,105,103,80]",-7,-13,1,0,0,1,7,88,58,1,Pink,Pink.jpg,Yellow,Yellow.jpg,,
,,,,,,,,,,,,,,,,,,-4,,,,,,,,,,,,,,,,,,,,,,,,,,,,001,2021-12-06_04h16.27.829,jm_natural_scene_simialrity_2-12-2021,2021.2.3,Win32,59.42123715,5cdf55535a78bf00195d3715,61ad71e11ddd29ccf7a27d5b,61ad7251d88195a17fc3e892,,,,,,-49,61,1,0,0,response7disk,1.8003,-12,0,1,0,0,rectangle,-12,0,1,0,0,-3,-3,"[67,36,3,45,135,23,109,105,103,80]",-12,0,1,0,0,1,8,89,43,1,Pink,Pink.jpg,Purple,Purple.jpg,,
,,,,,,,,,,,,,,,,,,-4,,,,,,,,,,,,,,,,,,,,,,,,,,,,001,2021-12-06_04h16.27.829,jm_natural_scene_simialrity_2-12-2021,2021.2.3,Win32,59.42123715,5cdf55535a78bf00195d3715,61ad71e11ddd29ccf7a27d5b,61ad7251d88195a17fc3e892,,,,,,-45,89,1,0,0,response7disk,1.0584,11,-2,1,0,0,rectangle,11,-2,1,0,0,-3,3,"[67,36,3,45,135,23,109,105,103,80]",11,-2,1,0,0,1,9,90,75,1,DarkBlue,DarkBlue.jpg,LightBlue,LightBlue.jpg,,
,,,,,,,,,,,,,,,,,,-3,,,,,,,,,,,,,,,,,,,,,,,,,,,,001,2021-12-06_04h16.27.829,jm_natural_scene_simialrity_2-12-2021,2021.2.3,Win32,59.42123715,5cdf55535a78bf00195d3715,61ad71e11ddd29ccf7a27d5b,61ad7251d88195a17fc3e892,,,,,,-76,49,1,0,0,response7disk,1.0755,-12,13,1,0,0,rectangle,-12,13,1,0,0,-3,1,"[67,36,3,45,135,23,109,105,103,80]",-12,13,1,0,0,1,10,91,19,1,LightGreen,LightGreen.jpg,Turquiose,Turquiose.jpg,,
,,,,,,,,,,,,,,,,,,-4,,,,,,,,,,,,,,,,,,,,,,,,,,,,001,2021-12-06_04h16.27.829,jm_natural_scene_simialrity_2-12-2021,2021.2.3,Win32,59.42123715,5cdf55535a78bf00195d3715,61ad71e11ddd29ccf7a27d5b,61ad7251d88195a17fc3e892,,,,,,-46,75,1,0,0,response7disk,0.7831,3,1,1,0,0,rectangle,3,1,1,0,0,-3,-2,"[67,36,3,45,135,23,109,105,103,80]",3,1,1,0,0,1,11,92,23,1,LightGreen,LightGreen.jpg,Purple,Purple.jpg,,
,,,,,,,,,,,,,,,,,,-4,,,,,,,,,,,,,,,,,,,,,,,,,,,,001,2021-12-06_04h16.27.829,jm_natural_scene_simialrity_2-12-2021,2021.2.3,Win32,59.42123715,5cdf55535a78bf00195d3715,61ad71e11ddd29ccf7a27d5b,61ad7251d88195a17fc3e892,,,,,,-29,64,1,0,0,response7disk,0.8354,-2,12,1,0,0,rectangle,-2,12,1,0,0,-3,2,"[67,36,3,45,135,23,109,105,103,80]",-2,12,1,0,0,1,12,93,63,1,DarkBlue,DarkBlue.jpg,LightGreen,LightGreen.jpg,,
,,,,,,,,,,,,,,,,,,-4,,,,,,,,,,,,,,,,,,,,,,,,,,,,001,2021-12-06_04h16.27.829,jm_natural_scene_simialrity_2-12-2021,2021.2.3,Win32,59.42123715,5cdf55535a78bf00195d3715,61ad71e11ddd29ccf7a27d5b,61ad7251d88195a17fc3e892,,,,,,-47,78,1,0,0,response7disk,0.7672,-5,8,1,0,0,rectangle,-5,8,1,0,0,-3,-4,"[67,36,3,45,135,23,109,105,103,80]",-5,8,1,0,0,1,13,94,52,1,Purple,Purple.jpg,Red,Red.jpg,,
,,,,,,,,,,,,,,,,,,-4,,,,,,,,,,,,,,,,,,,,,,,,,,,,001,2021-12-06_04h16.27.829,jm_natural_scene_simialrity_2-12-2021,2021.2.3,Win32,59.42123715,5cdf55535a78bf00195d3715,61ad71e11ddd29ccf7a27d5b,61ad7251d88195a17fc3e892,,,,,,-27,47,1,0,0,response7disk,0.8663,9,-11,1,0,0,rectangle,9,-11,1,0,0,-3,1,"[67,36,3,45,135,23,109,105,103,80]",9,-11,1,0,0,1,14,95,65,1,Purple,Purple.jpg,LightGreen,LightGreen.jpg,,
,,,,,,,,,,,,,,,,,,-4,,,,,,,,,,,,,,,,,,,,,,,,,,,,001,2021-12-06_04h16.27.829,jm_natural_scene_simialrity_2-12-2021,2021.2.3,Win32,59.42123715,5cdf55535a78bf00195d3715,61ad71e11ddd29ccf7a27d5b,61ad7251d88195a17fc3e892,,,,,,-31,53,1,0,0,response7disk,1.1507,-10,16,1,0,0,rectangle,-10,16,1,0,0,-3,-4,"[67,36,3,45,135,23,109,105,103,80]",-10,16,1,0,0,1,15,96,5,1,Red,Red.jpg,LightBlue,LightBlue.jpg,,
,,,,,,,,,,,,,,,,,,-4,,,,,,,,,,,,,,,,,,,,,,,,,,,,001,2021-12-06_04h16.27.829,jm_natural_scene_simialrity_2-12-2021,2021.2.3,Win32,59.42123715,5cdf55535a78bf00195d3715,61ad71e11ddd29ccf7a27d5b,61ad7251d88195a17fc3e892,,,,,,-45,82,1,0,0,response7disk,0.6392,0,-1,1,0,0,rectangle,0,-1,1,0,0,-3,-2,"[67,36,3,45,135,23,109,105,103,80]",0,-1,1,0,0,1,16,97,45,1,Yellow,Yellow.jpg,Red,Red.jpg,,
,,,,,,,,,,,,,,,,,,4,,,,,,,,,,,,,,,,,,,,,,,,,,,,001,2021-12-06_04h16.27.829,jm_natural_scene_simialrity_2-12-2021,2021.2.3,Win32,59.42123715,5cdf55535a78bf00195d3715,61ad71e11ddd29ccf7a27d5b,61ad7251d88195a17fc3e892,,,,,,37,85,1,0,0,response1disk,0.9682,5,5,1,0,0,rectangle,5,5,1,0,0,-3,3,"[67,36,3,45,135,23,109,105,103,80]",5,5,1,0,0,1,17,98,9,1,Yellow,Yellow.jpg,Yellow,Yellow.jpg,,
,,,,,,,,,,,,,,,,,,-4,,,,,,,,,,,,,,,,,,,,,,,,,,,,001,2021-12-06_04h16.27.829,jm_natural_scene_simialrity_2-12-2021,2021.2.3,Win32,59.42123715,5cdf55535a78bf00195d3715,61ad71e11ddd29ccf7a27d5b,61ad7251d88195a17fc3e892,,,,,,-26,50,1,0,0,response7disk,0.8169,-12,16,1,0,0,rectangle,-12,16,1,0,0,-3,1,"[67,36,3,45,135,23,109,105,103,80]",-12,16,1,0,0,1,18,99,67,1,LightBlue,LightBlue.jpg,DarkGreen,DarkGreen.jpg,,
,,,,,,,,,,,,,,,,,,-4,,,,,,,,,,,,,,,,,,,,,,,,,,,,001,2021-12-06_04h16.27.829,jm_natural_scene_simialrity_2-12-2021,2021.2.3,Win32,59.42123715,5cdf55535a78bf00195d3715,61ad71e11ddd29ccf7a27d5b,61ad7251d88195a17fc3e892,,,,,,-32,55,1,0,0,response7disk,1.3835,-6,19,1,0,0,rectangle,-6,19,1,0,0,-3,-1,"[67,36,3,45,135,23,109,105,103,80]",-6,19,1,0,0,1,19,100,28,1,DarkGreen,DarkGreen.jpg,Pink,Pink.jpg,,
,,,,,,,,,,,,,,,,,,-4,,,,,,,,,,,,,,,,,,,,,,,,,,,,001,2021-12-06_04h16.27.829,jm_natural_scene_simialrity_2-12-2021,2021.2.3,Win32,59.42123715,5cdf55535a78bf00195d3715,61ad71e11ddd29ccf7a27d5b,61ad7251d88195a17fc3e892,,,,,,-32,68,1,0,0,response7disk,0.6563,-7,13,1,0,0,rectangle,-7,13,1,0,0,-3,-1,"[67,36,3,45,135,23,109,105,103,80]",-7,13,1,0,0,1,20,101,71,1,LightBlue,LightBlue.jpg,Turquiose,Turquiose.jpg,,
,,,,,,,,,,,,,,,,,,-4,,,,,,,,,,,,,,,,,,,,,,,,,,,,001,2021-12-06_04h16.27.829,jm_natural_scene_simialrity_2-12-2021,2021.2.3,Win32,59.42123715,5cdf55535a78bf00195d3715,61ad71e11ddd29ccf7a27d5b,61ad7251d88195a17fc3e892,,,,,,-37,79,1,0,0,response7disk,0.5682,6,-7,1,0,0,rectangle,107,-55,1,0,0,2,2,"[67,36,3,45,135,23,109,105,103,80]",-3,6,1,0,0,1,21,102,74,1,Purple,Purple.jpg,Turquiose,Turquiose.jpg,response3disk_3,rectangle
,,,,,,,,,,,,,,,,,,-4,,,,,,,,,,,,,,,,,,,,,,,,,,,,001,2021-12-06_04h16.27.829,jm_natural_scene_simialrity_2-12-2021,2021.2.3,Win32,59.42123715,5cdf55535a78bf00195d3715,61ad71e11ddd29ccf7a27d5b,61ad7251d88195a17fc3e892,,,,,,-45,74,1,0,0,response7disk,0.7896,-5,8,1,0,0,rectangle,-5,8,1,0,0,2,2,"[67,36,3,45,135,23,109,105,103,80]",-5,8,1,0,0,1,22,103,64,1,Pink,Pink.jpg,LightGreen,LightGreen.jpg,,
,,,,,,,,,,,,,,,,,,-4,,,,,,,,,,,,,,,,,,,,,,,,,,,,001,2021-12-06_04h16.27.829,jm_natural_scene_simialrity_2-12-2021,2021.2.3,Win32,59.42123715,5cdf55535a78bf00195d3715,61ad71e11ddd29ccf7a27d5b,61ad7251d88195a17fc3e892,,,,,,-26,52,1,0,0,response7disk,0.6137,-2,8,1,0,0,rectangle,-52,115,1,0,0,-4,-4,"[67,36,3,45,135,23,109,105,103,80]",-8,3,1,0,0,1,23,104,16,1,Yellow,Yellow.jpg,Purple,Purple.jpg,response7disk_3,rectangle
,,,,,,,,,,,,,,,,,,-4,,,,,,,,,,,,,,,,,,,,,,,,,,,,001,2021-12-06_04h16.27.829,jm_natural_scene_simialrity_2-12-2021,2021.2.3,Win32,59.42123715,5cdf55535a78bf00195d3715,61ad71e11ddd29ccf7a27d5b,61ad7251d88195a17fc3e892,,,,,,-34,49,1,0,0,response7disk,0.7664,0,-7,1,0,0,rectangle,0,-7,1,0,0,-4,-1,"[67,36,3,45,135,23,109,105,103,80]",0,-7,1,0,0,1,24,105,38,1,LightBlue,LightBlue.jpg,Purple,Purple.jpg,,
,,,,,,,,,,,,,,,,,,-4,,,,,,,,,,,,,,,,,,,,,,,,,,,,001,2021-12-06_04h16.27.829,jm_natural_scene_simialrity_2-12-2021,2021.2.3,Win32,59.42123715,5cdf55535a78bf00195d3715,61ad71e11ddd29ccf7a27d5b,61ad7251d88195a17fc3e892,,,,,,-40,60,1,0,0,response7disk,0.7895,-5,1,1,0,0,rectangle,-5,1,1,0,0,-4,3,"[67,36,3,45,135,23,109,105,103,80]",-5,1,1,0,0,1,25,106,78,1,Pink,Pink.jpg,DarkBlue,DarkBlue.jpg,,
,,,,,,,,,,,,,,,,,,-4,,,,,,,,,,,,,,,,,,,,,,,,,,,,001,2021-12-06_04h16.27.829,jm_natural_scene_simialrity_2-12-2021,2021.2.3,Win32,59.42123715,5cdf55535a78bf00195d3715,61ad71e11ddd29ccf7a27d5b,61ad7251d88195a17fc3e892,,,,,,-25,48,1,0,0,response7disk,1.9425,-5,0,1,0,0,rectangle,-5,0,1,0,0,-4,2,"[67,36,3,45,135,23,109,105,103,80]",-5,0,1,0,0,1,26,107,34,1,Turquiose,Turquiose.jpg,Purple,Purple.jpg,,
,,,,,,,,,,,,,,,,,,-4,,,,,,,,,,,,,,,,,,,,,,,,,,,,001,2021-12-06_04h16.27.829,jm_natural_scene_simialrity_2-12-2021,2021.2.3,Win32,59.42123715,5cdf55535a78bf00195d3715,61ad71e11ddd29ccf7a27d5b,61ad7251d88195a17fc3e892,,,,,,-31,55,1,0,0,response7disk,0.8644,-1,5,1,0,0,rectangle,-48,93,1,0,0,-4,-1,"[67,36,3,45,135,23,109,105,103,80]",3,6,1,0,0,1,27,108,50,1,DarkBlue,DarkBlue.jpg,Red,Red.jpg,response7disk_3,rectangle
,,,,,,,,,,,,,,,,,,-4,,,,,,,,,,,,,,,,,,,,,,,,,,,,001,2021-12-06_04h16.27.829,jm_natural_scene_simialrity_2-12-2021,2021.2.3,Win32,59.42123715,5cdf55535a78bf00195d3715,61ad71e11ddd29ccf7a27d5b,61ad7251d88195a17fc3e892,,,,,,-29,68,1,0,0,response7disk,0.8146,-1,3,1,0,0,rectangle,-1,3,1,0,0,-4,-3,"[67,36,3,45,135,23,109,105,103,80]",-1,3,1,0,0,1,28,109,70,1,Purple,Purple.jpg,DarkGreen,DarkGreen.jpg,,
,,,,,,,,,,,,,,,,,,-4,,,,,,,,,,,,,,,,,,,,,,,,,,,,001,2021-12-06_04h16.27.829,jm_natural_scene_simialrity_2-12-2021,2021.2.3,Win32,59.42123715,5cdf55535a78bf00195d3715,61ad71e11ddd29ccf7a27d5b,61ad7251d88195a17fc3e892,,,,,,-50,86,1,0,0,response7disk,0.6002,1,-1,1,0,0,rectangle,1,-1,1,0,0,-4,-4,"[67,36,3,45,135,23,109,105,103,80]",1,-1,1,0,0,1,29,110,76,1,Pink,Pink.jpg,LightBlue,LightBlue.jpg,,
,,,,,,,,,,,,,,,,,,-2,,,,,,,,,,,,,,,,,,,,,,,,,,,,001,2021-12-06_04h16.27.829,jm_natural_scene_simialrity_2-12-2021,2021.2.3,Win32,59.42123715,5cdf55535a78bf00195d3715,61ad71e11ddd29ccf7a27d5b,61ad7251d88195a17fc3e892,,,,,,-83,-60,1,0,0,response5disk,2.0502,7,-4,1,0,0,rectangle,7,-4,1,0,0,-4,-4,"[67,36,3,45,135,23,109,105,103,80]",7,-4,1,0,0,1,30,111,60,1,DarkGreen,DarkGreen.jpg,LightGreen,LightGreen.jpg,,
,,,,,,,,,,,,,,,,,,-4,,,,,,,,,,,,,,,,,,,,,,,,,,,,001,2021-12-06_04h16.27.829,jm_natural_scene_simialrity_2-12-2021,2021.2.3,Win32,59.42123715,5cdf55535a78bf00195d3715,61ad71e11ddd29ccf7a27d5b,61ad7251d88195a17fc3e892,,,,,,-40,74,1,0,0,response7disk,0.8837,-4,-9,1,0,0,rectangle,-4,-9,1,0,0,-4,-4,"[67,36,3,45,135,23,109,105,103,80]",-4,-9,1,0,0,1,31,112,47,1,DarkGreen,DarkGreen.jpg,Red,Red.jpg,,
,,,,,,,,,,,,,,,,,,-4,,,,,,,,,,,,,,,,,,,,,,,,,,,,001,2021-12-06_04h16.27.829,jm_natural_scene_simialrity_2-12-2021,2021.2.3,Win32,59.42123715,5cdf55535a78bf00195d3715,61ad71e11ddd29ccf7a27d5b,61ad7251d88195a17fc3e892,,,,,,-41,67,1,0,0,response7disk,2.0508,-1,6,1,0,0,rectangle,-1,6,1,0,0,-4,-1,"[67,36,3,45,135,23,109,105,103,80]",-1,6,1,0,0,1,32,113,32,1,Turquiose,Turquiose.jpg,DarkBlue,DarkBlue.jpg,,
,,,,,,,,,,,,,,,,,,-4,,,,,,,,,,,,,,,,,,,,,,,,,,,,001,2021-12-06_04h16.27.829,jm_natural_scene_simialrity_2-12-2021,2021.2.3,Win32,59.42123715,5cdf55535a78bf00195d3715,61ad71e11ddd29ccf7a27d5b,61ad7251d88195a17fc3e892,,,,,,-29,68,1,0,0,response7disk,0.8335,0,10,1,0,0,rectangle,0,10,1,0,0,-4,-2,"[67,36,3,45,135,23,109,105,103,80]",0,10,1,0,0,1,33,114,25,1,DarkGreen,DarkGreen.jpg,Turquiose,Turquiose.jpg,,
,,,,,,,,,,,,,,,,,,-4,,,,,,,,,,,,,,,,,,,,,,,,,,,,001,2021-12-06_04h16.27.829,jm_natural_scene_simialrity_2-12-2021,2021.2.3,Win32,59.42123715,5cdf55535a78bf00195d3715,61ad71e11ddd29ccf7a27d5b,61ad7251d88195a17fc3e892,,,,,,-39,87,1,0,0,response7disk,0.7172,1,-8,1,0,0,rectangle,1,-8,1,0,0,-4,-2,"[67,36,3,45,135,23,109,105,103,80]",1,-8,1,0,0,1,34,115,77,1,Purple,Purple.jpg,LightBlue,LightBlue.jpg,,
,,,,,,,,,,,,,,,,,,-4,,,,,,,,,,,,,,,,,,,,,,,,,,,,001,2021-12-06_04h16.27.829,jm_natural_scene_simialrity_2-12-2021,2021.2.3,Win32,59.42123715,5cdf55535a78bf00195d3715,61ad71e11ddd29ccf7a27d5b,61ad7251d88195a17fc3e892,,,,,,-30,59,1,0,0,response7disk,0.6664,-4,8,1,0,0,rectangle,-4,8,1,0,0,-4,2,"[67,36,3,45,135,23,109,105,103,80]",-4,8,1,0,0,1,35,116,33,1,Turquiose,Turquiose.jpg,Pink,Pink.jpg,,
,,,,,,,,,,,,,,,,,,-4,,,,,,,,,,,,,,,,,,,,,,,,,,,,001,2021-12-06_04h16.27.829,jm_natural_scene_simialrity_2-12-2021,2021.2.3,Win32,59.42123715,5cdf55535a78bf00195d3715,61ad71e11ddd29ccf7a27d5b,61ad7251d88195a17fc3e892,,,,,,-29,56,1,0,0,response7disk,0.7339,-8,14,1,0,0,rectangle,-8,14,1,0,0,-4,-3,"[67,36,3,45,135,23,109,105,103,80]",-8,14,1,0,0,1,36,117,27,1,DarkGreen,DarkGreen.jpg,DarkBlue,DarkBlue.jpg,,
,,,,,,,,,,,,,,,,,,-4,,,,,,,,,,,,,,,,,,,,,,,,,,,,001,2021-12-06_04h16.27.829,jm_natural_scene_simialrity_2-12-2021,2021.2.3,Win32,59.42123715,5cdf55535a78bf00195d3715,61ad71e11ddd29ccf7a27d5b,61ad7251d88195a17fc3e892,,,,,,-35,70,1,0,0,response7disk,0.6336,-4,6,1,0,0,rectangle,-4,6,1,0,0,-4,-2,"[67,36,3,45,135,23,109,105,103,80]",-4,6,1,0,0,1,37,118,54,1,DarkGreen,DarkGreen.jpg,Yellow,Yellow.jpg,,
,,,,,,,,,,,,,,,,,,-4,,,,,,,,,,,,,,,,,,,,,,,,,,,,001,2021-12-06_04h16.27.829,jm_natural_scene_simialrity_2-12-2021,2021.2.3,Win32,59.42123715,5cdf55535a78bf00195d3715,61ad71e11ddd29ccf7a27d5b,61ad7251d88195a17fc3e892,,,,,,-36,71,1,0,0,response7disk,1.0664,4,-6,1,0,0,rectangle,4,-6,1,0,0,-4,-4,"[67,36,3,45,135,23,109,105,103,80]",4,-6,1,0,0,1,38,119,2,1,Red,Red.jpg,LightGreen,LightGreen.jpg,,
,,,,,,,,,,,,,,,,,,-2,,,,,,,,,,,,,,,,,,,,,,,,,,,,001,2021-12-06_04h16.27.829,jm_natural_scene_simialrity_2-12-2021,2021.2.3,Win32,59.42123715,5cdf55535a78bf00195d3715,61ad71e11ddd29ccf7a27d5b,61ad7251d88195a17fc3e892,,,,,,-115,-65,1,0,0,response5disk,1.8665,6,-7,1,0,0,rectangle,6,-7,1,0,0,-4,3,"[67,36,3,45,135,23,109,105,103,80]",6,-7,1,0,0,1,39,120,51,1,Pink,Pink.jpg,Red,Red.jpg,,
,,,,,,,,,,,,,,,,,,4,,,,,,,,,,,,,,,,,,,,,,,,,,,,001,2021-12-06_04h16.27.829,jm_natural_scene_simialrity_2-12-2021,2021.2.3,Win32,59.42123715,5cdf55535a78bf00195d3715,61ad71e11ddd29ccf7a27d5b,61ad7251d88195a17fc3e892,,,,,,67,93,1,0,0,response1disk,1.1179,-3,8,1,0,0,rectangle,-3,8,1,0,0,-4,1,"[67,36,3,45,135,23,109,105,103,80]",-3,8,1,0,0,1,40,121,42,1,Pink,Pink.jpg,Pink,Pink.jpg,,
,,,,,,,,,,,,,,,,,,-4,,,,,,,,,,,,,,,,,,,,,,,,,,,,001,2021-12-06_04h16.27.829,jm_natural_scene_simialrity_2-12-2021,2021.2.3,Win32,59.42123715,5cdf55535a78bf00195d3715,61ad71e11ddd29ccf7a27d5b,61ad7251d88195a17fc3e892,,,,,,-42,64,1,0,0,response7disk,0.8339,-1,4,1,0,0,rectangle,-1,4,1,0,0,-4,-1,"[67,36,3,45,135,23,109,105,103,80]",-1,4,1,0,0,1,41,122,8,1,Red,Red.jpg,Purple,Purple.jpg,,
,,,,,,,,,,,,,,,,,,4,,,,,,,,,,,,,,,,,,,,,,,,,,,,001,2021-12-06_04h16.27.829,jm_natural_scene_simialrity_2-12-2021,2021.2.3,Win32,59.42123715,5cdf55535a78bf00195d3715,61ad71e11ddd29ccf7a27d5b,61ad7251d88195a17fc3e892,,,,,,67,96,1,0,0,response1disk,0.8341,8,-20,1,0,0,rectangle,8,-20,1,0,0,-4,1,"[67,36,3,45,135,23,109,105,103,80]",8,-20,1,0,0,1,42,123,37,1,LightBlue,LightBlue.jpg,Pink,Pink.jpg,,
,,,,,,,,,,,,,,,,,,-4,,,,,,,,,,,,,,,,,,,,,,,,,,,,001,2021-12-06_04h16.27.829,jm_natural_scene_simialrity_2-12-2021,2021.2.3,Win32,59.42123715,5cdf55535a78bf00195d3715,61ad71e11ddd29ccf7a27d5b,61ad7251d88195a17fc3e892,,,,,,-48,87,1,0,0,response7disk,0.9341,-9,18,1,0,0,rectangle,-9,18,1,0,0,-4,-4,"[67,36,3,45,135,23,109,105,103,80]",-9,18,1,0,0,1,43,124,40,1,DarkBlue,DarkBlue.jpg,Pink,Pink.jpg,,
,,,,,,,,,,,,,,,,,,4,,,,,,,,,,,,,,,,,,,,,,,,,,,,001,2021-12-06_04h16.27.829,jm_natural_scene_simialrity_2-12-2021,2021.2.3,Win32,59.42123715,5cdf55535a78bf00195d3715,61ad71e11ddd29ccf7a27d5b,61ad7251d88195a17fc3e892,,,,,,55,106,1,0,0,response1disk,1.0004,11,2,1,0,0,rectangle,11,2,1,0,0,-4,2,"[67,36,3,45,135,23,109,105,103,80]",11,2,1,0,0,1,44,125,39,1,DarkBlue,DarkBlue.jpg,DarkBlue,DarkBlue.jpg,,
,,,,,,,,,,,,,,,,,,-4,,,,,,,,,,,,,,,,,,,,,,,,,,,,001,2021-12-06_04h16.27.829,jm_natural_scene_simialrity_2-12-2021,2021.2.3,Win32,59.42123715,5cdf55535a78bf00195d3715,61ad71e11ddd29ccf7a27d5b,61ad7251d88195a17fc3e892,,,,,,-52,87,1,0,0,response7disk,0.9674,-8,-4,1,0,0,rectangle,-8,-4,1,0,0,-4,-3,"[67,36,3,45,135,23,109,105,103,80]",-8,-4,1,0,0,1,45,126,1,1,Red,Red.jpg,Yellow,Yellow.jpg,,
,,,,,,,,,,,,,,,,,,-4,,,,,,,,,,,,,,,,,,,,,,,,,,,,001,2021-12-06_04h16.27.829,jm_natural_scene_simialrity_2-12-2021,2021.2.3,Win32,59.42123715,5cdf55535a78bf00195d3715,61ad71e11ddd29ccf7a27d5b,61ad7251d88195a17fc3e892,,,,,,-49,83,1,0,0,response7disk,0.7851,-6,-3,1,0,0,rectangle,-6,-3,1,0,0,-4,-2,"[67,36,3,45,135,23,109,105,103,80]",-6,-3,1,0,0,1,46,127,20,1,LightGreen,LightGreen.jpg,LightBlue,LightBlue.jpg,,
,,,,,,,,,,,,,,,,,,-4,,,,,,,,,,,,,,,,,,,,,,,,,,,,001,2021-12-06_04h16.27.829,jm_natural_scene_simialrity_2-12-2021,2021.2.3,Win32,59.42123715,5cdf55535a78bf00195d3715,61ad71e11ddd29ccf7a27d5b,61ad7251d88195a17fc3e892,,,,,,-50,94,1,0,0,response7disk,0.7999,-2,8,1,0,0,rectangle,-2,8,1,0,0,-4,3,"[67,36,3,45,135,23,109,105,103,80]",-2,8,1,0,0,1,47,128,79,1,Purple,Purple.jpg,DarkBlue,DarkBlue.jpg,,
,,,,,,,,,,,,,,,,,,-4,,,,,,,,,,,,,,,,,,,,,,,,,,,,001,2021-12-06_04h16.27.829,jm_natural_scene_simialrity_2-12-2021,2021.2.3,Win32,59.42123715,5cdf55535a78bf00195d3715,61ad71e11ddd29ccf7a27d5b,61ad7251d88195a17fc3e892,,,,,,-44,91,1,0,0,response7disk,1.0584,-8,3,1,0,0,rectangle,-8,3,1,0,0,-4,3,"[67,36,3,45,135,23,109,105,103,80]",-8,3,1,0,0,1,48,129,68,1,DarkBlue,DarkBlue.jpg,DarkGreen,DarkGreen.jpg,,
,,,,,,,,,,,,,,,,,,-3,,,,,,,,,,,,,,,,,,,,,,,,,,,,001,2021-12-06_04h16.27.829,jm_natural_scene_simialrity_2-12-2021,2021.2.3,Win32,59.42123715,5cdf55535a78bf00195d3715,61ad71e11ddd29ccf7a27d5b,61ad7251d88195a17fc3e892,,,,,,-74,61,1,0,0,response7disk,1.4414,-17,-11,1,0,0,rectangle,-17,-11,1,0,0,-4,-1,"[67,36,3,45,135,23,109,105,103,80]",-17,-11,1,0,0,1,49,130,7,1,Red,Red.jpg,Pink,Pink.jpg,,
,,,,,,,,,,,,,,,,,,-4,,,,,,,,,,,,,,,,,,,,,,,,,,,,001,2021-12-06_04h16.27.829,jm_natural_scene_simialrity_2-12-2021,2021.2.3,Win32,59.42123715,5cdf55535a78bf00195d3715,61ad71e11ddd29ccf7a27d5b,61ad7251d88195a17fc3e892,,,,,,-43,50,1,0,0,response7disk,0.7931,-15,13,1,0,0,rectangle,-15,13,1,0,0,-4,-4,"[67,36,3,45,135,23,109,105,103,80]",-15,13,1,0,0,1,50,131,10,1,Yellow,Yellow.jpg,LightGreen,LightGreen.jpg,,
,,,,,,,,,,,,,,,,,,4,,,,,,,,,,,,,,,,,,,,,,,,,,,,001,2021-12-06_04h16.27.829,jm_natural_scene_simialrity_2-12-2021,2021.2.3,Win32,59.42123715,5cdf55535a78bf00195d3715,61ad71e11ddd29ccf7a27d5b,61ad7251d88195a17fc3e892,,,,,,62,107,1,0,0,response1disk,0.8175,13,13,1,0,0,rectangle,13,13,1,0,0,-4,-2,"[67,36,3,45,135,23,109,105,103,80]",13,13,1,0,0,1,51,132,24,1,DarkGreen,DarkGreen.jpg,DarkGreen,DarkGreen.jpg,,
,,,,,,,,,,,,,,,,,,4,,,,,,,,,,,,,,,,,,,,,,,,,,,,001,2021-12-06_04h16.27.829,jm_natural_scene_simialrity_2-12-2021,2021.2.3,Win32,59.42123715,5cdf55535a78bf00195d3715,61ad71e11ddd29ccf7a27d5b,61ad7251d88195a17fc3e892,,,,,,58,74,1,0,0,response1disk,0.8016,4,-12,1,0,0,rectangle,4,-12,1,0,0,-4,-4,"[67,36,3,45,135,23,109,105,103,80]",4,-12,1,0,0,1,52,133,0,1,Red,Red.jpg,Red,Red.jpg,,
,,,,,,,,,,,,,,,,,,-4,,,,,,,,,,,,,,,,,,,,,,,,,,,,001,2021-12-06_04h16.27.829,jm_natural_scene_simialrity_2-12-2021,2021.2.3,Win32,59.42123715,5cdf55535a78bf00195d3715,61ad71e11ddd29ccf7a27d5b,61ad7251d88195a17fc3e892,,,,,,-71,99,1,0,0,response7disk,1.5515,-8,0,1,0,0,rectangle,-89,-39,1,0,0,-4,-2,"[67,36,3,45,135,23,109,105,103,80]",-2,9,1,0,0,1,53,134,4,1,Red,Red.jpg,Turquiose,Turquiose.jpg,response5disk_3,rectangle
,,,,,,,,,,,,,,,,,,4,,,,,,,,,,,,,,,,,,,,,,,,,,,,001,2021-12-06_04h16.27.829,jm_natural_scene_simialrity_2-12-2021,2021.2.3,Win32,59.42123715,5cdf55535a78bf00195d3715,61ad71e11ddd29ccf7a27d5b,61ad7251d88195a17fc3e892,,,,,,28,102,1,0,0,response1disk,0.9445,-19,1,1,0,0,rectangle,-19,1,1,0,0,-4,-1,"[67,36,3,45,135,23,109,105,103,80]",-19,1,1,0,0,1,54,135,17,1,LightGreen,LightGreen.jpg,LightGreen,LightGreen.jpg,,
,,,,,,,,,,,,,,,,,,-4,,,,,,,,,,,,,,,,,,,,,,,,,,,,001,2021-12-06_04h16.27.829,jm_natural_scene_simialrity_2-12-2021,2021.2.3,Win32,59.42123715,5cdf55535a78bf00195d3715,61ad71e11ddd29ccf7a27d5b,61ad7251d88195a17fc3e892,,,,,,-53,90,1,0,0,response7disk,0.6839,-8,12,1,0,0,rectangle,-8,12,1,0,0,-4,-4,"[67,36,3,45,135,23,109,105,103,80]",-8,12,1,0,0,1,55,136,29,1,DarkGreen,DarkGreen.jpg,Purple,Purple.jpg,,
,,,,,,,,,,,,,,,,,,-4,,,,,,,,,,,,,,,,,,,,,,,,,,,,001,2021-12-06_04h16.27.829,jm_natural_scene_simialrity_2-12-2021,2021.2.3,Win32,59.42123715,5cdf55535a78bf00195d3715,61ad71e11ddd29ccf7a27d5b,61ad7251d88195a17fc3e892,,,,,,-36,84,1,0,0,response7disk,0.6664,6,2,1,0,0,rectangle,6,2,1,0,0,-4,-3,"[67,36,3,45,135,23,109,105,103,80]",6,2,1,0,0,1,56,137,13,1,Yellow,Yellow.jpg,LightBlue,LightBlue.jpg,,
,,,,,,,,,,,,,,,,,,-4,,,,,,,,,,,,,,,,,,,,,,,,,,,,001,2021-12-06_04h16.27.829,jm_natural_scene_simialrity_2-12-2021,2021.2.3,Win32,59.42123715,5cdf55535a78bf00195d3715,61ad71e11ddd29ccf7a27d5b,61ad7251d88195a17fc3e892,,,,,,-35,90,1,0,0,response7disk,0.633,4,-10,1,0,0,rectangle,4,-10,1,0,0,-4,-1,"[67,36,3,45,135,23,109,105,103,80]",4,-10,1,0,0,1,57,138,46,1,LightGreen,LightGreen.jpg,Red,Red.jpg,,
,,,,,,,,,,,,,,,,,,-4,,,,,,,,,,,,,,,,,,,,,,,,,,,,001,2021-12-06_04h16.27.829,jm_natural_scene_simialrity_2-12-2021,2021.2.3,Win32,59.42123715,5cdf55535a78bf00195d3715,61ad71e11ddd29ccf7a27d5b,61ad7251d88195a17fc3e892,,,,,,-35,56,1,0,0,response7disk,0.7006,-18,23,1,0,0,rectangle,-18,23,1,0,0,-4,3,"[67,36,3,45,135,23,109,105,103,80]",-18,23,1,0,0,1,58,139,12,1,Yellow,Yellow.jpg,Turquiose,Turquiose.jpg,,
,,,,,,,,,,,,,,,,,,-4,,,,,,,,,,,,,,,,,,,,,,,,,,,,001,2021-12-06_04h16.27.829,jm_natural_scene_simialrity_2-12-2021,2021.2.3,Win32,59.42123715,5cdf55535a78bf00195d3715,61ad71e11ddd29ccf7a27d5b,61ad7251d88195a17fc3e892,,,,,,-32,71,1,0,0,response7disk,0.5342,-8,14,1,0,0,rectangle,-8,14,1,0,0,-4,-3,"[67,36,3,45,135,23,109,105,103,80]",-8,14,1,0,0,1,59,140,48,1,Turquiose,Turquiose.jpg,Red,Red.jpg,,
,,,,,,,,,,,,,,,,,,-4,,,,,,,,,,,,,,,,,,,,,,,,,,,,001,2021-12-06_04h16.27.829,jm_natural_scene_simialrity_2-12-2021,2021.2.3,Win32,59.42123715,5cdf55535a78bf00195d3715,61ad71e11ddd29ccf7a27d5b,61ad7251d88195a17fc3e892,,,,,,-28,68,1,0,0,response7disk,0.767,-3,16,1,0,0,rectangle,-3,16,1,0,0,-4,-3,"[67,36,3,45,135,23,109,105,103,80]",-3,16,1,0,0,1,60,141,11,1,Yellow,Yellow.jpg,DarkGreen,DarkGreen.jpg,,
,,,,,,,,,,,,,,,,,,-4,,,,,,,,,,,,,,,,,,,,,,,,,,,,001,2021-12-06_04h16.27.829,jm_natural_scene_simialrity_2-12-2021,2021.2.3,Win32,59.42123715,5cdf55535a78bf00195d3715,61ad71e11ddd29ccf7a27d5b,61ad7251d88195a17fc3e892,,,,,,-41,79,1,0,0,response7disk,0.7235,4,-8,1,0,0,rectangle,4,-8,1,0,0,-4,3,"[67,36,3,45,135,23,109,105,103,80]",4,-8,1,0,0,1,61,142,73,1,Pink,Pink.jpg,Turquiose,Turquiose.jpg,,
,,,,,,,,,,,,,,,,,,4,,,,,,,,,,,,,,,,,,,,,,,,,,,,001,2021-12-06_04h16.27.829,jm_natural_scene_simialrity_2-12-2021,2021.2.3,Win32,59.42123715,5cdf55535a78bf00195d3715,61ad71e11ddd29ccf7a27d5b,61ad7251d88195a17fc3e892,,,,,,44,67,1,0,0,response1disk,0.8505,0,2,1,0,0,rectangle,0,2,1,0,0,-4,1,"[67,36,3,45,135,23,109,105,103,80]",0,2,1,0,0,1,62,143,62,1,LightBlue,LightBlue.jpg,LightGreen,LightGreen.jpg,,
,,,,,,,,,,,,,,,,,,-4,,,,,,,,,,,,,,,,,,,,,,,,,,,,001,2021-12-06_04h16.27.829,jm_natural_scene_simialrity_2-12-2021,2021.2.3,Win32,59.42123715,5cdf55535a78bf00195d3715,61ad71e11ddd29ccf7a27d5b,61ad7251d88195a17fc3e892,,,,,,-37,61,1,0,0,response7disk,0.7541,-8,-6,1,0,0,rectangle,-8,-6,1,0,0,-4,-4,"[67,36,3,45,135,23,109,105,103,80]",-8,-6,1,0,0,1,63,144,61,1,Turquiose,Turquiose.jpg,LightGreen,LightGreen.jpg,,
,,,,,,,,,,,,,,,,,,-4,,,,,,,,,,,,,,,,,,,,,,,,,,,,001,2021-12-06_04h16.27.829,jm_natural_scene_simialrity_2-12-2021,2021.2.3,Win32,59.42123715,5cdf55535a78bf00195d3715,61ad71e11ddd29ccf7a27d5b,61ad7251d88195a17fc3e892,,,,,,-37,57,1,0,0,response7disk,1.2518,-1,-8,1,0,0,rectangle,-1,-8,1,0,0,-4,-1,"[67,36,3,45,135,23,109,105,103,80]",-1,-8,1,0,0,1,64,145,69,1,Pink,Pink.jpg,DarkGreen,DarkGreen.jpg,,
,,,,,,,,,,,,,,,,,,-4,,,,,,,,,,,,,,,,,,,,,,,,,,,,001,2021-12-06_04h16.27.829,jm_natural_scene_simialrity_2-12-2021,2021.2.3,Win32,59.42123715,5cdf55535a78bf00195d3715,61ad71e11ddd29ccf7a27d5b,61ad7251d88195a17fc3e892,,,,,,-43,77,1,0,0,response7disk,0.9347,-5,-6,1,0,0,rectangle,-5,-6,1,0,0,-4,1,"[67,36,3,45,135,23,109,105,103,80]",-5,-6,1,0,0,1,65,146,72,1,DarkBlue,DarkBlue.jpg,Turquiose,Turquiose.jpg,,
,,,,,,,,,,,,,,,,,,-4,,,,,,,,,,,,,,,,,,,,,,,,,,,,001,2021-12-06_04h16.27.829,jm_natural_scene_simialrity_2-12-2021,2021.2.3,Win32,59.42123715,5cdf55535a78bf00195d3715,61ad71e11ddd29ccf7a27d5b,61ad7251d88195a17fc3e892,,,,,,-30,66,1,0,0,response7disk,1.3177,-7,11,1,0,0,rectangle,-7,11,1,0,0,-4,-4,"[67,36,3,45,135,23,109,105,103,80]",-7,11,1,0,0,1,66,147,22,1,LightGreen,LightGreen.jpg,Pink,Pink.jpg,,
,,,,,,,,,,,,,,,,,,-4,,,,,,,,,,,,,,,,,,,,,,,,,,,,001,2021-12-06_04h16.27.829,jm_natural_scene_simialrity_2-12-2021,2021.2.3,Win32,59.42123715,5cdf55535a78bf00195d3715,61ad71e11ddd29ccf7a27d5b,61ad7251d88195a17fc3e892,,,,,,-29,51,1,0,0,response7disk,0.8165,-2,1,1,0,0,rectangle,-2,1,1,0,0,-4,2,"[67,36,3,45,135,23,109,105,103,80]",-2,1,1,0,0,1,67,148,3,1,Red,Red.jpg,DarkGreen,DarkGreen.jpg,,
,,,,,,,,,,,,,,,,,,-4,,,,,,,,,,,,,,,,,,,,,,,,,,,,001,2021-12-06_04h16.27.829,jm_natural_scene_simialrity_2-12-2021,2021.2.3,Win32,59.42123715,5cdf55535a78bf00195d3715,61ad71e11ddd29ccf7a27d5b,61ad7251d88195a17fc3e892,,,,,,-42,74,1,0,0,response7disk,1.0674,-6,14,1,0,0,rectangle,-6,14,1,0,0,-4,2,"[67,36,3,45,135,23,109,105,103,80]",-6,14,1,0,0,1,68,149,14,1,Yellow,Yellow.jpg,DarkBlue,DarkBlue.jpg,,
,,,,,,,,,,,,,,,,,,-4,,,,,,,,,,,,,,,,,,,,,,,,,,,,001,2021-12-06_04h16.27.829,jm_natural_scene_simialrity_2-12-2021,2021.2.3,Win32,59.42123715,5cdf55535a78bf00195d3715,61ad71e11ddd29ccf7a27d5b,61ad7251d88195a17fc3e892,,,,,,-36,68,1,0,0,response7disk,0.8169,-4,-2,1,0,0,rectangle,-4,-2,1,0,0,-4,1,"[67,36,3,45,135,23,109,105,103,80]",-4,-2,1,0,0,1,69,150,66,1,Turquiose,Turquiose.jpg,DarkGreen,DarkGreen.jpg,,
,,,,,,,,,,,,,,,,,,-4,,,,,,,,,,,,,,,,,,,,,,,,,,,,001,2021-12-06_04h16.27.829,jm_natural_scene_simialrity_2-12-2021,2021.2.3,Win32,59.42123715,5cdf55535a78bf00195d3715,61ad71e11ddd29ccf7a27d5b,61ad7251d88195a17fc3e892,,,,,,-37,94,1,0,0,response7disk,0.4663,7,-2,1,0,0,rectangle,7,-2,1,0,0,-4,1,"[67,36,3,45,135,23,109,105,103,80]",7,-2,1,0,0,1,70,151,49,1,LightBlue,LightBlue.jpg,Red,Red.jpg,,
,,,,,,,,,,,,,,,,,,4,,,,,,,,,,,,,,,,,,,,,,,,,,,,001,2021-12-06_04h16.27.829,jm_natural_scene_simialrity_2-12-2021,2021.2.3,Win32,59.42123715,5cdf55535a78bf00195d3715,61ad71e11ddd29ccf7a27d5b,61ad7251d88195a17fc3e892,,,,,,47,73,1,0,0,response1disk,0.8444,3,22,1,0,0,rectangle,3,22,1,0,0,-4,-1,"[67,36,3,45,135,23,109,105,103,80]",3,22,1,0,0,1,71,152,44,1,Purple,Purple.jpg,Purple,Purple.jpg,,
,,,,,,,,,,,,,,,,,,-4,,,,,,,,,,,,,,,,,,,,,,,,,,,,001,2021-12-06_04h16.27.829,jm_natural_scene_simialrity_2-12-2021,2021.2.3,Win32,59.42123715,5cdf55535a78bf00195d3715,61ad71e11ddd29ccf7a27d5b,61ad7251d88195a17fc3e892,,,,,,-39,73,1,0,0,response7disk,0.8173,-9,18,1,0,0,rectangle,-9,18,1,0,0,-4,-2,"[67,36,3,45,135,23,109,105,103,80]",-9,18,1,0,0,1,72,153,26,1,DarkGreen,DarkGreen.jpg,LightBlue,LightBlue.jpg,,
,,,,,,,,,,,,,,,,,,4,,,,,,,,,,,,,,,,,,,,,,,,,,,,001,2021-12-06_04h16.27.829,jm_natural_scene_simialrity_2-12-2021,2021.2.3,Win32,59.42123715,5cdf55535a78bf00195d3715,61ad71e11ddd29ccf7a27d5b,61ad7251d88195a17fc3e892,,,,,,44,105,1,0,0,response1disk,0.7678,-9,7,1,0,0,rectangle,-9,7,1,0,0,-4,-1,"[67,36,3,45,135,23,109,105,103,80]",-9,7,1,0,0,1,73,154,35,1,LightBlue,LightBlue.jpg,LightBlue,LightBlue.jpg,,
,,,,,,,,,,,,,,,,,,4,,,,,,,,,,,,,,,,,,,,,,,,,,,,001,2021-12-06_04h16.27.829,jm_natural_scene_simialrity_2-12-2021,2021.2.3,Win32,59.42123715,5cdf55535a78bf00195d3715,61ad71e11ddd29ccf7a27d5b,61ad7251d88195a17fc3e892,,,,,,48,95,1,0,0,response1disk,0.973,5,15,1,0,0,rectangle,5,15,1,0,0,-4,2,"[67,36,3,45,135,23,109,105,103,80]",5,15,1,0,0,1,74,155,30,1,Turquiose,Turquiose.jpg,Turquiose,Turquiose.jpg,,
,,,,,,,,,,,,,,,,,,-4,,,,,,,,,,,,,,,,,,,,,,,,,,,,001,2021-12-06_04h16.27.829,jm_natural_scene_simialrity_2-12-2021,2021.2.3,Win32,59.42123715,5cdf55535a78bf00195d3715,61ad71e11ddd29ccf7a27d5b,61ad7251d88195a17fc3e892,,,,,,-39,70,1,0,0,response7disk,0.85,-9,7,1,0,0,rectangle,-9,7,1,0,0,-4,-1,"[67,36,3,45,135,23,109,105,103,80]",-9,7,1,0,0,1,75,156,80,1,Purple,Purple.jpg,Pink,Pink.jpg,,
,,,,,,,,,,,,,,,,,,-4,,,,,,,,,,,,,,,,,,,,,,,,,,,,001,2021-12-06_04h16.27.829,jm_natural_scene_simialrity_2-12-2021,2021.2.3,Win32,59.42123715,5cdf55535a78bf00195d3715,61ad71e11ddd29ccf7a27d5b,61ad7251d88195a17fc3e892,,,,,,-39,70,1,0,0,response7disk,0.8006,-12,14,1,0,0,rectangle,-12,14,1,0,0,-4,-1,"[67,36,3,45,135,23,109,105,103,80]",-12,14,1,0,0,1,76,157,55,1,Turquiose,Turquiose.jpg,Yellow,Yellow.jpg,,
,,,,,,,,,,,,,,,,,,-4,,,,,,,,,,,,,,,,,,,,,,,,,,,,001,2021-12-06_04h16.27.829,jm_natural_scene_simialrity_2-12-2021,2021.2.3,Win32,59.42123715,5cdf55535a78bf00195d3715,61ad71e11ddd29ccf7a27d5b,61ad7251d88195a17fc3e892,,,,,,-37,63,1,0,0,response7disk,0.8168,-6,2,1,0,0,rectangle,-6,2,1,0,0,-4,1,"[67,36,3,45,135,23,109,105,103,80]",-6,2,1,0,0,1,77,158,57,1,DarkBlue,DarkBlue.jpg,Yellow,Yellow.jpg,,
,,,,,,,,,,,,,,,,,,-4,,,,,,,,,,,,,,,,,,,,,,,,,,,,001,2021-12-06_04h16.27.829,jm_natural_scene_simialrity_2-12-2021,2021.2.3,Win32,59.42123715,5cdf55535a78bf00195d3715,61ad71e11ddd29ccf7a27d5b,61ad7251d88195a17fc3e892,,,,,,-26,47,1,0,0,response7disk,0.8839,-7,14,1,0,0,rectangle,-7,14,1,0,0,-4,-2,"[67,36,3,45,135,23,109,105,103,80]",-7,14,1,0,0,1,78,159,59,1,Purple,Purple.jpg,Yellow,Yellow.jpg,,
,,,,,,,,,,,,,,,,,,-4,,,,,,,,,,,,,,,,,,,,,,,,,,,,001,2021-12-06_04h16.27.829,jm_natural_scene_simialrity_2-12-2021,2021.2.3,Win32,59.42123715,5cdf55535a78bf00195d3715,61ad71e11ddd29ccf7a27d5b,61ad7251d88195a17fc3e892,,,,,,-35,71,1,0,0,response7disk,1.3182,-5,15,1,0,0,rectangle,-5,15,1,0,0,-4,3,"[67,36,3,45,135,23,109,105,103,80]",-5,15,1,0,0,1,79,160,18,1,LightGreen,LightGreen.jpg,DarkGreen,DarkGreen.jpg,,
,,,,,,,,,,,,,,,,,,-4,,,,,,,,,,,,,,,,,,,,,,,,,,,,001,2021-12-06_04h16.27.829,jm_natural_scene_simialrity_2-12-2021,2021.2.3,Win32,59.42123715,5cdf55535a78bf00195d3715,61ad71e11ddd29ccf7a27d5b,61ad7251d88195a17fc3e892,,,,,,-36,63,1,0,0,response7disk,0.9495,-6,7,1,0,0,rectangle,-6,7,1,0,0,-4,-2,"[67,36,3,45,135,23,109,105,103,80]",-6,7,1,0,0,1,80,161,21,1,LightGreen,LightGreen.jpg,DarkBlue,DarkBlue.jpg,,
