key_resp.keys,key_resp.rt,key_resp_16.keys,key_resp_16.rt,key_resp_2.keys,key_resp_2.rt,key_resp_3.keys,key_resp_3.rt,key_resp_19.keys,key_resp_19.rt,key_resp_10.keys,key_resp_10.rt,mouse_prac.x,mouse_prac.y,mouse_prac.leftButton,mouse_prac.midButton,mouse_prac.rightButton,mouse_prac.clicked_name,similarity,mouse_10.x,mouse_10.y,mouse_10.leftButton,mouse_10.midButton,mouse_10.rightButton,mouse_10.clicked_name,mouse_catch_prac.x,mouse_catch_prac.y,mouse_catch_prac.leftButton,mouse_catch_prac.midButton,mouse_catch_prac.rightButton,mouse_catch_prac.clicked_name,catchprac,catchnumberprac,mouse_6.x,mouse_6.y,mouse_6.leftButton,mouse_6.midButton,mouse_6.rightButton,mouse_6.clicked_name,during_prac.thisRepN,during_prac.thisTrialN,during_prac.thisN,during_prac.thisIndex,during_prac.ran,trailimage1,trial1adress,trailimage2,trial2adress,participant,session,date,expName,psychopyVersion,OS,frameRate,PROLIFIC_PID,STUDY_ID,SESSION_ID,key_resp_22.keys,key_resp_22.rt,mouse.x,mouse.y,mouse.leftButton,mouse.midButton,mouse.rightButton,mouse.clicked_name,response_time,mouse_2.x,mouse_2.y,mouse_2.leftButton,mouse_2.midButton,mouse_2.rightButton,mouse_2.clicked_name,mouse_3.x,mouse_3.y,mouse_3.leftButton,mouse_3.midButton,mouse_3.rightButton,catchresponse,catchnumber,catchtrialorder,mouse_11.x,mouse_11.y,mouse_11.leftButton,mouse_11.midButton,mouse_11.rightButton,trials_2.thisRepN,trials_2.thisTrialN,trials_2.thisN,trials_2.thisIndex,trials_2.ran,image1,image1adress,image2,image2adress,mouse_3.clicked_name,mouse_11.clicked_name
space,3.2945,space,2.4218,space,3.7382,space,12.0649,space,27.4447,space,8.4319,99.40423584,-51.97357178,1,0,0,response3disk_5,2,-2.732543945,-1.973999023,1,0,0,rectangle_8,112.2131348,42.38763428,1,0,0,response1disk_7,3,1,0.825317383,12.02612305,1,0,0,rectangle_4,0,0,0,1,1,trail1,trail1.jpg,trail2,trail2.jpg,,001,2021-12-05_23h16.52.084,jm_natural_scene_simialrity_2-12-2021,2021.2.3,MacIntel,59.99880002,5fc89209c5116c1deec89f9b,61ad71e11ddd29ccf7a27d5b,61ad727a92cbf3629b3b8389,,,,,,,,,,,,,,,,,,,,,,,,,,,,,,,,,,,,,,,
,,,,,,,,,,,,-114.2423706,-40.49154663,1,0,0,response5disk_5,-2,18.22088623,-19.06585693,1,0,0,rectangle_8,18.22088623,-19.06585693,1,0,0,,1,1,18.22088623,-19.06585693,1,0,0,,0,1,1,2,1,trail1,trail1.jpg,trail3,trail3.jpg,,001,2021-12-05_23h16.52.084,jm_natural_scene_simialrity_2-12-2021,2021.2.3,MacIntel,59.99880002,5fc89209c5116c1deec89f9b,61ad71e11ddd29ccf7a27d5b,61ad727a92cbf3629b3b8389,,,,,,,,,,,,,,,,,,,,,,,,,,,,,,,,,,,,,,,
,,,,,,,,,,,,124.0558472,37.7583313,1,0,0,response1disk_5,3,-10.56744385,-10.07162476,1,0,0,rectangle_8,-10.56744385,-10.07162476,1,0,0,,,1,-10.56744385,-10.07162476,1,0,0,,0,2,2,3,1,trail2,trail2.jpg,trail2,trail2.jpg,,001,2021-12-05_23h16.52.084,jm_natural_scene_simialrity_2-12-2021,2021.2.3,MacIntel,59.99880002,5fc89209c5116c1deec89f9b,61ad71e11ddd29ccf7a27d5b,61ad727a92cbf3629b3b8389,,,,,,,,,,,,,,,,,,,,,,,,,,,,,,,,,,,,,,,
,,,,,,,,,,,,46.24078369,88.91711426,1,0,0,response1disk_5,4,7.286560059,-16.28543091,1,0,0,rectangle_8,7.286560059,-16.28543091,1,0,0,,,1,7.286560059,-16.28543091,1,0,0,,0,3,3,0,1,trail1,trail1.jpg,trail1,trail1.jpg,,001,2021-12-05_23h16.52.084,jm_natural_scene_simialrity_2-12-2021,2021.2.3,MacIntel,59.99880002,5fc89209c5116c1deec89f9b,61ad71e11ddd29ccf7a27d5b,61ad727a92cbf3629b3b8389,,,,,,,,,,,,,,,,,,,,,,,,,,,,,,,,,,,,,,,
,,,,,,,,,,,,30.86816406,72.05407715,1,0,0,response1disk_5,4,-6.465087891,2.825256348,1,0,0,rectangle_8,-6.465087891,2.825256348,1,0,0,,,1,-6.465087891,2.825256348,1,0,0,,0,4,4,5,1,trail3,trail3.jpg,trail3,trail3.jpg,,001,2021-12-05_23h16.52.084,jm_natural_scene_simialrity_2-12-2021,2021.2.3,MacIntel,59.99880002,5fc89209c5116c1deec89f9b,61ad71e11ddd29ccf7a27d5b,61ad727a92cbf3629b3b8389,,,,,,,,,,,,,,,,,,,,,,,,,,,,,,,,,,,,,,,
,,,,,,,,,,,,-39.67547607,80.98532104,1,0,0,response7disk_5,-4,-1.006896973,-13.26306152,1,0,0,rectangle_8,-1.006896973,-13.26306152,1,0,0,,,1,-1.006896973,-13.26306152,1,0,0,,0,5,5,4,1,trail2,trail2.jpg,trail3,trail3.jpg,,001,2021-12-05_23h16.52.084,jm_natural_scene_simialrity_2-12-2021,2021.2.3,MacIntel,59.99880002,5fc89209c5116c1deec89f9b,61ad71e11ddd29ccf7a27d5b,61ad727a92cbf3629b3b8389,,,,,,,,,,,,,,,,,,,,,,,,,,,,,,,,,,,,,,,
,,,,,,,,,,,,,,,,,,-3,,,,,,,,,,,,,,,,,,,,,,,,,,,,,,,001,2021-12-05_23h16.52.084,jm_natural_scene_simialrity_2-12-2021,2021.2.3,MacIntel,59.99880002,5fc89209c5116c1deec89f9b,61ad71e11ddd29ccf7a27d5b,61ad727a92cbf3629b3b8389,space,4.4514,-81.75744629,56.36331177,1,0,0,response7disk,1.0999,-1.817016602,-13.13900757,1,0,0,rectangle,-1.817016602,-13.13900757,1,0,0,,-1,"[21,142,42,138,27,12,100,88,68,21]",-1.817016602,-13.13900757,1,0,0,0,0,0,21,1,LightGreen,LightGreen.jpg,DarkBlue,DarkBlue.jpg,,
,,,,,,,,,,,,,,,,,,-4,,,,,,,,,,,,,,,,,,,,,,,,,,,,,,,001,2021-12-05_23h16.52.084,jm_natural_scene_simialrity_2-12-2021,2021.2.3,MacIntel,59.99880002,5fc89209c5116c1deec89f9b,61ad71e11ddd29ccf7a27d5b,61ad727a92cbf3629b3b8389,,,-51.17834473,93.30715942,1,0,0,response7disk,1.2333,-10.73278809,2.000823975,1,0,0,rectangle,-10.73278809,2.000823975,1,0,0,,-3,"[21,142,42,138,27,12,100,88,68,21]",-10.73278809,2.000823975,1,0,0,0,1,1,54,1,DarkGreen,DarkGreen.jpg,Yellow,Yellow.jpg,,
,,,,,,,,,,,,,,,,,,-4,,,,,,,,,,,,,,,,,,,,,,,,,,,,,,,001,2021-12-05_23h16.52.084,jm_natural_scene_simialrity_2-12-2021,2021.2.3,MacIntel,59.99880002,5fc89209c5116c1deec89f9b,61ad71e11ddd29ccf7a27d5b,61ad727a92cbf3629b3b8389,,,-43.82440186,105.3728333,1,0,0,response7disk,0.8862,-4.49230957,2.145629883,1,0,0,rectangle,-4.49230957,2.145629883,1,0,0,,-4,"[21,142,42,138,27,12,100,88,68,21]",-4.49230957,2.145629883,1,0,0,0,2,2,43,1,Pink,Pink.jpg,Purple,Purple.jpg,,
,,,,,,,,,,,,,,,,,,-3,,,,,,,,,,,,,,,,,,,,,,,,,,,,,,,001,2021-12-05_23h16.52.084,jm_natural_scene_simialrity_2-12-2021,2021.2.3,MacIntel,59.99880002,5fc89209c5116c1deec89f9b,61ad71e11ddd29ccf7a27d5b,61ad727a92cbf3629b3b8389,,,-77.16229248,48.48376465,1,0,0,response7disk,1.1833,4.274597168,1.033447266,1,0,0,rectangle,4.274597168,1.033447266,1,0,0,,2,"[21,142,42,138,27,12,100,88,68,21]",4.274597168,1.033447266,1,0,0,0,3,3,41,1,DarkBlue,DarkBlue.jpg,Purple,Purple.jpg,,
,,,,,,,,,,,,,,,,,,-3,,,,,,,,,,,,,,,,,,,,,,,,,,,,,,,001,2021-12-05_23h16.52.084,jm_natural_scene_simialrity_2-12-2021,2021.2.3,MacIntel,59.99880002,5fc89209c5116c1deec89f9b,61ad71e11ddd29ccf7a27d5b,61ad727a92cbf3629b3b8389,,,-95.57098389,48.06906128,1,0,0,response7disk,0.8336,0.90234375,-11.45581055,1,0,0,rectangle,0.90234375,-11.45581055,1,0,0,,-4,"[21,142,42,138,27,12,100,88,68,21]",0.90234375,-11.45581055,1,0,0,0,4,4,14,1,Yellow,Yellow.jpg,DarkBlue,DarkBlue.jpg,,
,,,,,,,,,,,,,,,,,,-4,,,,,,,,,,,,,,,,,,,,,,,,,,,,,,,001,2021-12-05_23h16.52.084,jm_natural_scene_simialrity_2-12-2021,2021.2.3,MacIntel,59.99880002,5fc89209c5116c1deec89f9b,61ad71e11ddd29ccf7a27d5b,61ad727a92cbf3629b3b8389,,,-33.82043457,119.589325,1,0,0,response7disk,1.3507,-0.046020508,10.06063843,1,0,0,rectangle,-0.046020508,10.06063843,1,0,0,,2,"[21,142,42,138,27,12,100,88,68,21]",-0.046020508,10.06063843,1,0,0,0,5,5,23,1,LightGreen,LightGreen.jpg,Purple,Purple.jpg,,
,,,,,,,,,,,,,,,,,,-2,,,,,,,,,,,,,,,,,,,,,,,,,,,,,,,001,2021-12-05_23h16.52.084,jm_natural_scene_simialrity_2-12-2021,2021.2.3,MacIntel,59.99880002,5fc89209c5116c1deec89f9b,61ad71e11ddd29ccf7a27d5b,61ad727a92cbf3629b3b8389,,,-94.5067749,-40.51861572,1,0,0,response5disk,1.1674,13.78869629,12.03643799,1,0,0,rectangle,13.78869629,12.03643799,1,0,0,,-3,"[21,142,42,138,27,12,100,88,68,21]",13.78869629,12.03643799,1,0,0,0,6,6,5,1,Red,Red.jpg,LightBlue,LightBlue.jpg,,
,,,,,,,,,,,,,,,,,,-4,,,,,,,,,,,,,,,,,,,,,,,,,,,,,,,001,2021-12-05_23h16.52.084,jm_natural_scene_simialrity_2-12-2021,2021.2.3,MacIntel,59.99880002,5fc89209c5116c1deec89f9b,61ad71e11ddd29ccf7a27d5b,61ad727a92cbf3629b3b8389,,,-52.8682251,108.1755371,1,0,0,response7disk,0.9314,4.245300293,-21.91296387,1,0,0,rectangle,4.245300293,-21.91296387,1,0,0,,-1,"[21,142,42,138,27,12,100,88,68,21]",4.245300293,-21.91296387,1,0,0,0,7,7,57,1,DarkBlue,DarkBlue.jpg,Yellow,Yellow.jpg,,
,,,,,,,,,,,,,,,,,,-3,,,,,,,,,,,,,,,,,,,,,,,,,,,,,,,001,2021-12-05_23h16.52.084,jm_natural_scene_simialrity_2-12-2021,2021.2.3,MacIntel,59.99880002,5fc89209c5116c1deec89f9b,61ad71e11ddd29ccf7a27d5b,61ad727a92cbf3629b3b8389,,,-86.831604,28.86608887,1,0,0,response7disk,0.9003,-18.19354248,5.807037354,1,0,0,rectangle,-18.19354248,5.807037354,1,0,0,,3,"[21,142,42,138,27,12,100,88,68,21]",-18.19354248,5.807037354,1,0,0,0,8,8,34,1,Turquiose,Turquiose.jpg,Purple,Purple.jpg,,
,,,,,,,,,,,,,,,,,,-3,,,,,,,,,,,,,,,,,,,,,,,,,,,,,,,001,2021-12-05_23h16.52.084,jm_natural_scene_simialrity_2-12-2021,2021.2.3,MacIntel,59.99880002,5fc89209c5116c1deec89f9b,61ad71e11ddd29ccf7a27d5b,61ad727a92cbf3629b3b8389,,,-95.89691162,39.42428589,1,0,0,response7disk,1.2,-15.7097168,-14.02200317,1,0,0,rectangle,-15.7097168,-14.02200317,1,0,0,,-4,"[21,142,42,138,27,12,100,88,68,21]",-15.7097168,-14.02200317,1,0,0,0,9,9,26,1,DarkGreen,DarkGreen.jpg,LightBlue,LightBlue.jpg,,
,,,,,,,,,,,,,,,,,,-3,,,,,,,,,,,,,,,,,,,,,,,,,,,,,,,001,2021-12-05_23h16.52.084,jm_natural_scene_simialrity_2-12-2021,2021.2.3,MacIntel,59.99880002,5fc89209c5116c1deec89f9b,61ad71e11ddd29ccf7a27d5b,61ad727a92cbf3629b3b8389,,,-66.38623047,42.30758667,1,0,0,response7disk,1.4,11.24182129,-8.249664307,1,0,0,rectangle,11.24182129,-8.249664307,1,0,0,,2,"[21,142,42,138,27,12,100,88,68,21]",11.24182129,-8.249664307,1,0,0,0,10,10,62,1,LightBlue,LightBlue.jpg,LightGreen,LightGreen.jpg,,
,,,,,,,,,,,,,,,,,,-4,,,,,,,,,,,,,,,,,,,,,,,,,,,,,,,001,2021-12-05_23h16.52.084,jm_natural_scene_simialrity_2-12-2021,2021.2.3,MacIntel,59.99880002,5fc89209c5116c1deec89f9b,61ad71e11ddd29ccf7a27d5b,61ad727a92cbf3629b3b8389,,,-62.39007568,109.5816956,1,0,0,response7disk,0.9642,9.612915039,5.428833008,1,0,0,rectangle,53.85137939,-113.1619263,1,0,0,1,1,"[21,142,42,138,27,12,100,88,68,21]",9.428344727,-14.47671509,1,0,0,0,11,11,46,1,LightGreen,LightGreen.jpg,Red,Red.jpg,response3disk_3,rectangle
,,,,,,,,,,,,,,,,,,1,,,,,,,,,,,,,,,,,,,,,,,,,,,,,,,001,2021-12-05_23h16.52.084,jm_natural_scene_simialrity_2-12-2021,2021.2.3,MacIntel,59.99880002,5fc89209c5116c1deec89f9b,61ad71e11ddd29ccf7a27d5b,61ad727a92cbf3629b3b8389,,,54.58666992,-103.182373,1,0,0,response3disk,1.6827,0.989990234,-5.55380249,1,0,0,rectangle,0.989990234,-5.55380249,1,0,0,1,-2,"[21,142,42,138,27,12,100,88,68,21]",0.989990234,-5.55380249,1,0,0,0,12,12,31,1,Turquiose,Turquiose.jpg,LightBlue,LightBlue.jpg,,
,,,,,,,,,,,,,,,,,,-2,,,,,,,,,,,,,,,,,,,,,,,,,,,,,,,001,2021-12-05_23h16.52.084,jm_natural_scene_simialrity_2-12-2021,2021.2.3,MacIntel,59.99880002,5fc89209c5116c1deec89f9b,61ad71e11ddd29ccf7a27d5b,61ad727a92cbf3629b3b8389,,,-105.7544556,-42.30581665,1,0,0,response5disk,2.6664,7.20880127,3.97442627,1,0,0,rectangle,7.20880127,3.97442627,1,0,0,1,2,"[21,142,42,138,27,12,100,88,68,21]",7.20880127,3.97442627,1,0,0,0,13,13,63,1,DarkBlue,DarkBlue.jpg,LightGreen,LightGreen.jpg,,
,,,,,,,,,,,,,,,,,,-4,,,,,,,,,,,,,,,,,,,,,,,,,,,,,,,001,2021-12-05_23h16.52.084,jm_natural_scene_simialrity_2-12-2021,2021.2.3,MacIntel,59.99880002,5fc89209c5116c1deec89f9b,61ad71e11ddd29ccf7a27d5b,61ad727a92cbf3629b3b8389,,,-85.94500732,116.0199585,1,0,0,response7disk,1.017,-4.369750977,5.717041016,1,0,0,rectangle,-4.369750977,5.717041016,1,0,0,1,-1,"[21,142,42,138,27,12,100,88,68,21]",-4.369750977,5.717041016,1,0,0,0,14,14,47,1,DarkGreen,DarkGreen.jpg,Red,Red.jpg,,
,,,,,,,,,,,,,,,,,,-4,,,,,,,,,,,,,,,,,,,,,,,,,,,,,,,001,2021-12-05_23h16.52.084,jm_natural_scene_simialrity_2-12-2021,2021.2.3,MacIntel,59.99880002,5fc89209c5116c1deec89f9b,61ad71e11ddd29ccf7a27d5b,61ad727a92cbf3629b3b8389,,,-59.26959229,80.36691284,1,0,0,response7disk,1.1014,-21.20458984,10.46401978,1,0,0,rectangle,-21.20458984,10.46401978,1,0,0,1,3,"[21,142,42,138,27,12,100,88,68,21]",-21.20458984,10.46401978,1,0,0,0,15,15,3,1,Red,Red.jpg,DarkGreen,DarkGreen.jpg,,
,,,,,,,,,,,,,,,,,,3,,,,,,,,,,,,,,,,,,,,,,,,,,,,,,,001,2021-12-05_23h16.52.084,jm_natural_scene_simialrity_2-12-2021,2021.2.3,MacIntel,59.99880002,5fc89209c5116c1deec89f9b,61ad71e11ddd29ccf7a27d5b,61ad727a92cbf3629b3b8389,,,76.35211182,69.29104614,1,0,0,response1disk,1.0842,-12.12573242,-21.40640259,1,0,0,rectangle,-12.12573242,-21.40640259,1,0,0,1,1,"[21,142,42,138,27,12,100,88,68,21]",-12.12573242,-21.40640259,1,0,0,0,16,16,18,1,LightGreen,LightGreen.jpg,DarkGreen,DarkGreen.jpg,,
,,,,,,,,,,,,,,,,,,-4,,,,,,,,,,,,,,,,,,,,,,,,,,,,,,,001,2021-12-05_23h16.52.084,jm_natural_scene_simialrity_2-12-2021,2021.2.3,MacIntel,59.99880002,5fc89209c5116c1deec89f9b,61ad71e11ddd29ccf7a27d5b,61ad727a92cbf3629b3b8389,,,-73.515625,129.2304382,1,0,0,response7disk,0.9661,8.085144043,4.494995117,1,0,0,rectangle,8.085144043,4.494995117,1,0,0,1,-4,"[21,142,42,138,27,12,100,88,68,21]",8.085144043,4.494995117,1,0,0,0,17,17,10,1,Yellow,Yellow.jpg,LightGreen,LightGreen.jpg,,
,,,,,,,,,,,,,,,,,,-4,,,,,,,,,,,,,,,,,,,,,,,,,,,,,,,001,2021-12-05_23h16.52.084,jm_natural_scene_simialrity_2-12-2021,2021.2.3,MacIntel,59.99880002,5fc89209c5116c1deec89f9b,61ad71e11ddd29ccf7a27d5b,61ad727a92cbf3629b3b8389,,,-59.11663818,75.23739624,1,0,0,response7disk,1.1672,0.774597168,4.166900635,1,0,0,rectangle,0.774597168,4.166900635,1,0,0,1,2,"[21,142,42,138,27,12,100,88,68,21]",0.774597168,4.166900635,1,0,0,0,18,18,13,1,Yellow,Yellow.jpg,LightBlue,LightBlue.jpg,,
,,,,,,,,,,,,,,,,,,-3,,,,,,,,,,,,,,,,,,,,,,,,,,,,,,,001,2021-12-05_23h16.52.084,jm_natural_scene_simialrity_2-12-2021,2021.2.3,MacIntel,59.99880002,5fc89209c5116c1deec89f9b,61ad71e11ddd29ccf7a27d5b,61ad727a92cbf3629b3b8389,,,-80.92230225,20.9805603,1,0,0,response7disk,1.6151,13.80194092,3.161315918,1,0,0,rectangle,13.80194092,3.161315918,1,0,0,1,3,"[21,142,42,138,27,12,100,88,68,21]",13.80194092,3.161315918,1,0,0,0,19,19,66,1,Turquiose,Turquiose.jpg,DarkGreen,DarkGreen.jpg,,
,,,,,,,,,,,,,,,,,,-3,,,,,,,,,,,,,,,,,,,,,,,,,,,,,,,001,2021-12-05_23h16.52.084,jm_natural_scene_simialrity_2-12-2021,2021.2.3,MacIntel,59.99880002,5fc89209c5116c1deec89f9b,61ad71e11ddd29ccf7a27d5b,61ad727a92cbf3629b3b8389,,,-96.27978516,29.39050293,1,0,0,response7disk,0.9159,0.086120605,-1.747680664,1,0,0,rectangle,-60.57989502,-116.7614746,1,0,0,-1,-1,"[21,142,42,138,27,12,100,88,68,21]",-12.33013916,-6.970428467,1,0,0,0,20,20,61,1,Turquiose,Turquiose.jpg,LightGreen,LightGreen.jpg,response5disk_3,rectangle
,,,,,,,,,,,,,,,,,,3,,,,,,,,,,,,,,,,,,,,,,,,,,,,,,,001,2021-12-05_23h16.52.084,jm_natural_scene_simialrity_2-12-2021,2021.2.3,MacIntel,59.99880002,5fc89209c5116c1deec89f9b,61ad71e11ddd29ccf7a27d5b,61ad727a92cbf3629b3b8389,,,68.2487793,32.90441895,1,0,0,response1disk,1.1661,0.001525879,6.171569824,1,0,0,rectangle,0.001525879,6.171569824,1,0,0,-1,-4,"[21,142,42,138,27,12,100,88,68,21]",0.001525879,6.171569824,1,0,0,0,21,21,58,1,Pink,Pink.jpg,Yellow,Yellow.jpg,,
,,,,,,,,,,,,,,,,,,3,,,,,,,,,,,,,,,,,,,,,,,,,,,,,,,001,2021-12-05_23h16.52.084,jm_natural_scene_simialrity_2-12-2021,2021.2.3,MacIntel,59.99880002,5fc89209c5116c1deec89f9b,61ad71e11ddd29ccf7a27d5b,61ad727a92cbf3629b3b8389,,,110.8875732,44.62731934,1,0,0,response1disk,1.3317,2.620788574,-11.01513672,1,0,0,rectangle,2.620788574,-11.01513672,1,0,0,-1,-2,"[21,142,42,138,27,12,100,88,68,21]",2.620788574,-11.01513672,1,0,0,0,22,22,36,1,LightBlue,LightBlue.jpg,DarkBlue,DarkBlue.jpg,,
,,,,,,,,,,,,,,,,,,-3,,,,,,,,,,,,,,,,,,,,,,,,,,,,,,,001,2021-12-05_23h16.52.084,jm_natural_scene_simialrity_2-12-2021,2021.2.3,MacIntel,59.99880002,5fc89209c5116c1deec89f9b,61ad71e11ddd29ccf7a27d5b,61ad727a92cbf3629b3b8389,,,-79.53027344,50.64144897,1,0,0,response7disk,2.0162,-6.115722656,-6.427032471,1,0,0,rectangle,-6.115722656,-6.427032471,1,0,0,-1,-2,"[21,142,42,138,27,12,100,88,68,21]",-6.115722656,-6.427032471,1,0,0,0,23,23,53,1,LightGreen,LightGreen.jpg,Yellow,Yellow.jpg,,
,,,,,,,,,,,,,,,,,,-2,,,,,,,,,,,,,,,,,,,,,,,,,,,,,,,001,2021-12-05_23h16.52.084,jm_natural_scene_simialrity_2-12-2021,2021.2.3,MacIntel,59.99880002,5fc89209c5116c1deec89f9b,61ad71e11ddd29ccf7a27d5b,61ad727a92cbf3629b3b8389,,,-102.6650391,-44.28424072,1,0,0,response5disk,1.2679,-20.3684082,-11.99841309,1,0,0,rectangle,-20.3684082,-11.99841309,1,0,0,-1,-4,"[21,142,42,138,27,12,100,88,68,21]",-20.3684082,-11.99841309,1,0,0,0,24,24,76,1,Pink,Pink.jpg,LightBlue,LightBlue.jpg,,
,,,,,,,,,,,,,,,,,,-3,,,,,,,,,,,,,,,,,,,,,,,,,,,,,,,001,2021-12-05_23h16.52.084,jm_natural_scene_simialrity_2-12-2021,2021.2.3,MacIntel,59.99880002,5fc89209c5116c1deec89f9b,61ad71e11ddd29ccf7a27d5b,61ad727a92cbf3629b3b8389,,,-108.4035645,82.05859375,1,0,0,response7disk,1.2332,0.963500977,-0.556793213,1,0,0,rectangle,0.963500977,-0.556793213,1,0,0,-1,-1,"[21,142,42,138,27,12,100,88,68,21]",0.963500977,-0.556793213,1,0,0,0,25,25,28,1,DarkGreen,DarkGreen.jpg,Pink,Pink.jpg,,
,,,,,,,,,,,,,,,,,,2,,,,,,,,,,,,,,,,,,,,,,,,,,,,,,,001,2021-12-05_23h16.52.084,jm_natural_scene_simialrity_2-12-2021,2021.2.3,MacIntel,59.99880002,5fc89209c5116c1deec89f9b,61ad71e11ddd29ccf7a27d5b,61ad727a92cbf3629b3b8389,,,78.79656982,-71.4486084,1,0,0,response3disk,2.4187,2.021484375,7.909118652,1,0,0,rectangle,-49.5111084,102.232605,1,0,0,-4,-4,"[21,142,42,138,27,12,100,88,68,21]",2.737365723,-16.79425049,1,0,0,0,26,26,52,1,Purple,Purple.jpg,Red,Red.jpg,response7disk_3,rectangle
,,,,,,,,,,,,,,,,,,-3,,,,,,,,,,,,,,,,,,,,,,,,,,,,,,,001,2021-12-05_23h16.52.084,jm_natural_scene_simialrity_2-12-2021,2021.2.3,MacIntel,59.99880002,5fc89209c5116c1deec89f9b,61ad71e11ddd29ccf7a27d5b,61ad727a92cbf3629b3b8389,,,-81.84954834,24.212677,1,0,0,response7disk,1.0502,-3.620422363,-8.127532959,1,0,0,rectangle,-3.620422363,-8.127532959,1,0,0,-4,-3,"[21,142,42,138,27,12,100,88,68,21]",-3.620422363,-8.127532959,1,0,0,0,27,27,12,1,Yellow,Yellow.jpg,Turquiose,Turquiose.jpg,,
,,,,,,,,,,,,,,,,,,4,,,,,,,,,,,,,,,,,,,,,,,,,,,,,,,001,2021-12-05_23h16.52.084,jm_natural_scene_simialrity_2-12-2021,2021.2.3,MacIntel,59.99880002,5fc89209c5116c1deec89f9b,61ad71e11ddd29ccf7a27d5b,61ad727a92cbf3629b3b8389,,,52.13378906,90.82873535,1,0,0,response1disk,0.8833,-3.969360352,-11.44454956,1,0,0,rectangle,-3.969360352,-11.44454956,1,0,0,-4,3,"[21,142,42,138,27,12,100,88,68,21]",-3.969360352,-11.44454956,1,0,0,0,28,28,17,1,LightGreen,LightGreen.jpg,LightGreen,LightGreen.jpg,,
,,,,,,,,,,,,,,,,,,-2,,,,,,,,,,,,,,,,,,,,,,,,,,,,,,,001,2021-12-05_23h16.52.084,jm_natural_scene_simialrity_2-12-2021,2021.2.3,MacIntel,59.99880002,5fc89209c5116c1deec89f9b,61ad71e11ddd29ccf7a27d5b,61ad727a92cbf3629b3b8389,,,-110.0562134,-35.68026733,1,0,0,response5disk,1.4816,-4.577392578,-6.797088623,1,0,0,rectangle,-4.577392578,-6.797088623,1,0,0,-4,-1,"[21,142,42,138,27,12,100,88,68,21]",-4.577392578,-6.797088623,1,0,0,0,29,29,55,1,Turquiose,Turquiose.jpg,Yellow,Yellow.jpg,,
,,,,,,,,,,,,,,,,,,-2,,,,,,,,,,,,,,,,,,,,,,,,,,,,,,,001,2021-12-05_23h16.52.084,jm_natural_scene_simialrity_2-12-2021,2021.2.3,MacIntel,59.99880002,5fc89209c5116c1deec89f9b,61ad71e11ddd29ccf7a27d5b,61ad727a92cbf3629b3b8389,,,-85.4175415,-39.47814941,1,0,0,response5disk,0.8481,4.18157959,-17.22616577,1,0,0,rectangle,4.18157959,-17.22616577,1,0,0,-4,1,"[21,142,42,138,27,12,100,88,68,21]",4.18157959,-17.22616577,1,0,0,0,30,30,6,1,Red,Red.jpg,DarkBlue,DarkBlue.jpg,,
,,,,,,,,,,,,,,,,,,-3,,,,,,,,,,,,,,,,,,,,,,,,,,,,,,,001,2021-12-05_23h16.52.084,jm_natural_scene_simialrity_2-12-2021,2021.2.3,MacIntel,59.99880002,5fc89209c5116c1deec89f9b,61ad71e11ddd29ccf7a27d5b,61ad727a92cbf3629b3b8389,,,-68.58343506,40.70941162,1,0,0,response7disk,1.0495,-8.781494141,-2.792816162,1,0,0,rectangle,-8.781494141,-2.792816162,1,0,0,-4,-3,"[21,142,42,138,27,12,100,88,68,21]",-8.781494141,-2.792816162,1,0,0,0,31,31,73,1,Pink,Pink.jpg,Turquiose,Turquiose.jpg,,
,,,,,,,,,,,,,,,,,,1,,,,,,,,,,,,,,,,,,,,,,,,,,,,,,,001,2021-12-05_23h16.52.084,jm_natural_scene_simialrity_2-12-2021,2021.2.3,MacIntel,59.99880002,5fc89209c5116c1deec89f9b,61ad71e11ddd29ccf7a27d5b,61ad727a92cbf3629b3b8389,,,49.74255371,-104.161377,1,0,0,response3disk,1.8171,-4.384338379,-12.88040161,1,0,0,rectangle,-4.384338379,-12.88040161,1,0,0,-4,1,"[21,142,42,138,27,12,100,88,68,21]",-4.384338379,-12.88040161,1,0,0,0,32,32,56,1,LightBlue,LightBlue.jpg,Yellow,Yellow.jpg,,
,,,,,,,,,,,,,,,,,,-3,,,,,,,,,,,,,,,,,,,,,,,,,,,,,,,001,2021-12-05_23h16.52.084,jm_natural_scene_simialrity_2-12-2021,2021.2.3,MacIntel,59.99880002,5fc89209c5116c1deec89f9b,61ad71e11ddd29ccf7a27d5b,61ad727a92cbf3629b3b8389,,,-98.50073242,20.80462646,1,0,0,response7disk,1.6149,-0.156555176,1.400268555,1,0,0,rectangle,-0.156555176,1.400268555,1,0,0,-4,-1,"[21,142,42,138,27,12,100,88,68,21]",-0.156555176,1.400268555,1,0,0,0,33,33,70,1,Purple,Purple.jpg,DarkGreen,DarkGreen.jpg,,
,,,,,,,,,,,,,,,,,,4,,,,,,,,,,,,,,,,,,,,,,,,,,,,,,,001,2021-12-05_23h16.52.084,jm_natural_scene_simialrity_2-12-2021,2021.2.3,MacIntel,59.99880002,5fc89209c5116c1deec89f9b,61ad71e11ddd29ccf7a27d5b,61ad727a92cbf3629b3b8389,,,47.75689697,92.74060059,1,0,0,response1disk,0.8504,8.20703125,-3.472412109,1,0,0,rectangle,8.20703125,-3.472412109,1,0,0,-4,1,"[21,142,42,138,27,12,100,88,68,21]",8.20703125,-3.472412109,1,0,0,0,34,34,9,1,Yellow,Yellow.jpg,Yellow,Yellow.jpg,,
,,,,,,,,,,,,,,,,,,-4,,,,,,,,,,,,,,,,,,,,,,,,,,,,,,,001,2021-12-05_23h16.52.084,jm_natural_scene_simialrity_2-12-2021,2021.2.3,MacIntel,59.99880002,5fc89209c5116c1deec89f9b,61ad71e11ddd29ccf7a27d5b,61ad727a92cbf3629b3b8389,,,-71.83343506,73.52896118,1,0,0,response7disk,1.3248,-0.319763184,-0.011444092,1,0,0,rectangle,-0.319763184,-0.011444092,1,0,0,-4,-1,"[21,142,42,138,27,12,100,88,68,21]",-0.319763184,-0.011444092,1,0,0,0,35,35,2,1,Red,Red.jpg,LightGreen,LightGreen.jpg,,
,,,,,,,,,,,,,,,,,,-3,,,,,,,,,,,,,,,,,,,,,,,,,,,,,,,001,2021-12-05_23h16.52.084,jm_natural_scene_simialrity_2-12-2021,2021.2.3,MacIntel,59.99880002,5fc89209c5116c1deec89f9b,61ad71e11ddd29ccf7a27d5b,61ad727a92cbf3629b3b8389,,,-132.1210938,40.38327026,1,0,0,response7disk,1.0502,-18.47320557,21.84133911,1,0,0,rectangle,-18.47320557,21.84133911,1,0,0,-4,-2,"[21,142,42,138,27,12,100,88,68,21]",-18.47320557,21.84133911,1,0,0,0,36,36,4,1,Red,Red.jpg,Turquiose,Turquiose.jpg,,
,,,,,,,,,,,,,,,,,,-2,,,,,,,,,,,,,,,,,,,,,,,,,,,,,,,001,2021-12-05_23h16.52.084,jm_natural_scene_simialrity_2-12-2021,2021.2.3,MacIntel,59.99880002,5fc89209c5116c1deec89f9b,61ad71e11ddd29ccf7a27d5b,61ad727a92cbf3629b3b8389,,,-93.20257568,-35.96505737,1,0,0,response5disk,1.7845,9.75402832,-3.446929932,1,0,0,rectangle,9.75402832,-3.446929932,1,0,0,-4,-3,"[21,142,42,138,27,12,100,88,68,21]",9.75402832,-3.446929932,1,0,0,0,37,37,71,1,LightBlue,LightBlue.jpg,Turquiose,Turquiose.jpg,,
,,,,,,,,,,,,,,,,,,2,,,,,,,,,,,,,,,,,,,,,,,,,,,,,,,001,2021-12-05_23h16.52.084,jm_natural_scene_simialrity_2-12-2021,2021.2.3,MacIntel,59.99880002,5fc89209c5116c1deec89f9b,61ad71e11ddd29ccf7a27d5b,61ad727a92cbf3629b3b8389,,,108.5328979,-49.17636108,1,0,0,response3disk,2.5828,-4.853942871,2.002105713,1,0,0,rectangle,-4.853942871,2.002105713,1,0,0,-4,-3,"[21,142,42,138,27,12,100,88,68,21]",-4.853942871,2.002105713,1,0,0,0,38,38,15,1,Yellow,Yellow.jpg,Pink,Pink.jpg,,
,,,,,,,,,,,,,,,,,,2,,,,,,,,,,,,,,,,,,,,,,,,,,,,,,,001,2021-12-05_23h16.52.084,jm_natural_scene_simialrity_2-12-2021,2021.2.3,MacIntel,59.99880002,5fc89209c5116c1deec89f9b,61ad71e11ddd29ccf7a27d5b,61ad727a92cbf3629b3b8389,,,106.5253296,-34.06018066,1,0,0,response3disk,1.1346,-22.30865479,-2.531677246,1,0,0,rectangle,-22.30865479,-2.531677246,1,0,0,-4,-3,"[21,142,42,138,27,12,100,88,68,21]",-22.30865479,-2.531677246,1,0,0,0,39,39,59,1,Purple,Purple.jpg,Yellow,Yellow.jpg,,
,,,,,,,,,,,,,,,,,,4,,,,,,,,,,,,,,,,,,,,,,,,,,,,,,,001,2021-12-05_23h16.52.084,jm_natural_scene_simialrity_2-12-2021,2021.2.3,MacIntel,59.99880002,5fc89209c5116c1deec89f9b,61ad71e11ddd29ccf7a27d5b,61ad727a92cbf3629b3b8389,,,20.37420654,72.80993652,1,0,0,response1disk,0.9346,12.15740967,0.627410889,1,0,0,rectangle,12.15740967,0.627410889,1,0,0,-4,-3,"[21,142,42,138,27,12,100,88,68,21]",12.15740967,0.627410889,1,0,0,0,40,40,42,1,Pink,Pink.jpg,Pink,Pink.jpg,,
,,,,,,,,,,,,,,,,,,3,,,,,,,,,,,,,,,,,,,,,,,,,,,,,,,001,2021-12-05_23h16.52.084,jm_natural_scene_simialrity_2-12-2021,2021.2.3,MacIntel,59.99880002,5fc89209c5116c1deec89f9b,61ad71e11ddd29ccf7a27d5b,61ad727a92cbf3629b3b8389,,,106.1499023,31.27868652,1,0,0,response1disk,0.8991,21.10821533,1.484527588,1,0,0,rectangle,-100.9767456,45.5630188,1,0,0,-3,-3,"[21,142,42,138,27,12,100,88,68,21]",-3.771362305,14.26580811,1,0,0,0,41,41,16,1,Yellow,Yellow.jpg,Purple,Purple.jpg,response7disk_3,rectangle
,,,,,,,,,,,,,,,,,,3,,,,,,,,,,,,,,,,,,,,,,,,,,,,,,,001,2021-12-05_23h16.52.084,jm_natural_scene_simialrity_2-12-2021,2021.2.3,MacIntel,59.99880002,5fc89209c5116c1deec89f9b,61ad71e11ddd29ccf7a27d5b,61ad727a92cbf3629b3b8389,,,98.48040771,37.70272827,1,0,0,response1disk,1.3166,-16.09136963,-12.65945435,1,0,0,rectangle,-16.09136963,-12.65945435,1,0,0,-3,-4,"[21,142,42,138,27,12,100,88,68,21]",-16.09136963,-12.65945435,1,0,0,0,42,42,38,1,LightBlue,LightBlue.jpg,Purple,Purple.jpg,,
,,,,,,,,,,,,,,,,,,-2,,,,,,,,,,,,,,,,,,,,,,,,,,,,,,,001,2021-12-05_23h16.52.084,jm_natural_scene_simialrity_2-12-2021,2021.2.3,MacIntel,59.99880002,5fc89209c5116c1deec89f9b,61ad71e11ddd29ccf7a27d5b,61ad727a92cbf3629b3b8389,,,-99.27050781,-56.55471802,1,0,0,response5disk,1.1001,-0.455322266,-9.439331055,1,0,0,rectangle,-0.455322266,-9.439331055,1,0,0,-3,3,"[21,142,42,138,27,12,100,88,68,21]",-0.455322266,-9.439331055,1,0,0,0,43,43,25,1,DarkGreen,DarkGreen.jpg,Turquiose,Turquiose.jpg,,
,,,,,,,,,,,,,,,,,,2,,,,,,,,,,,,,,,,,,,,,,,,,,,,,,,001,2021-12-05_23h16.52.084,jm_natural_scene_simialrity_2-12-2021,2021.2.3,MacIntel,59.99880002,5fc89209c5116c1deec89f9b,61ad71e11ddd29ccf7a27d5b,61ad727a92cbf3629b3b8389,,,84.74676514,-36.93130493,1,0,0,response3disk,1.3501,12.79077148,0.08694458,1,0,0,rectangle,12.79077148,0.08694458,1,0,0,-3,1,"[21,142,42,138,27,12,100,88,68,21]",12.79077148,0.08694458,1,0,0,0,44,44,8,1,Red,Red.jpg,Purple,Purple.jpg,,
,,,,,,,,,,,,,,,,,,2,,,,,,,,,,,,,,,,,,,,,,,,,,,,,,,001,2021-12-05_23h16.52.084,jm_natural_scene_simialrity_2-12-2021,2021.2.3,MacIntel,59.99880002,5fc89209c5116c1deec89f9b,61ad71e11ddd29ccf7a27d5b,61ad727a92cbf3629b3b8389,,,74.42382813,-63.28552246,1,0,0,response3disk,1.1992,3.420593262,-16.70913696,1,0,0,rectangle,3.420593262,-16.70913696,1,0,0,-3,-4,"[21,142,42,138,27,12,100,88,68,21]",3.420593262,-16.70913696,1,0,0,0,45,45,50,1,DarkBlue,DarkBlue.jpg,Red,Red.jpg,,
,,,,,,,,,,,,,,,,,,3,,,,,,,,,,,,,,,,,,,,,,,,,,,,,,,001,2021-12-05_23h16.52.084,jm_natural_scene_simialrity_2-12-2021,2021.2.3,MacIntel,59.99880002,5fc89209c5116c1deec89f9b,61ad71e11ddd29ccf7a27d5b,61ad727a92cbf3629b3b8389,,,89.03057861,32.01022339,1,0,0,response1disk,0.8171,-9.058837891,-18.59020996,1,0,0,rectangle,-9.058837891,-18.59020996,1,0,0,-3,1,"[21,142,42,138,27,12,100,88,68,21]",-9.058837891,-18.59020996,1,0,0,0,46,46,1,1,Red,Red.jpg,Yellow,Yellow.jpg,,
,,,,,,,,,,,,,,,,,,-2,,,,,,,,,,,,,,,,,,,,,,,,,,,,,,,001,2021-12-05_23h16.52.084,jm_natural_scene_simialrity_2-12-2021,2021.2.3,MacIntel,59.99880002,5fc89209c5116c1deec89f9b,61ad71e11ddd29ccf7a27d5b,61ad727a92cbf3629b3b8389,,,-102.9309082,-34.31289673,1,0,0,response5disk,1.2501,-12.59729004,5.423400879,1,0,0,rectangle,-12.59729004,5.423400879,1,0,0,-3,2,"[21,142,42,138,27,12,100,88,68,21]",-12.59729004,5.423400879,1,0,0,0,47,47,20,1,LightGreen,LightGreen.jpg,LightBlue,LightBlue.jpg,,
,,,,,,,,,,,,,,,,,,-2,,,,,,,,,,,,,,,,,,,,,,,,,,,,,,,001,2021-12-05_23h16.52.084,jm_natural_scene_simialrity_2-12-2021,2021.2.3,MacIntel,59.99880002,5fc89209c5116c1deec89f9b,61ad71e11ddd29ccf7a27d5b,61ad727a92cbf3629b3b8389,,,-88.83288574,-32.34875488,1,0,0,response5disk,0.9654,5.431945801,5.682617188,1,0,0,rectangle,5.431945801,5.682617188,1,0,0,-3,3,"[21,142,42,138,27,12,100,88,68,21]",5.431945801,5.682617188,1,0,0,0,48,48,68,1,DarkBlue,DarkBlue.jpg,DarkGreen,DarkGreen.jpg,,
,,,,,,,,,,,,,,,,,,-2,,,,,,,,,,,,,,,,,,,,,,,,,,,,,,,001,2021-12-05_23h16.52.084,jm_natural_scene_simialrity_2-12-2021,2021.2.3,MacIntel,59.99880002,5fc89209c5116c1deec89f9b,61ad71e11ddd29ccf7a27d5b,61ad727a92cbf3629b3b8389,,,-109.6656494,-47.67245483,1,0,0,response5disk,0.9991,-2.615478516,3.965759277,1,0,0,rectangle,-2.615478516,3.965759277,1,0,0,-3,1,"[21,142,42,138,27,12,100,88,68,21]",-2.615478516,3.965759277,1,0,0,0,49,49,22,1,LightGreen,LightGreen.jpg,Pink,Pink.jpg,,
,,,,,,,,,,,,,,,,,,-3,,,,,,,,,,,,,,,,,,,,,,,,,,,,,,,001,2021-12-05_23h16.52.084,jm_natural_scene_simialrity_2-12-2021,2021.2.3,MacIntel,59.99880002,5fc89209c5116c1deec89f9b,61ad71e11ddd29ccf7a27d5b,61ad727a92cbf3629b3b8389,,,-94.89233398,39.70379639,1,0,0,response7disk,0.9318,0.103027344,9.797851563,1,0,0,rectangle,0.103027344,9.797851563,1,0,0,-3,-3,"[21,142,42,138,27,12,100,88,68,21]",0.103027344,9.797851563,1,0,0,0,50,50,33,1,Turquiose,Turquiose.jpg,Pink,Pink.jpg,,
,,,,,,,,,,,,,,,,,,4,,,,,,,,,,,,,,,,,,,,,,,,,,,,,,,001,2021-12-05_23h16.52.084,jm_natural_scene_simialrity_2-12-2021,2021.2.3,MacIntel,59.99880002,5fc89209c5116c1deec89f9b,61ad71e11ddd29ccf7a27d5b,61ad727a92cbf3629b3b8389,,,72.24035645,91.87582397,1,0,0,response1disk,1.0007,3.880126953,-18.05249023,1,0,0,rectangle,3.880126953,-18.05249023,1,0,0,-3,-3,"[21,142,42,138,27,12,100,88,68,21]",3.880126953,-18.05249023,1,0,0,0,51,51,24,1,DarkGreen,DarkGreen.jpg,DarkGreen,DarkGreen.jpg,,
,,,,,,,,,,,,,,,,,,-4,,,,,,,,,,,,,,,,,,,,,,,,,,,,,,,001,2021-12-05_23h16.52.084,jm_natural_scene_simialrity_2-12-2021,2021.2.3,MacIntel,59.99880002,5fc89209c5116c1deec89f9b,61ad71e11ddd29ccf7a27d5b,61ad727a92cbf3629b3b8389,,,-17.25817871,94.11785889,1,0,0,response7disk,1.2327,5.225585938,-4.442230225,1,0,0,rectangle,5.225585938,-4.442230225,1,0,0,-3,-4,"[21,142,42,138,27,12,100,88,68,21]",5.225585938,-4.442230225,1,0,0,0,52,52,40,1,DarkBlue,DarkBlue.jpg,Pink,Pink.jpg,,
,,,,,,,,,,,,,,,,,,-4,,,,,,,,,,,,,,,,,,,,,,,,,,,,,,,001,2021-12-05_23h16.52.084,jm_natural_scene_simialrity_2-12-2021,2021.2.3,MacIntel,59.99880002,5fc89209c5116c1deec89f9b,61ad71e11ddd29ccf7a27d5b,61ad727a92cbf3629b3b8389,,,-43.24530029,72.72470093,1,0,0,response7disk,1.3657,-6.328979492,-9.253173828,1,0,0,rectangle,-6.328979492,-9.253173828,1,0,0,-3,-3,"[21,142,42,138,27,12,100,88,68,21]",-6.328979492,-9.253173828,1,0,0,0,53,53,64,1,Pink,Pink.jpg,LightGreen,LightGreen.jpg,,
,,,,,,,,,,,,,,,,,,4,,,,,,,,,,,,,,,,,,,,,,,,,,,,,,,001,2021-12-05_23h16.52.084,jm_natural_scene_simialrity_2-12-2021,2021.2.3,MacIntel,59.99880002,5fc89209c5116c1deec89f9b,61ad71e11ddd29ccf7a27d5b,61ad727a92cbf3629b3b8389,,,54.51361084,117.7402039,1,0,0,response1disk,0.9509,-10.83770752,-3.0105896,1,0,0,rectangle,-10.83770752,-3.0105896,1,0,0,-3,2,"[21,142,42,138,27,12,100,88,68,21]",-10.83770752,-3.0105896,1,0,0,0,54,54,39,1,DarkBlue,DarkBlue.jpg,DarkBlue,DarkBlue.jpg,,
,,,,,,,,,,,,,,,,,,4,,,,,,,,,,,,,,,,,,,,,,,,,,,,,,,001,2021-12-05_23h16.52.084,jm_natural_scene_simialrity_2-12-2021,2021.2.3,MacIntel,59.99880002,5fc89209c5116c1deec89f9b,61ad71e11ddd29ccf7a27d5b,61ad727a92cbf3629b3b8389,,,60.81109619,97.47525024,1,0,0,response1disk,0.9339,10.05792236,-2.473907471,1,0,0,rectangle,10.05792236,-2.473907471,1,0,0,-3,-4,"[21,142,42,138,27,12,100,88,68,21]",10.05792236,-2.473907471,1,0,0,0,55,55,51,1,Pink,Pink.jpg,Red,Red.jpg,,
,,,,,,,,,,,,,,,,,,3,,,,,,,,,,,,,,,,,,,,,,,,,,,,,,,001,2021-12-05_23h16.52.084,jm_natural_scene_simialrity_2-12-2021,2021.2.3,MacIntel,59.99880002,5fc89209c5116c1deec89f9b,61ad71e11ddd29ccf7a27d5b,61ad727a92cbf3629b3b8389,,,87.13885498,53.19894409,1,0,0,response1disk,0.9323,1.138305664,-12.9276123,1,0,0,rectangle,1.138305664,-12.9276123,1,0,0,-3,3,"[21,142,42,138,27,12,100,88,68,21]",1.138305664,-12.9276123,1,0,0,0,56,56,77,1,Purple,Purple.jpg,LightBlue,LightBlue.jpg,,
,,,,,,,,,,,,,,,,,,-2,,,,,,,,,,,,,,,,,,,,,,,,,,,,,,,001,2021-12-05_23h16.52.084,jm_natural_scene_simialrity_2-12-2021,2021.2.3,MacIntel,59.99880002,5fc89209c5116c1deec89f9b,61ad71e11ddd29ccf7a27d5b,61ad727a92cbf3629b3b8389,,,-99.89941406,-48.04367065,1,0,0,response5disk,1.1495,6.56842041,0.707611084,1,0,0,rectangle,6.56842041,0.707611084,1,0,0,-3,-2,"[21,142,42,138,27,12,100,88,68,21]",6.56842041,0.707611084,1,0,0,0,57,57,29,1,DarkGreen,DarkGreen.jpg,Purple,Purple.jpg,,
,,,,,,,,,,,,,,,,,,-3,,,,,,,,,,,,,,,,,,,,,,,,,,,,,,,001,2021-12-05_23h16.52.084,jm_natural_scene_simialrity_2-12-2021,2021.2.3,MacIntel,59.99880002,5fc89209c5116c1deec89f9b,61ad71e11ddd29ccf7a27d5b,61ad727a92cbf3629b3b8389,,,-97.21966553,54.15872192,1,0,0,response7disk,1.0837,5.569335938,-9.763397217,1,0,0,rectangle,5.569335938,-9.763397217,1,0,0,-3,2,"[21,142,42,138,27,12,100,88,68,21]",5.569335938,-9.763397217,1,0,0,0,58,58,11,1,Yellow,Yellow.jpg,DarkGreen,DarkGreen.jpg,,
,,,,,,,,,,,,,,,,,,1,,,,,,,,,,,,,,,,,,,,,,,,,,,,,,,001,2021-12-05_23h16.52.084,jm_natural_scene_simialrity_2-12-2021,2021.2.3,MacIntel,59.99880002,5fc89209c5116c1deec89f9b,61ad71e11ddd29ccf7a27d5b,61ad727a92cbf3629b3b8389,,,32.59375,-111.8674316,1,0,0,response3disk,2.0519,6.6640625,1.727630615,1,0,0,rectangle,6.6640625,1.727630615,1,0,0,-3,-3,"[21,142,42,138,27,12,100,88,68,21]",6.6640625,1.727630615,1,0,0,0,59,59,19,1,LightGreen,LightGreen.jpg,Turquiose,Turquiose.jpg,,
,,,,,,,,,,,,,,,,,,-2,,,,,,,,,,,,,,,,,,,,,,,,,,,,,,,001,2021-12-05_23h16.52.084,jm_natural_scene_simialrity_2-12-2021,2021.2.3,MacIntel,59.99880002,5fc89209c5116c1deec89f9b,61ad71e11ddd29ccf7a27d5b,61ad727a92cbf3629b3b8389,,,-93.05303955,-43.59973145,1,0,0,response5disk,1.7503,1.735656738,-6.586181641,1,0,0,rectangle,1.735656738,-6.586181641,1,0,0,-3,1,"[21,142,42,138,27,12,100,88,68,21]",1.735656738,-6.586181641,1,0,0,0,60,60,37,1,LightBlue,LightBlue.jpg,Pink,Pink.jpg,,
,,,,,,,,,,,,,,,,,,4,,,,,,,,,,,,,,,,,,,,,,,,,,,,,,,001,2021-12-05_23h16.52.084,jm_natural_scene_simialrity_2-12-2021,2021.2.3,MacIntel,59.99880002,5fc89209c5116c1deec89f9b,61ad71e11ddd29ccf7a27d5b,61ad727a92cbf3629b3b8389,,,43.70623779,93.85855103,1,0,0,response1disk,0.9189,-4.288391113,-8.436096191,1,0,0,rectangle,-4.288391113,-8.436096191,1,0,0,-3,-3,"[21,142,42,138,27,12,100,88,68,21]",-4.288391113,-8.436096191,1,0,0,0,61,61,0,1,Red,Red.jpg,Red,Red.jpg,,
,,,,,,,,,,,,,,,,,,-3,,,,,,,,,,,,,,,,,,,,,,,,,,,,,,,001,2021-12-05_23h16.52.084,jm_natural_scene_simialrity_2-12-2021,2021.2.3,MacIntel,59.99880002,5fc89209c5116c1deec89f9b,61ad71e11ddd29ccf7a27d5b,61ad727a92cbf3629b3b8389,,,-98.48095703,46.01983643,1,0,0,response7disk,1.7997,-8.650085449,-7.384094238,1,0,0,rectangle,-8.650085449,-7.384094238,1,0,0,-3,2,"[21,142,42,138,27,12,100,88,68,21]",-8.650085449,-7.384094238,1,0,0,0,62,62,78,1,Pink,Pink.jpg,DarkBlue,DarkBlue.jpg,,
,,,,,,,,,,,,,,,,,,-3,,,,,,,,,,,,,,,,,,,,,,,,,,,,,,,001,2021-12-05_23h16.52.084,jm_natural_scene_simialrity_2-12-2021,2021.2.3,MacIntel,59.99880002,5fc89209c5116c1deec89f9b,61ad71e11ddd29ccf7a27d5b,61ad727a92cbf3629b3b8389,,,-79.94494629,31.71798706,1,0,0,response7disk,2.0688,-9.468200684,4.61026001,1,0,0,rectangle,-9.468200684,4.61026001,1,0,0,-3,-1,"[21,142,42,138,27,12,100,88,68,21]",-9.468200684,4.61026001,1,0,0,0,63,63,69,1,Pink,Pink.jpg,DarkGreen,DarkGreen.jpg,,
,,,,,,,,,,,,,,,,,,-3,,,,,,,,,,,,,,,,,,,,,,,,,,,,,,,001,2021-12-05_23h16.52.084,jm_natural_scene_simialrity_2-12-2021,2021.2.3,MacIntel,59.99880002,5fc89209c5116c1deec89f9b,61ad71e11ddd29ccf7a27d5b,61ad727a92cbf3629b3b8389,,,-103.9782715,63.79458618,1,0,0,response7disk,1.0996,-13.21020508,7.799133301,1,0,0,rectangle,-13.21020508,7.799133301,1,0,0,-3,-4,"[21,142,42,138,27,12,100,88,68,21]",-13.21020508,7.799133301,1,0,0,0,64,64,65,1,Purple,Purple.jpg,LightGreen,LightGreen.jpg,,
,,,,,,,,,,,,,,,,,,3,,,,,,,,,,,,,,,,,,,,,,,,,,,,,,,001,2021-12-05_23h16.52.084,jm_natural_scene_simialrity_2-12-2021,2021.2.3,MacIntel,59.99880002,5fc89209c5116c1deec89f9b,61ad71e11ddd29ccf7a27d5b,61ad727a92cbf3629b3b8389,,,96.28479004,43.30865479,1,0,0,response1disk,2.1511,-13.0770874,-12.28787231,1,0,0,rectangle,-13.0770874,-12.28787231,1,0,0,-3,-3,"[21,142,42,138,27,12,100,88,68,21]",-13.0770874,-12.28787231,1,0,0,0,65,65,80,1,Purple,Purple.jpg,Pink,Pink.jpg,,
,,,,,,,,,,,,,,,,,,3,,,,,,,,,,,,,,,,,,,,,,,,,,,,,,,001,2021-12-05_23h16.52.084,jm_natural_scene_simialrity_2-12-2021,2021.2.3,MacIntel,59.99880002,5fc89209c5116c1deec89f9b,61ad71e11ddd29ccf7a27d5b,61ad727a92cbf3629b3b8389,,,77.93157959,40.56488037,1,0,0,response1disk,0.9332,1.618835449,7.092803955,1,0,0,rectangle,1.618835449,7.092803955,1,0,0,-3,-4,"[21,142,42,138,27,12,100,88,68,21]",1.618835449,7.092803955,1,0,0,0,66,66,7,1,Red,Red.jpg,Pink,Pink.jpg,,
,,,,,,,,,,,,,,,,,,1,,,,,,,,,,,,,,,,,,,,,,,,,,,,,,,001,2021-12-05_23h16.52.084,jm_natural_scene_simialrity_2-12-2021,2021.2.3,MacIntel,59.99880002,5fc89209c5116c1deec89f9b,61ad71e11ddd29ccf7a27d5b,61ad727a92cbf3629b3b8389,,,48.49981689,-74.03533936,1,0,0,response3disk,1.915,-4.759216309,-6.983154297,1,0,0,rectangle,90.26849365,-45.74902344,1,0,0,2,2,"[21,142,42,138,27,12,100,88,68,21]",19.28936768,-13.65927124,1,0,0,0,67,67,72,1,DarkBlue,DarkBlue.jpg,Turquiose,Turquiose.jpg,response3disk_3,rectangle
,,,,,,,,,,,,,,,,,,1,,,,,,,,,,,,,,,,,,,,,,,,,,,,,,,001,2021-12-05_23h16.52.084,jm_natural_scene_simialrity_2-12-2021,2021.2.3,MacIntel,59.99880002,5fc89209c5116c1deec89f9b,61ad71e11ddd29ccf7a27d5b,61ad727a92cbf3629b3b8389,,,56.06121826,-78.76153564,1,0,0,response3disk,1.7028,5.373657227,-8.953216553,1,0,0,rectangle,5.373657227,-8.953216553,1,0,0,2,-1,"[21,142,42,138,27,12,100,88,68,21]",5.373657227,-8.953216553,1,0,0,0,68,68,27,1,DarkGreen,DarkGreen.jpg,DarkBlue,DarkBlue.jpg,,
,,,,,,,,,,,,,,,,,,3,,,,,,,,,,,,,,,,,,,,,,,,,,,,,,,001,2021-12-05_23h16.52.084,jm_natural_scene_simialrity_2-12-2021,2021.2.3,MacIntel,59.99880002,5fc89209c5116c1deec89f9b,61ad71e11ddd29ccf7a27d5b,61ad727a92cbf3629b3b8389,,,85.67376709,39.29083252,1,0,0,response1disk,0.951,-7.470275879,-16.099823,1,0,0,rectangle,-7.470275879,-16.099823,1,0,0,2,-2,"[21,142,42,138,27,12,100,88,68,21]",-7.470275879,-16.099823,1,0,0,0,69,69,45,1,Yellow,Yellow.jpg,Red,Red.jpg,,
,,,,,,,,,,,,,,,,,,-1,,,,,,,,,,,,,,,,,,,,,,,,,,,,,,,001,2021-12-05_23h16.52.084,jm_natural_scene_simialrity_2-12-2021,2021.2.3,MacIntel,59.99880002,5fc89209c5116c1deec89f9b,61ad71e11ddd29ccf7a27d5b,61ad727a92cbf3629b3b8389,,,-51.61047363,-80.84417725,1,0,0,response5disk,2.3153,-14.01251221,-13.27606201,1,0,0,rectangle,-14.01251221,-13.27606201,1,0,0,2,2,"[21,142,42,138,27,12,100,88,68,21]",-14.01251221,-13.27606201,1,0,0,0,70,70,49,1,LightBlue,LightBlue.jpg,Red,Red.jpg,,
,,,,,,,,,,,,,,,,,,-2,,,,,,,,,,,,,,,,,,,,,,,,,,,,,,,001,2021-12-05_23h16.52.084,jm_natural_scene_simialrity_2-12-2021,2021.2.3,MacIntel,59.99880002,5fc89209c5116c1deec89f9b,61ad71e11ddd29ccf7a27d5b,61ad727a92cbf3629b3b8389,,,-72.72802734,-46.8704834,1,0,0,response5disk,1.2653,7.479187012,-5.103393555,1,0,0,rectangle,7.479187012,-5.103393555,1,0,0,2,-3,"[21,142,42,138,27,12,100,88,68,21]",7.479187012,-5.103393555,1,0,0,0,71,71,74,1,Purple,Purple.jpg,Turquiose,Turquiose.jpg,,
,,,,,,,,,,,,,,,,,,-2,,,,,,,,,,,,,,,,,,,,,,,,,,,,,,,001,2021-12-05_23h16.52.084,jm_natural_scene_simialrity_2-12-2021,2021.2.3,MacIntel,59.99880002,5fc89209c5116c1deec89f9b,61ad71e11ddd29ccf7a27d5b,61ad727a92cbf3629b3b8389,,,-83.15209961,-52.66448975,1,0,0,response5disk,0.8473,8.874023438,-7.799438477,1,0,0,rectangle,8.874023438,-7.799438477,1,0,0,2,-4,"[21,142,42,138,27,12,100,88,68,21]",8.874023438,-7.799438477,1,0,0,0,72,72,75,1,DarkBlue,DarkBlue.jpg,LightBlue,LightBlue.jpg,,
,,,,,,,,,,,,,,,,,,4,,,,,,,,,,,,,,,,,,,,,,,,,,,,,,,001,2021-12-05_23h16.52.084,jm_natural_scene_simialrity_2-12-2021,2021.2.3,MacIntel,59.99880002,5fc89209c5116c1deec89f9b,61ad71e11ddd29ccf7a27d5b,61ad727a92cbf3629b3b8389,,,37.31890869,83.81738281,1,0,0,response1disk,0.9834,-7.945251465,-21.48880005,1,0,0,rectangle,-7.945251465,-21.48880005,1,0,0,2,-3,"[21,142,42,138,27,12,100,88,68,21]",-7.945251465,-21.48880005,1,0,0,0,73,73,35,1,LightBlue,LightBlue.jpg,LightBlue,LightBlue.jpg,,
,,,,,,,,,,,,,,,,,,-2,,,,,,,,,,,,,,,,,,,,,,,,,,,,,,,001,2021-12-05_23h16.52.084,jm_natural_scene_simialrity_2-12-2021,2021.2.3,MacIntel,59.99880002,5fc89209c5116c1deec89f9b,61ad71e11ddd29ccf7a27d5b,61ad727a92cbf3629b3b8389,,,-102.9824219,-42.7545166,1,0,0,response5disk,0.8147,-14.75250244,-1.758209229,1,0,0,rectangle,-14.75250244,-1.758209229,1,0,0,2,-1,"[21,142,42,138,27,12,100,88,68,21]",-14.75250244,-1.758209229,1,0,0,0,74,74,48,1,Turquiose,Turquiose.jpg,Red,Red.jpg,,
,,,,,,,,,,,,,,,,,,-2,,,,,,,,,,,,,,,,,,,,,,,,,,,,,,,001,2021-12-05_23h16.52.084,jm_natural_scene_simialrity_2-12-2021,2021.2.3,MacIntel,59.99880002,5fc89209c5116c1deec89f9b,61ad71e11ddd29ccf7a27d5b,61ad727a92cbf3629b3b8389,,,-94.59637451,-58.34060669,1,0,0,response5disk,0.7508,8.658996582,-0.101959229,1,0,0,rectangle,8.658996582,-0.101959229,1,0,0,2,1,"[21,142,42,138,27,12,100,88,68,21]",8.658996582,-0.101959229,1,0,0,0,75,75,32,1,Turquiose,Turquiose.jpg,DarkBlue,DarkBlue.jpg,,
,,,,,,,,,,,,,,,,,,-2,,,,,,,,,,,,,,,,,,,,,,,,,,,,,,,001,2021-12-05_23h16.52.084,jm_natural_scene_simialrity_2-12-2021,2021.2.3,MacIntel,59.99880002,5fc89209c5116c1deec89f9b,61ad71e11ddd29ccf7a27d5b,61ad727a92cbf3629b3b8389,,,-75.01348877,-39.14480591,1,0,0,response5disk,0.802,2.596679688,3.843383789,1,0,0,rectangle,2.596679688,3.843383789,1,0,0,2,-4,"[21,142,42,138,27,12,100,88,68,21]",2.596679688,3.843383789,1,0,0,0,76,76,67,1,LightBlue,LightBlue.jpg,DarkGreen,DarkGreen.jpg,,
,,,,,,,,,,,,,,,,,,2,,,,,,,,,,,,,,,,,,,,,,,,,,,,,,,001,2021-12-05_23h16.52.084,jm_natural_scene_simialrity_2-12-2021,2021.2.3,MacIntel,59.99880002,5fc89209c5116c1deec89f9b,61ad71e11ddd29ccf7a27d5b,61ad727a92cbf3629b3b8389,,,99.60418701,-34.10949707,1,0,0,response3disk,1.9185,-7.197692871,-6.355285645,1,0,0,rectangle,-7.197692871,-6.355285645,1,0,0,2,3,"[21,142,42,138,27,12,100,88,68,21]",-7.197692871,-6.355285645,1,0,0,0,77,77,30,1,Turquiose,Turquiose.jpg,Turquiose,Turquiose.jpg,,
,,,,,,,,,,,,,,,,,,4,,,,,,,,,,,,,,,,,,,,,,,,,,,,,,,001,2021-12-05_23h16.52.084,jm_natural_scene_simialrity_2-12-2021,2021.2.3,MacIntel,59.99880002,5fc89209c5116c1deec89f9b,61ad71e11ddd29ccf7a27d5b,61ad727a92cbf3629b3b8389,,,79.08197021,136.1300964,1,0,0,response1disk,0.7843,8.742126465,5.233581543,1,0,0,rectangle,8.742126465,5.233581543,1,0,0,2,-4,"[21,142,42,138,27,12,100,88,68,21]",8.742126465,5.233581543,1,0,0,0,78,78,44,1,Purple,Purple.jpg,Purple,Purple.jpg,,
,,,,,,,,,,,,,,,,,,3,,,,,,,,,,,,,,,,,,,,,,,,,,,,,,,001,2021-12-05_23h16.52.084,jm_natural_scene_simialrity_2-12-2021,2021.2.3,MacIntel,59.99880002,5fc89209c5116c1deec89f9b,61ad71e11ddd29ccf7a27d5b,61ad727a92cbf3629b3b8389,,,77.62713623,49.91046143,1,0,0,response1disk,0.8665,11.62744141,1.221496582,1,0,0,rectangle,11.62744141,1.221496582,1,0,0,2,-2,"[21,142,42,138,27,12,100,88,68,21]",11.62744141,1.221496582,1,0,0,0,79,79,60,1,DarkGreen,DarkGreen.jpg,LightGreen,LightGreen.jpg,,
,,,,,,,,,,,,,,,,,,1,,,,,,,,,,,,,,,,,,,,,,,,,,,,,,,001,2021-12-05_23h16.52.084,jm_natural_scene_simialrity_2-12-2021,2021.2.3,MacIntel,59.99880002,5fc89209c5116c1deec89f9b,61ad71e11ddd29ccf7a27d5b,61ad727a92cbf3629b3b8389,,,32.16943359,-126.0304565,1,0,0,response3disk,1.3837,-2.207519531,-7.899932861,1,0,0,rectangle,-2.207519531,-7.899932861,1,0,0,2,1,"[21,142,42,138,27,12,100,88,68,21]",-2.207519531,-7.899932861,1,0,0,0,80,80,79,1,Purple,Purple.jpg,DarkBlue,DarkBlue.jpg,,
,,,,,,,,,,,,,,,,,,1,,,,,,,,,,,,,,,,,,,,,,,,,,,,,,,001,2021-12-05_23h16.52.084,jm_natural_scene_simialrity_2-12-2021,2021.2.3,MacIntel,59.99880002,5fc89209c5116c1deec89f9b,61ad71e11ddd29ccf7a27d5b,61ad727a92cbf3629b3b8389,,,53.15240479,-118.5288696,1,0,0,response3disk,4.5155,3.105224609,-1.165802002,1,0,0,rectangle,3.105224609,-1.165802002,1,0,0,2,-3,"[21,142,42,138,27,12,100,88,68,21]",3.105224609,-1.165802002,1,0,0,1,0,81,58,1,Pink,Pink.jpg,Yellow,Yellow.jpg,,
,,,,,,,,,,,,,,,,,,1,,,,,,,,,,,,,,,,,,,,,,,,,,,,,,,001,2021-12-05_23h16.52.084,jm_natural_scene_simialrity_2-12-2021,2021.2.3,MacIntel,59.99880002,5fc89209c5116c1deec89f9b,61ad71e11ddd29ccf7a27d5b,61ad727a92cbf3629b3b8389,,,46.76922607,-72.28466797,1,0,0,response3disk,6.0344,4.731933594,-14.80078125,1,0,0,rectangle,4.731933594,-14.80078125,1,0,0,2,-1,"[21,142,42,138,27,12,100,88,68,21]",4.731933594,-14.80078125,1,0,0,1,1,82,73,1,Pink,Pink.jpg,Turquiose,Turquiose.jpg,,
,,,,,,,,,,,,,,,,,,-2,,,,,,,,,,,,,,,,,,,,,,,,,,,,,,,001,2021-12-05_23h16.52.084,jm_natural_scene_simialrity_2-12-2021,2021.2.3,MacIntel,59.99880002,5fc89209c5116c1deec89f9b,61ad71e11ddd29ccf7a27d5b,61ad727a92cbf3629b3b8389,,,-100.1231689,-44.08349609,1,0,0,response5disk,1.4499,8.476745605,-3.026062012,1,0,0,rectangle,8.476745605,-3.026062012,1,0,0,2,2,"[21,142,42,138,27,12,100,88,68,21]",8.476745605,-3.026062012,1,0,0,1,2,83,14,1,Yellow,Yellow.jpg,DarkBlue,DarkBlue.jpg,,
,,,,,,,,,,,,,,,,,,-3,,,,,,,,,,,,,,,,,,,,,,,,,,,,,,,001,2021-12-05_23h16.52.084,jm_natural_scene_simialrity_2-12-2021,2021.2.3,MacIntel,59.99880002,5fc89209c5116c1deec89f9b,61ad71e11ddd29ccf7a27d5b,61ad727a92cbf3629b3b8389,,,-118.1120605,66.78048706,1,0,0,response7disk,0.8855,-12.53344727,6.119506836,1,0,0,rectangle,-12.53344727,6.119506836,1,0,0,2,-2,"[21,142,42,138,27,12,100,88,68,21]",-12.53344727,6.119506836,1,0,0,1,3,84,66,1,Turquiose,Turquiose.jpg,DarkGreen,DarkGreen.jpg,,
,,,,,,,,,,,,,,,,,,-3,,,,,,,,,,,,,,,,,,,,,,,,,,,,,,,001,2021-12-05_23h16.52.084,jm_natural_scene_simialrity_2-12-2021,2021.2.3,MacIntel,59.99880002,5fc89209c5116c1deec89f9b,61ad71e11ddd29ccf7a27d5b,61ad727a92cbf3629b3b8389,,,-110.8271484,41.36477661,1,0,0,response7disk,1.1818,-10.1539917,14.27932739,1,0,0,rectangle,-10.1539917,14.27932739,1,0,0,2,-2,"[21,142,42,138,27,12,100,88,68,21]",-10.1539917,14.27932739,1,0,0,1,4,85,46,1,LightGreen,LightGreen.jpg,Red,Red.jpg,,
,,,,,,,,,,,,,,,,,,3,,,,,,,,,,,,,,,,,,,,,,,,,,,,,,,001,2021-12-05_23h16.52.084,jm_natural_scene_simialrity_2-12-2021,2021.2.3,MacIntel,59.99880002,5fc89209c5116c1deec89f9b,61ad71e11ddd29ccf7a27d5b,61ad727a92cbf3629b3b8389,,,78.39172363,42.38925171,1,0,0,response1disk,0.8983,-2.754455566,-8.249725342,1,0,0,rectangle,-2.754455566,-8.249725342,1,0,0,2,3,"[21,142,42,138,27,12,100,88,68,21]",-2.754455566,-8.249725342,1,0,0,1,5,86,51,1,Pink,Pink.jpg,Red,Red.jpg,,
,,,,,,,,,,,,,,,,,,4,,,,,,,,,,,,,,,,,,,,,,,,,,,,,,,001,2021-12-05_23h16.52.084,jm_natural_scene_simialrity_2-12-2021,2021.2.3,MacIntel,59.99880002,5fc89209c5116c1deec89f9b,61ad71e11ddd29ccf7a27d5b,61ad727a92cbf3629b3b8389,,,53.18225098,69.81900024,1,0,0,response1disk,0.7816,1.913513184,-14.68521118,1,0,0,rectangle,80.64447021,-33.7038269,1,0,0,2,2,"[21,142,42,138,27,12,100,88,68,21]",-2.218017578,8.485595703,1,0,0,1,6,87,45,1,Yellow,Yellow.jpg,Red,Red.jpg,response3disk_3,rectangle
,,,,,,,,,,,,,,,,,,-2,,,,,,,,,,,,,,,,,,,,,,,,,,,,,,,001,2021-12-05_23h16.52.084,jm_natural_scene_simialrity_2-12-2021,2021.2.3,MacIntel,59.99880002,5fc89209c5116c1deec89f9b,61ad71e11ddd29ccf7a27d5b,61ad727a92cbf3629b3b8389,,,-82.31677246,-46.60488892,1,0,0,response5disk,1.3019,14.84844971,2.241241455,1,0,0,rectangle,14.84844971,2.241241455,1,0,0,2,-3,"[21,142,42,138,27,12,100,88,68,21]",14.84844971,2.241241455,1,0,0,1,7,88,3,1,Red,Red.jpg,DarkGreen,DarkGreen.jpg,,
,,,,,,,,,,,,,,,,,,3,,,,,,,,,,,,,,,,,,,,,,,,,,,,,,,001,2021-12-05_23h16.52.084,jm_natural_scene_simialrity_2-12-2021,2021.2.3,MacIntel,59.99880002,5fc89209c5116c1deec89f9b,61ad71e11ddd29ccf7a27d5b,61ad727a92cbf3629b3b8389,,,49.54046631,40.63043213,1,0,0,response1disk,0.8514,4.947753906,9.376464844,1,0,0,rectangle,4.947753906,9.376464844,1,0,0,2,-1,"[21,142,42,138,27,12,100,88,68,21]",4.947753906,9.376464844,1,0,0,1,8,89,60,1,DarkGreen,DarkGreen.jpg,LightGreen,LightGreen.jpg,,
,,,,,,,,,,,,,,,,,,-2,,,,,,,,,,,,,,,,,,,,,,,,,,,,,,,001,2021-12-05_23h16.52.084,jm_natural_scene_simialrity_2-12-2021,2021.2.3,MacIntel,59.99880002,5fc89209c5116c1deec89f9b,61ad71e11ddd29ccf7a27d5b,61ad727a92cbf3629b3b8389,,,-80.43756104,-51.17889404,1,0,0,response5disk,0.8834,8.836853027,-14.31546021,1,0,0,rectangle,8.836853027,-14.31546021,1,0,0,2,-1,"[21,142,42,138,27,12,100,88,68,21]",8.836853027,-14.31546021,1,0,0,1,9,90,13,1,Yellow,Yellow.jpg,LightBlue,LightBlue.jpg,,
,,,,,,,,,,,,,,,,,,2,,,,,,,,,,,,,,,,,,,,,,,,,,,,,,,001,2021-12-05_23h16.52.084,jm_natural_scene_simialrity_2-12-2021,2021.2.3,MacIntel,59.99880002,5fc89209c5116c1deec89f9b,61ad71e11ddd29ccf7a27d5b,61ad727a92cbf3629b3b8389,,,63.49853516,-36.32492065,1,0,0,response3disk,1.2346,4.83380127,-1.577484131,1,0,0,rectangle,4.83380127,-1.577484131,1,0,0,2,-2,"[21,142,42,138,27,12,100,88,68,21]",4.83380127,-1.577484131,1,0,0,1,10,91,52,1,Purple,Purple.jpg,Red,Red.jpg,,
,,,,,,,,,,,,,,,,,,-1,,,,,,,,,,,,,,,,,,,,,,,,,,,,,,,001,2021-12-05_23h16.52.084,jm_natural_scene_simialrity_2-12-2021,2021.2.3,MacIntel,59.99880002,5fc89209c5116c1deec89f9b,61ad71e11ddd29ccf7a27d5b,61ad727a92cbf3629b3b8389,,,-58.56707764,-83.28308105,1,0,0,response5disk,1.1667,4.089294434,5.216583252,1,0,0,rectangle,4.089294434,5.216583252,1,0,0,2,2,"[21,142,42,138,27,12,100,88,68,21]",4.089294434,5.216583252,1,0,0,1,11,92,50,1,DarkBlue,DarkBlue.jpg,Red,Red.jpg,,
,,,,,,,,,,,,,,,,,,2,,,,,,,,,,,,,,,,,,,,,,,,,,,,,,,001,2021-12-05_23h16.52.084,jm_natural_scene_simialrity_2-12-2021,2021.2.3,MacIntel,59.99880002,5fc89209c5116c1deec89f9b,61ad71e11ddd29ccf7a27d5b,61ad727a92cbf3629b3b8389,,,92.86199951,-39.63745117,1,0,0,response3disk,0.8812,4.491333008,-2.422973633,1,0,0,rectangle,4.491333008,-2.422973633,1,0,0,2,1,"[21,142,42,138,27,12,100,88,68,21]",4.491333008,-2.422973633,1,0,0,1,12,93,8,1,Red,Red.jpg,Purple,Purple.jpg,,
,,,,,,,,,,,,,,,,,,2,,,,,,,,,,,,,,,,,,,,,,,,,,,,,,,001,2021-12-05_23h16.52.084,jm_natural_scene_simialrity_2-12-2021,2021.2.3,MacIntel,59.99880002,5fc89209c5116c1deec89f9b,61ad71e11ddd29ccf7a27d5b,61ad727a92cbf3629b3b8389,,,98.39849854,-49.55020142,1,0,0,response3disk,0.8512,10.29724121,3.170013428,1,0,0,rectangle,10.29724121,3.170013428,1,0,0,2,1,"[21,142,42,138,27,12,100,88,68,21]",10.29724121,3.170013428,1,0,0,1,13,94,75,1,DarkBlue,DarkBlue.jpg,LightBlue,LightBlue.jpg,,
,,,,,,,,,,,,,,,,,,2,,,,,,,,,,,,,,,,,,,,,,,,,,,,,,,001,2021-12-05_23h16.52.084,jm_natural_scene_simialrity_2-12-2021,2021.2.3,MacIntel,59.99880002,5fc89209c5116c1deec89f9b,61ad71e11ddd29ccf7a27d5b,61ad727a92cbf3629b3b8389,,,92.39953613,-33.54376221,1,0,0,response3disk,0.7329,15.8092041,2.504302979,1,0,0,rectangle,15.8092041,2.504302979,1,0,0,2,-2,"[21,142,42,138,27,12,100,88,68,21]",15.8092041,2.504302979,1,0,0,1,14,95,1,1,Red,Red.jpg,Yellow,Yellow.jpg,,
,,,,,,,,,,,,,,,,,,2,,,,,,,,,,,,,,,,,,,,,,,,,,,,,,,001,2021-12-05_23h16.52.084,jm_natural_scene_simialrity_2-12-2021,2021.2.3,MacIntel,59.99880002,5fc89209c5116c1deec89f9b,61ad71e11ddd29ccf7a27d5b,61ad727a92cbf3629b3b8389,,,104.0089111,-37.37451172,1,0,0,response3disk,0.8313,-20.5713501,7.38659668,1,0,0,rectangle,-20.5713501,7.38659668,1,0,0,2,2,"[21,142,42,138,27,12,100,88,68,21]",-20.5713501,7.38659668,1,0,0,1,15,96,38,1,LightBlue,LightBlue.jpg,Purple,Purple.jpg,,
,,,,,,,,,,,,,,,,,,1,,,,,,,,,,,,,,,,,,,,,,,,,,,,,,,001,2021-12-05_23h16.52.084,jm_natural_scene_simialrity_2-12-2021,2021.2.3,MacIntel,59.99880002,5fc89209c5116c1deec89f9b,61ad71e11ddd29ccf7a27d5b,61ad727a92cbf3629b3b8389,,,49.43182373,-91.02941895,1,0,0,response3disk,1.0833,-3.114013672,-14.88812256,1,0,0,rectangle,-3.114013672,-14.88812256,1,0,0,2,3,"[21,142,42,138,27,12,100,88,68,21]",-3.114013672,-14.88812256,1,0,0,1,16,97,36,1,LightBlue,LightBlue.jpg,DarkBlue,DarkBlue.jpg,,
,,,,,,,,,,,,,,,,,,-2,,,,,,,,,,,,,,,,,,,,,,,,,,,,,,,001,2021-12-05_23h16.52.084,jm_natural_scene_simialrity_2-12-2021,2021.2.3,MacIntel,59.99880002,5fc89209c5116c1deec89f9b,61ad71e11ddd29ccf7a27d5b,61ad727a92cbf3629b3b8389,,,-75.56079102,-59.22964478,1,0,0,response5disk,1.2505,18.19091797,7.431274414,1,0,0,rectangle,18.19091797,7.431274414,1,0,0,2,1,"[21,142,42,138,27,12,100,88,68,21]",18.19091797,7.431274414,1,0,0,1,17,98,71,1,LightBlue,LightBlue.jpg,Turquiose,Turquiose.jpg,,
,,,,,,,,,,,,,,,,,,-3,,,,,,,,,,,,,,,,,,,,,,,,,,,,,,,001,2021-12-05_23h16.52.084,jm_natural_scene_simialrity_2-12-2021,2021.2.3,MacIntel,59.99880002,5fc89209c5116c1deec89f9b,61ad71e11ddd29ccf7a27d5b,61ad727a92cbf3629b3b8389,,,-81.55999756,81.08007813,1,0,0,response7disk,1.265,12.31671143,6.186706543,1,0,0,rectangle,53.34564209,-83.62652588,1,0,0,1,1,"[21,142,42,138,27,12,100,88,68,21]",-8.527404785,-11.49795532,1,0,0,1,18,99,55,1,Turquiose,Turquiose.jpg,Yellow,Yellow.jpg,response3disk_3,rectangle
,,,,,,,,,,,,,,,,,,-2,,,,,,,,,,,,,,,,,,,,,,,,,,,,,,,001,2021-12-05_23h16.52.084,jm_natural_scene_simialrity_2-12-2021,2021.2.3,MacIntel,59.99880002,5fc89209c5116c1deec89f9b,61ad71e11ddd29ccf7a27d5b,61ad727a92cbf3629b3b8389,,,-108.8658447,-44.17428589,1,0,0,response5disk,0.9335,-7.999755859,3.164611816,1,0,0,rectangle,-7.999755859,3.164611816,1,0,0,1,2,"[21,142,42,138,27,12,100,88,68,21]",-7.999755859,3.164611816,1,0,0,1,19,100,34,1,Turquiose,Turquiose.jpg,Purple,Purple.jpg,,
,,,,,,,,,,,,,,,,,,4,,,,,,,,,,,,,,,,,,,,,,,,,,,,,,,001,2021-12-05_23h16.52.084,jm_natural_scene_simialrity_2-12-2021,2021.2.3,MacIntel,59.99880002,5fc89209c5116c1deec89f9b,61ad71e11ddd29ccf7a27d5b,61ad727a92cbf3629b3b8389,,,64.72991943,76.68289185,1,0,0,response1disk,0.8496,-6.321105957,-17.62341309,1,0,0,rectangle,-6.321105957,-17.62341309,1,0,0,1,1,"[21,142,42,138,27,12,100,88,68,21]",-6.321105957,-17.62341309,1,0,0,1,20,101,42,1,Pink,Pink.jpg,Pink,Pink.jpg,,
,,,,,,,,,,,,,,,,,,-4,,,,,,,,,,,,,,,,,,,,,,,,,,,,,,,001,2021-12-05_23h16.52.084,jm_natural_scene_simialrity_2-12-2021,2021.2.3,MacIntel,59.99880002,5fc89209c5116c1deec89f9b,61ad71e11ddd29ccf7a27d5b,61ad727a92cbf3629b3b8389,,,-56.68585205,104.1930237,1,0,0,response7disk,1.0663,12.6706543,11.62817383,1,0,0,rectangle,12.6706543,11.62817383,1,0,0,1,-2,"[21,142,42,138,27,12,100,88,68,21]",12.6706543,11.62817383,1,0,0,1,21,102,28,1,DarkGreen,DarkGreen.jpg,Pink,Pink.jpg,,
,,,,,,,,,,,,,,,,,,-4,,,,,,,,,,,,,,,,,,,,,,,,,,,,,,,001,2021-12-05_23h16.52.084,jm_natural_scene_simialrity_2-12-2021,2021.2.3,MacIntel,59.99880002,5fc89209c5116c1deec89f9b,61ad71e11ddd29ccf7a27d5b,61ad727a92cbf3629b3b8389,,,-27.3170166,88.42025757,1,0,0,response7disk,0.8514,-1.705444336,3.207702637,1,0,0,rectangle,-1.705444336,3.207702637,1,0,0,1,-4,"[21,142,42,138,27,12,100,88,68,21]",-1.705444336,3.207702637,1,0,0,1,22,103,53,1,LightGreen,LightGreen.jpg,Yellow,Yellow.jpg,,
,,,,,,,,,,,,,,,,,,-2,,,,,,,,,,,,,,,,,,,,,,,,,,,,,,,001,2021-12-05_23h16.52.084,jm_natural_scene_simialrity_2-12-2021,2021.2.3,MacIntel,59.99880002,5fc89209c5116c1deec89f9b,61ad71e11ddd29ccf7a27d5b,61ad727a92cbf3629b3b8389,,,-81.2144165,-56.84997559,1,0,0,response5disk,1.3682,-4.974914551,-20.45870972,1,0,0,rectangle,-4.974914551,-20.45870972,1,0,0,1,3,"[21,142,42,138,27,12,100,88,68,21]",-4.974914551,-20.45870972,1,0,0,1,23,104,63,1,DarkBlue,DarkBlue.jpg,LightGreen,LightGreen.jpg,,
,,,,,,,,,,,,,,,,,,4,,,,,,,,,,,,,,,,,,,,,,,,,,,,,,,001,2021-12-05_23h16.52.084,jm_natural_scene_simialrity_2-12-2021,2021.2.3,MacIntel,59.99880002,5fc89209c5116c1deec89f9b,61ad71e11ddd29ccf7a27d5b,61ad727a92cbf3629b3b8389,,,44.95788574,68.09588623,1,0,0,response1disk,0.7523,-6.467163086,-18.68725586,1,0,0,rectangle,-6.467163086,-18.68725586,1,0,0,1,2,"[21,142,42,138,27,12,100,88,68,21]",-6.467163086,-18.68725586,1,0,0,1,24,105,9,1,Yellow,Yellow.jpg,Yellow,Yellow.jpg,,
,,,,,,,,,,,,,,,,,,-2,,,,,,,,,,,,,,,,,,,,,,,,,,,,,,,001,2021-12-05_23h16.52.084,jm_natural_scene_simialrity_2-12-2021,2021.2.3,MacIntel,59.99880002,5fc89209c5116c1deec89f9b,61ad71e11ddd29ccf7a27d5b,61ad727a92cbf3629b3b8389,,,-114.6280518,-55.99505615,1,0,0,response5disk,0.9183,-1.319091797,-12.10101318,1,0,0,rectangle,-1.319091797,-12.10101318,1,0,0,1,1,"[21,142,42,138,27,12,100,88,68,21]",-1.319091797,-12.10101318,1,0,0,1,25,106,79,1,Purple,Purple.jpg,DarkBlue,DarkBlue.jpg,,
,,,,,,,,,,,,,,,,,,-2,,,,,,,,,,,,,,,,,,,,,,,,,,,,,,,001,2021-12-05_23h16.52.084,jm_natural_scene_simialrity_2-12-2021,2021.2.3,MacIntel,59.99880002,5fc89209c5116c1deec89f9b,61ad71e11ddd29ccf7a27d5b,61ad727a92cbf3629b3b8389,,,-82.5880127,-37.41000366,1,0,0,response5disk,0.8334,5.136535645,3.69241333,1,0,0,rectangle,5.136535645,3.69241333,1,0,0,1,-2,"[21,142,42,138,27,12,100,88,68,21]",5.136535645,3.69241333,1,0,0,1,26,107,61,1,Turquiose,Turquiose.jpg,LightGreen,LightGreen.jpg,,
,,,,,,,,,,,,,,,,,,-2,,,,,,,,,,,,,,,,,,,,,,,,,,,,,,,001,2021-12-05_23h16.52.084,jm_natural_scene_simialrity_2-12-2021,2021.2.3,MacIntel,59.99880002,5fc89209c5116c1deec89f9b,61ad71e11ddd29ccf7a27d5b,61ad727a92cbf3629b3b8389,,,-71.03369141,-35.66693115,1,0,0,response5disk,1.3165,-15.71600342,-17.14181519,1,0,0,rectangle,-15.71600342,-17.14181519,1,0,0,1,3,"[21,142,42,138,27,12,100,88,68,21]",-15.71600342,-17.14181519,1,0,0,1,27,108,57,1,DarkBlue,DarkBlue.jpg,Yellow,Yellow.jpg,,
,,,,,,,,,,,,,,,,,,-3,,,,,,,,,,,,,,,,,,,,,,,,,,,,,,,001,2021-12-05_23h16.52.084,jm_natural_scene_simialrity_2-12-2021,2021.2.3,MacIntel,59.99880002,5fc89209c5116c1deec89f9b,61ad71e11ddd29ccf7a27d5b,61ad727a92cbf3629b3b8389,,,-96.42352295,47.35882568,1,0,0,response7disk,1.017,-3.141418457,13.44680786,1,0,0,rectangle,-3.141418457,13.44680786,1,0,0,1,3,"[21,142,42,138,27,12,100,88,68,21]",-3.141418457,13.44680786,1,0,0,1,28,109,70,1,Purple,Purple.jpg,DarkGreen,DarkGreen.jpg,,
,,,,,,,,,,,,,,,,,,-3,,,,,,,,,,,,,,,,,,,,,,,,,,,,,,,001,2021-12-05_23h16.52.084,jm_natural_scene_simialrity_2-12-2021,2021.2.3,MacIntel,59.99880002,5fc89209c5116c1deec89f9b,61ad71e11ddd29ccf7a27d5b,61ad727a92cbf3629b3b8389,,,-129.6540527,44.91125488,1,0,0,response7disk,0.8484,-5.950012207,4.634765625,1,0,0,rectangle,-5.950012207,4.634765625,1,0,0,1,2,"[21,142,42,138,27,12,100,88,68,21]",-5.950012207,4.634765625,1,0,0,1,29,110,29,1,DarkGreen,DarkGreen.jpg,Purple,Purple.jpg,,
,,,,,,,,,,,,,,,,,,-1,,,,,,,,,,,,,,,,,,,,,,,,,,,,,,,001,2021-12-05_23h16.52.084,jm_natural_scene_simialrity_2-12-2021,2021.2.3,MacIntel,59.99880002,5fc89209c5116c1deec89f9b,61ad71e11ddd29ccf7a27d5b,61ad727a92cbf3629b3b8389,,,-77.10284424,-132.1444092,1,0,0,response5disk,1.4813,10.62506104,-6.223571777,1,0,0,rectangle,10.62506104,-6.223571777,1,0,0,1,-4,"[21,142,42,138,27,12,100,88,68,21]",10.62506104,-6.223571777,1,0,0,1,30,111,37,1,LightBlue,LightBlue.jpg,Pink,Pink.jpg,,
,,,,,,,,,,,,,,,,,,2,,,,,,,,,,,,,,,,,,,,,,,,,,,,,,,001,2021-12-05_23h16.52.084,jm_natural_scene_simialrity_2-12-2021,2021.2.3,MacIntel,59.99880002,5fc89209c5116c1deec89f9b,61ad71e11ddd29ccf7a27d5b,61ad727a92cbf3629b3b8389,,,119.4100342,-43.57678223,1,0,0,response3disk,1.1648,13.56018066,-12.00872803,1,0,0,rectangle,13.56018066,-12.00872803,1,0,0,1,-4,"[21,142,42,138,27,12,100,88,68,21]",13.56018066,-12.00872803,1,0,0,1,31,112,43,1,Pink,Pink.jpg,Purple,Purple.jpg,,
,,,,,,,,,,,,,,,,,,-3,,,,,,,,,,,,,,,,,,,,,,,,,,,,,,,001,2021-12-05_23h16.52.084,jm_natural_scene_simialrity_2-12-2021,2021.2.3,MacIntel,59.99880002,5fc89209c5116c1deec89f9b,61ad71e11ddd29ccf7a27d5b,61ad727a92cbf3629b3b8389,,,-106.8242188,18.41845703,1,0,0,response7disk,1.3821,-4.684326172,-1.231536865,1,0,0,rectangle,-4.684326172,-1.231536865,1,0,0,1,-3,"[21,142,42,138,27,12,100,88,68,21]",-4.684326172,-1.231536865,1,0,0,1,32,113,65,1,Purple,Purple.jpg,LightGreen,LightGreen.jpg,,
,,,,,,,,,,,,,,,,,,4,,,,,,,,,,,,,,,,,,,,,,,,,,,,,,,001,2021-12-05_23h16.52.084,jm_natural_scene_simialrity_2-12-2021,2021.2.3,MacIntel,59.99880002,5fc89209c5116c1deec89f9b,61ad71e11ddd29ccf7a27d5b,61ad727a92cbf3629b3b8389,,,49.85992432,88.0508728,1,0,0,response1disk,0.8002,3.091918945,-8.009735107,1,0,0,rectangle,3.091918945,-8.009735107,1,0,0,1,1,"[21,142,42,138,27,12,100,88,68,21]",3.091918945,-8.009735107,1,0,0,1,33,114,35,1,LightBlue,LightBlue.jpg,LightBlue,LightBlue.jpg,,
,,,,,,,,,,,,,,,,,,3,,,,,,,,,,,,,,,,,,,,,,,,,,,,,,,001,2021-12-05_23h16.52.084,jm_natural_scene_simialrity_2-12-2021,2021.2.3,MacIntel,59.99880002,5fc89209c5116c1deec89f9b,61ad71e11ddd29ccf7a27d5b,61ad727a92cbf3629b3b8389,,,132.7650757,65.46777344,1,0,0,response1disk,1.05,-5.583862305,-14.25161743,1,0,0,rectangle,-5.583862305,-14.25161743,1,0,0,1,-3,"[21,142,42,138,27,12,100,88,68,21]",-5.583862305,-14.25161743,1,0,0,1,34,115,72,1,DarkBlue,DarkBlue.jpg,Turquiose,Turquiose.jpg,,
,,,,,,,,,,,,,,,,,,4,,,,,,,,,,,,,,,,,,,,,,,,,,,,,,,001,2021-12-05_23h16.52.084,jm_natural_scene_simialrity_2-12-2021,2021.2.3,MacIntel,59.99880002,5fc89209c5116c1deec89f9b,61ad71e11ddd29ccf7a27d5b,61ad727a92cbf3629b3b8389,,,60.54925537,119.1803894,1,0,0,response1disk,0.7346,12.38201904,15.79336548,1,0,0,rectangle,12.38201904,15.79336548,1,0,0,1,1,"[21,142,42,138,27,12,100,88,68,21]",12.38201904,15.79336548,1,0,0,1,35,116,24,1,DarkGreen,DarkGreen.jpg,DarkGreen,DarkGreen.jpg,,
,,,,,,,,,,,,,,,,,,-3,,,,,,,,,,,,,,,,,,,,,,,,,,,,,,,001,2021-12-05_23h16.52.084,jm_natural_scene_simialrity_2-12-2021,2021.2.3,MacIntel,59.99880002,5fc89209c5116c1deec89f9b,61ad71e11ddd29ccf7a27d5b,61ad727a92cbf3629b3b8389,,,-99.12689209,52.7088623,1,0,0,response7disk,0.8331,3.057006836,17.05209351,1,0,0,rectangle,3.057006836,17.05209351,1,0,0,1,-3,"[21,142,42,138,27,12,100,88,68,21]",3.057006836,17.05209351,1,0,0,1,36,117,10,1,Yellow,Yellow.jpg,LightGreen,LightGreen.jpg,,
,,,,,,,,,,,,,,,,,,3,,,,,,,,,,,,,,,,,,,,,,,,,,,,,,,001,2021-12-05_23h16.52.084,jm_natural_scene_simialrity_2-12-2021,2021.2.3,MacIntel,59.99880002,5fc89209c5116c1deec89f9b,61ad71e11ddd29ccf7a27d5b,61ad727a92cbf3629b3b8389,,,76.46569824,29.74029541,1,0,0,response1disk,0.985,15.70257568,3.696533203,1,0,0,rectangle,15.70257568,3.696533203,1,0,0,1,-3,"[21,142,42,138,27,12,100,88,68,21]",15.70257568,3.696533203,1,0,0,1,37,118,7,1,Red,Red.jpg,Pink,Pink.jpg,,
,,,,,,,,,,,,,,,,,,-3,,,,,,,,,,,,,,,,,,,,,,,,,,,,,,,001,2021-12-05_23h16.52.084,jm_natural_scene_simialrity_2-12-2021,2021.2.3,MacIntel,59.99880002,5fc89209c5116c1deec89f9b,61ad71e11ddd29ccf7a27d5b,61ad727a92cbf3629b3b8389,,,-124.4859009,61.78158569,1,0,0,response7disk,0.7664,-0.195861816,4.503662109,1,0,0,rectangle,-0.195861816,4.503662109,1,0,0,1,-3,"[21,142,42,138,27,12,100,88,68,21]",-0.195861816,4.503662109,1,0,0,1,38,119,22,1,LightGreen,LightGreen.jpg,Pink,Pink.jpg,,
,,,,,,,,,,,,,,,,,,-2,,,,,,,,,,,,,,,,,,,,,,,,,,,,,,,001,2021-12-05_23h16.52.084,jm_natural_scene_simialrity_2-12-2021,2021.2.3,MacIntel,59.99880002,5fc89209c5116c1deec89f9b,61ad71e11ddd29ccf7a27d5b,61ad727a92cbf3629b3b8389,,,-108.3904419,-51.67401123,1,0,0,response5disk,1.1825,4.285095215,-14.98364258,1,0,0,rectangle,4.285095215,-14.98364258,1,0,0,1,-3,"[21,142,42,138,27,12,100,88,68,21]",4.285095215,-14.98364258,1,0,0,1,39,120,40,1,DarkBlue,DarkBlue.jpg,Pink,Pink.jpg,,
,,,,,,,,,,,,,,,,,,2,,,,,,,,,,,,,,,,,,,,,,,,,,,,,,,001,2021-12-05_23h16.52.084,jm_natural_scene_simialrity_2-12-2021,2021.2.3,MacIntel,59.99880002,5fc89209c5116c1deec89f9b,61ad71e11ddd29ccf7a27d5b,61ad727a92cbf3629b3b8389,,,63.32623291,-52.30337524,1,0,0,response3disk,1.1186,-10.19091797,-6.18637085,1,0,0,rectangle,-10.19091797,-6.18637085,1,0,0,1,-1,"[21,142,42,138,27,12,100,88,68,21]",-10.19091797,-6.18637085,1,0,0,1,40,121,25,1,DarkGreen,DarkGreen.jpg,Turquiose,Turquiose.jpg,,
,,,,,,,,,,,,,,,,,,-3,,,,,,,,,,,,,,,,,,,,,,,,,,,,,,,001,2021-12-05_23h16.52.084,jm_natural_scene_simialrity_2-12-2021,2021.2.3,MacIntel,59.99880002,5fc89209c5116c1deec89f9b,61ad71e11ddd29ccf7a27d5b,61ad727a92cbf3629b3b8389,,,-99.25531006,47.71975708,1,0,0,response7disk,1.3168,-3.802612305,1.315032959,1,0,0,rectangle,-3.802612305,1.315032959,1,0,0,1,-3,"[21,142,42,138,27,12,100,88,68,21]",-3.802612305,1.315032959,1,0,0,1,41,122,48,1,Turquiose,Turquiose.jpg,Red,Red.jpg,,
,,,,,,,,,,,,,,,,,,1,,,,,,,,,,,,,,,,,,,,,,,,,,,,,,,001,2021-12-05_23h16.52.084,jm_natural_scene_simialrity_2-12-2021,2021.2.3,MacIntel,59.99880002,5fc89209c5116c1deec89f9b,61ad71e11ddd29ccf7a27d5b,61ad727a92cbf3629b3b8389,,,65.76947021,-76.98638916,1,0,0,response3disk,1.452,3.40020752,15.40261841,1,0,0,rectangle,3.40020752,15.40261841,1,0,0,1,1,"[21,142,42,138,27,12,100,88,68,21]",3.40020752,15.40261841,1,0,0,1,42,123,27,1,DarkGreen,DarkGreen.jpg,DarkBlue,DarkBlue.jpg,,
,,,,,,,,,,,,,,,,,,2,,,,,,,,,,,,,,,,,,,,,,,,,,,,,,,001,2021-12-05_23h16.52.084,jm_natural_scene_simialrity_2-12-2021,2021.2.3,MacIntel,59.99880002,5fc89209c5116c1deec89f9b,61ad71e11ddd29ccf7a27d5b,61ad727a92cbf3629b3b8389,,,131.2075806,-44.72659302,1,0,0,response3disk,0.985,-18.28582764,-23.56567383,1,0,0,rectangle,-18.28582764,-23.56567383,1,0,0,-1,-4,"[21,142,42,138,27,12,100,88,68,21]",-18.28582764,-23.56567383,1,0,0,1,43,124,80,1,Purple,Purple.jpg,Pink,Pink.jpg,,
,,,,,,,,,,,,,,,,,,-2,,,,,,,,,,,,,,,,,,,,,,,,,,,,,,,001,2021-12-05_23h16.52.084,jm_natural_scene_simialrity_2-12-2021,2021.2.3,MacIntel,59.99880002,5fc89209c5116c1deec89f9b,61ad71e11ddd29ccf7a27d5b,61ad727a92cbf3629b3b8389,,,-93.63781738,-26.28536987,1,0,0,response5disk,1.4841,-2.118408203,3.872589111,1,0,0,rectangle,-2.118408203,3.872589111,1,0,0,-1,-2,"[21,142,42,138,27,12,100,88,68,21]",-2.118408203,3.872589111,1,0,0,1,44,125,20,1,LightGreen,LightGreen.jpg,LightBlue,LightBlue.jpg,,
,,,,,,,,,,,,,,,,,,-3,,,,,,,,,,,,,,,,,,,,,,,,,,,,,,,001,2021-12-05_23h16.52.084,jm_natural_scene_simialrity_2-12-2021,2021.2.3,MacIntel,59.99880002,5fc89209c5116c1deec89f9b,61ad71e11ddd29ccf7a27d5b,61ad727a92cbf3629b3b8389,,,-129.4351196,72.51593018,1,0,0,response7disk,1.4674,-0.747680664,-5.20602417,1,0,0,rectangle,-0.747680664,-5.20602417,1,0,0,-1,-3,"[21,142,42,138,27,12,100,88,68,21]",-0.747680664,-5.20602417,1,0,0,1,45,126,23,1,LightGreen,LightGreen.jpg,Purple,Purple.jpg,,
,,,,,,,,,,,,,,,,,,4,,,,,,,,,,,,,,,,,,,,,,,,,,,,,,,001,2021-12-05_23h16.52.084,jm_natural_scene_simialrity_2-12-2021,2021.2.3,MacIntel,59.99880002,5fc89209c5116c1deec89f9b,61ad71e11ddd29ccf7a27d5b,61ad727a92cbf3629b3b8389,,,62.74505615,106.89151,1,0,0,response1disk,0.767,-5.278808594,9.759246826,1,0,0,rectangle,-5.278808594,9.759246826,1,0,0,-1,-2,"[21,142,42,138,27,12,100,88,68,21]",-5.278808594,9.759246826,1,0,0,1,46,127,17,1,LightGreen,LightGreen.jpg,LightGreen,LightGreen.jpg,,
,,,,,,,,,,,,,,,,,,3,,,,,,,,,,,,,,,,,,,,,,,,,,,,,,,001,2021-12-05_23h16.52.084,jm_natural_scene_simialrity_2-12-2021,2021.2.3,MacIntel,59.99880002,5fc89209c5116c1deec89f9b,61ad71e11ddd29ccf7a27d5b,61ad727a92cbf3629b3b8389,,,85.29522705,29.4335022,1,0,0,response1disk,0.8498,3.729675293,-4.076019287,1,0,0,rectangle,3.729675293,-4.076019287,1,0,0,-1,3,"[21,142,42,138,27,12,100,88,68,21]",3.729675293,-4.076019287,1,0,0,1,47,128,15,1,Yellow,Yellow.jpg,Pink,Pink.jpg,,
,,,,,,,,,,,,,,,,,,4,,,,,,,,,,,,,,,,,,,,,,,,,,,,,,,001,2021-12-05_23h16.52.084,jm_natural_scene_simialrity_2-12-2021,2021.2.3,MacIntel,59.99880002,5fc89209c5116c1deec89f9b,61ad71e11ddd29ccf7a27d5b,61ad727a92cbf3629b3b8389,,,30.85009766,59.21951294,1,0,0,response1disk,0.6999,-5.852722168,-17.97003174,1,0,0,rectangle,-5.852722168,-17.97003174,1,0,0,-1,1,"[21,142,42,138,27,12,100,88,68,21]",-5.852722168,-17.97003174,1,0,0,1,48,129,0,1,Red,Red.jpg,Red,Red.jpg,,
,,,,,,,,,,,,,,,,,,4,,,,,,,,,,,,,,,,,,,,,,,,,,,,,,,001,2021-12-05_23h16.52.084,jm_natural_scene_simialrity_2-12-2021,2021.2.3,MacIntel,59.99880002,5fc89209c5116c1deec89f9b,61ad71e11ddd29ccf7a27d5b,61ad727a92cbf3629b3b8389,,,61.68939209,116.2490234,1,0,0,response1disk,0.9,1.581176758,-6.113006592,1,0,0,rectangle,1.581176758,-6.113006592,1,0,0,-1,-2,"[21,142,42,138,27,12,100,88,68,21]",1.581176758,-6.113006592,1,0,0,1,49,130,18,1,LightGreen,LightGreen.jpg,DarkGreen,DarkGreen.jpg,,
,,,,,,,,,,,,,,,,,,2,,,,,,,,,,,,,,,,,,,,,,,,,,,,,,,001,2021-12-05_23h16.52.084,jm_natural_scene_simialrity_2-12-2021,2021.2.3,MacIntel,59.99880002,5fc89209c5116c1deec89f9b,61ad71e11ddd29ccf7a27d5b,61ad727a92cbf3629b3b8389,,,90.56085205,-86.34289551,1,0,0,response3disk,1.1835,-1.259033203,-8.744659424,1,0,0,rectangle,-1.259033203,-8.744659424,1,0,0,-1,-1,"[21,142,42,138,27,12,100,88,68,21]",-1.259033203,-8.744659424,1,0,0,1,50,131,77,1,Purple,Purple.jpg,LightBlue,LightBlue.jpg,,
,,,,,,,,,,,,,,,,,,-3,,,,,,,,,,,,,,,,,,,,,,,,,,,,,,,001,2021-12-05_23h16.52.084,jm_natural_scene_simialrity_2-12-2021,2021.2.3,MacIntel,59.99880002,5fc89209c5116c1deec89f9b,61ad71e11ddd29ccf7a27d5b,61ad727a92cbf3629b3b8389,,,-95.09960938,32.49240112,1,0,0,response7disk,0.8496,-18.47485352,-1.137359619,1,0,0,rectangle,-18.47485352,-1.137359619,1,0,0,-1,2,"[21,142,42,138,27,12,100,88,68,21]",-18.47485352,-1.137359619,1,0,0,1,51,132,69,1,Pink,Pink.jpg,DarkGreen,DarkGreen.jpg,,
,,,,,,,,,,,,,,,,,,-3,,,,,,,,,,,,,,,,,,,,,,,,,,,,,,,001,2021-12-05_23h16.52.084,jm_natural_scene_simialrity_2-12-2021,2021.2.3,MacIntel,59.99880002,5fc89209c5116c1deec89f9b,61ad71e11ddd29ccf7a27d5b,61ad727a92cbf3629b3b8389,,,-97.68640137,54.40933228,1,0,0,response7disk,1.0153,3.668273926,-11.14413452,1,0,0,rectangle,3.668273926,-11.14413452,1,0,0,-1,-1,"[21,142,42,138,27,12,100,88,68,21]",3.668273926,-11.14413452,1,0,0,1,52,133,56,1,LightBlue,LightBlue.jpg,Yellow,Yellow.jpg,,
,,,,,,,,,,,,,,,,,,-2,,,,,,,,,,,,,,,,,,,,,,,,,,,,,,,001,2021-12-05_23h16.52.084,jm_natural_scene_simialrity_2-12-2021,2021.2.3,MacIntel,59.99880002,5fc89209c5116c1deec89f9b,61ad71e11ddd29ccf7a27d5b,61ad727a92cbf3629b3b8389,,,-88.88726807,-39.12277222,1,0,0,response5disk,1.0339,-0.707458496,-1.309020996,1,0,0,rectangle,-0.707458496,-1.309020996,1,0,0,-1,2,"[21,142,42,138,27,12,100,88,68,21]",-0.707458496,-1.309020996,1,0,0,1,53,134,41,1,DarkBlue,DarkBlue.jpg,Purple,Purple.jpg,,
,,,,,,,,,,,,,,,,,,-2,,,,,,,,,,,,,,,,,,,,,,,,,,,,,,,001,2021-12-05_23h16.52.084,jm_natural_scene_simialrity_2-12-2021,2021.2.3,MacIntel,59.99880002,5fc89209c5116c1deec89f9b,61ad71e11ddd29ccf7a27d5b,61ad727a92cbf3629b3b8389,,,-72.59130859,-44.378479,1,0,0,response5disk,0.8336,1.599121094,-16.46640015,1,0,0,rectangle,1.599121094,-16.46640015,1,0,0,-1,2,"[21,142,42,138,27,12,100,88,68,21]",1.599121094,-16.46640015,1,0,0,1,54,135,54,1,DarkGreen,DarkGreen.jpg,Yellow,Yellow.jpg,,
,,,,,,,,,,,,,,,,,,-2,,,,,,,,,,,,,,,,,,,,,,,,,,,,,,,001,2021-12-05_23h16.52.084,jm_natural_scene_simialrity_2-12-2021,2021.2.3,MacIntel,59.99880002,5fc89209c5116c1deec89f9b,61ad71e11ddd29ccf7a27d5b,61ad727a92cbf3629b3b8389,,,-107.5062256,-68.3125,1,0,0,response5disk,0.9516,-13.78466797,-16.4921875,1,0,0,rectangle,-13.78466797,-16.4921875,1,0,0,-1,-2,"[21,142,42,138,27,12,100,88,68,21]",-13.78466797,-16.4921875,1,0,0,1,55,136,62,1,LightBlue,LightBlue.jpg,LightGreen,LightGreen.jpg,,
,,,,,,,,,,,,,,,,,,-2,,,,,,,,,,,,,,,,,,,,,,,,,,,,,,,001,2021-12-05_23h16.52.084,jm_natural_scene_simialrity_2-12-2021,2021.2.3,MacIntel,59.99880002,5fc89209c5116c1deec89f9b,61ad71e11ddd29ccf7a27d5b,61ad727a92cbf3629b3b8389,,,-88.4375,-38.93127441,1,0,0,response5disk,1.0657,-13.32592773,2.341369629,1,0,0,rectangle,39.31158447,-75.57061768,1,0,0,1,1,"[21,142,42,138,27,12,100,88,68,21]",-11.47583008,-15.0557251,1,0,0,1,56,137,12,1,Yellow,Yellow.jpg,Turquiose,Turquiose.jpg,response3disk_3,rectangle
,,,,,,,,,,,,,,,,,,4,,,,,,,,,,,,,,,,,,,,,,,,,,,,,,,001,2021-12-05_23h16.52.084,jm_natural_scene_simialrity_2-12-2021,2021.2.3,MacIntel,59.99880002,5fc89209c5116c1deec89f9b,61ad71e11ddd29ccf7a27d5b,61ad727a92cbf3629b3b8389,,,59.95153809,107.5380859,1,0,0,response1disk,0.8045,14.77526855,17.49234009,1,0,0,rectangle,14.77526855,17.49234009,1,0,0,1,-1,"[21,142,42,138,27,12,100,88,68,21]",14.77526855,17.49234009,1,0,0,1,57,138,44,1,Purple,Purple.jpg,Purple,Purple.jpg,,
,,,,,,,,,,,,,,,,,,2,,,,,,,,,,,,,,,,,,,,,,,,,,,,,,,001,2021-12-05_23h16.52.084,jm_natural_scene_simialrity_2-12-2021,2021.2.3,MacIntel,59.99880002,5fc89209c5116c1deec89f9b,61ad71e11ddd29ccf7a27d5b,61ad727a92cbf3629b3b8389,,,110.6574707,-50.57733154,1,0,0,response3disk,1.0315,5.863769531,1.009979248,1,0,0,rectangle,5.863769531,1.009979248,1,0,0,1,-2,"[21,142,42,138,27,12,100,88,68,21]",5.863769531,1.009979248,1,0,0,1,58,139,49,1,LightBlue,LightBlue.jpg,Red,Red.jpg,,
,,,,,,,,,,,,,,,,,,-1,,,,,,,,,,,,,,,,,,,,,,,,,,,,,,,001,2021-12-05_23h16.52.084,jm_natural_scene_simialrity_2-12-2021,2021.2.3,MacIntel,59.99880002,5fc89209c5116c1deec89f9b,61ad71e11ddd29ccf7a27d5b,61ad727a92cbf3629b3b8389,,,-43.97064209,-98.17004395,1,0,0,response5disk,1.1836,4.311828613,-16.29257202,1,0,0,rectangle,4.311828613,-16.29257202,1,0,0,1,1,"[21,142,42,138,27,12,100,88,68,21]",4.311828613,-16.29257202,1,0,0,1,59,140,16,1,Yellow,Yellow.jpg,Purple,Purple.jpg,,
,,,,,,,,,,,,,,,,,,-1,,,,,,,,,,,,,,,,,,,,,,,,,,,,,,,001,2021-12-05_23h16.52.084,jm_natural_scene_simialrity_2-12-2021,2021.2.3,MacIntel,59.99880002,5fc89209c5116c1deec89f9b,61ad71e11ddd29ccf7a27d5b,61ad727a92cbf3629b3b8389,,,-43.68383789,-63.35424805,1,0,0,response5disk,0.8996,7.035095215,-6.050811768,1,0,0,rectangle,75.07537842,31.22677612,1,0,0,3,3,"[21,142,42,138,27,12,100,88,68,21]",15.45794678,-5.267944336,1,0,0,1,60,141,59,1,Purple,Purple.jpg,Yellow,Yellow.jpg,response1disk_3,rectangle
,,,,,,,,,,,,,,,,,,2,,,,,,,,,,,,,,,,,,,,,,,,,,,,,,,001,2021-12-05_23h16.52.084,jm_natural_scene_simialrity_2-12-2021,2021.2.3,MacIntel,59.99880002,5fc89209c5116c1deec89f9b,61ad71e11ddd29ccf7a27d5b,61ad727a92cbf3629b3b8389,,,96.65179443,-46.0375061,1,0,0,response3disk,1.1978,-4.155883789,-11.09735107,1,0,0,rectangle,-4.155883789,-11.09735107,1,0,0,3,-3,"[21,142,42,138,27,12,100,88,68,21]",-4.155883789,-11.09735107,1,0,0,1,61,142,19,1,LightGreen,LightGreen.jpg,Turquiose,Turquiose.jpg,,
,,,,,,,,,,,,,,,,,,-2,,,,,,,,,,,,,,,,,,,,,,,,,,,,,,,001,2021-12-05_23h16.52.084,jm_natural_scene_simialrity_2-12-2021,2021.2.3,MacIntel,59.99880002,5fc89209c5116c1deec89f9b,61ad71e11ddd29ccf7a27d5b,61ad727a92cbf3629b3b8389,,,-94.67285156,-39.29605103,1,0,0,response5disk,0.8174,-5.01739502,-12.85824585,1,0,0,rectangle,-5.01739502,-12.85824585,1,0,0,3,-2,"[21,142,42,138,27,12,100,88,68,21]",-5.01739502,-12.85824585,1,0,0,1,62,143,33,1,Turquiose,Turquiose.jpg,Pink,Pink.jpg,,
,,,,,,,,,,,,,,,,,,-3,,,,,,,,,,,,,,,,,,,,,,,,,,,,,,,001,2021-12-05_23h16.52.084,jm_natural_scene_simialrity_2-12-2021,2021.2.3,MacIntel,59.99880002,5fc89209c5116c1deec89f9b,61ad71e11ddd29ccf7a27d5b,61ad727a92cbf3629b3b8389,,,-109.8010864,45.87158203,1,0,0,response7disk,1.0182,-10.03649902,-0.124542236,1,0,0,rectangle,-10.03649902,-0.124542236,1,0,0,3,-4,"[21,142,42,138,27,12,100,88,68,21]",-10.03649902,-0.124542236,1,0,0,1,63,144,64,1,Pink,Pink.jpg,LightGreen,LightGreen.jpg,,
,,,,,,,,,,,,,,,,,,-2,,,,,,,,,,,,,,,,,,,,,,,,,,,,,,,001,2021-12-05_23h16.52.084,jm_natural_scene_simialrity_2-12-2021,2021.2.3,MacIntel,59.99880002,5fc89209c5116c1deec89f9b,61ad71e11ddd29ccf7a27d5b,61ad727a92cbf3629b3b8389,,,-112.6688232,-74.88702393,1,0,0,response5disk,1.8005,13.1361084,13.28723145,1,0,0,rectangle,13.1361084,13.28723145,1,0,0,3,-4,"[21,142,42,138,27,12,100,88,68,21]",13.1361084,13.28723145,1,0,0,1,64,145,6,1,Red,Red.jpg,DarkBlue,DarkBlue.jpg,,
,,,,,,,,,,,,,,,,,,-3,,,,,,,,,,,,,,,,,,,,,,,,,,,,,,,001,2021-12-05_23h16.52.084,jm_natural_scene_simialrity_2-12-2021,2021.2.3,MacIntel,59.99880002,5fc89209c5116c1deec89f9b,61ad71e11ddd29ccf7a27d5b,61ad727a92cbf3629b3b8389,,,-110.5378418,48.01367188,1,0,0,response7disk,1.384,14.98760986,8.251159668,1,0,0,rectangle,14.98760986,8.251159668,1,0,0,3,-3,"[21,142,42,138,27,12,100,88,68,21]",14.98760986,8.251159668,1,0,0,1,65,146,26,1,DarkGreen,DarkGreen.jpg,LightBlue,LightBlue.jpg,,
,,,,,,,,,,,,,,,,,,4,,,,,,,,,,,,,,,,,,,,,,,,,,,,,,,001,2021-12-05_23h16.52.084,jm_natural_scene_simialrity_2-12-2021,2021.2.3,MacIntel,59.99880002,5fc89209c5116c1deec89f9b,61ad71e11ddd29ccf7a27d5b,61ad727a92cbf3629b3b8389,,,55.76135254,107.1371765,1,0,0,response1disk,0.7835,9.578735352,-16.53112793,1,0,0,rectangle,9.578735352,-16.53112793,1,0,0,3,3,"[21,142,42,138,27,12,100,88,68,21]",9.578735352,-16.53112793,1,0,0,1,66,147,30,1,Turquiose,Turquiose.jpg,Turquiose,Turquiose.jpg,,
,,,,,,,,,,,,,,,,,,-1,,,,,,,,,,,,,,,,,,,,,,,,,,,,,,,001,2021-12-05_23h16.52.084,jm_natural_scene_simialrity_2-12-2021,2021.2.3,MacIntel,59.99880002,5fc89209c5116c1deec89f9b,61ad71e11ddd29ccf7a27d5b,61ad727a92cbf3629b3b8389,,,-38.37799072,-81.21539307,1,0,0,response5disk,2.2815,4.961242676,-0.850494385,1,0,0,rectangle,4.961242676,-0.850494385,1,0,0,3,1,"[21,142,42,138,27,12,100,88,68,21]",4.961242676,-0.850494385,1,0,0,1,67,148,74,1,Purple,Purple.jpg,Turquiose,Turquiose.jpg,,
,,,,,,,,,,,,,,,,,,-3,,,,,,,,,,,,,,,,,,,,,,,,,,,,,,,001,2021-12-05_23h16.52.084,jm_natural_scene_simialrity_2-12-2021,2021.2.3,MacIntel,59.99880002,5fc89209c5116c1deec89f9b,61ad71e11ddd29ccf7a27d5b,61ad727a92cbf3629b3b8389,,,-73.71313477,54.97198486,1,0,0,response7disk,1.7829,-11.71875,-4.408172607,1,0,0,rectangle,-11.71875,-4.408172607,1,0,0,3,-4,"[21,142,42,138,27,12,100,88,68,21]",-11.71875,-4.408172607,1,0,0,1,68,149,67,1,LightBlue,LightBlue.jpg,DarkGreen,DarkGreen.jpg,,
,,,,,,,,,,,,,,,,,,-3,,,,,,,,,,,,,,,,,,,,,,,,,,,,,,,001,2021-12-05_23h16.52.084,jm_natural_scene_simialrity_2-12-2021,2021.2.3,MacIntel,59.99880002,5fc89209c5116c1deec89f9b,61ad71e11ddd29ccf7a27d5b,61ad727a92cbf3629b3b8389,,,-136.6658936,40.95059204,1,0,0,response7disk,0.9329,6.50567627,-1.299072266,1,0,0,rectangle,6.50567627,-1.299072266,1,0,0,3,3,"[21,142,42,138,27,12,100,88,68,21]",6.50567627,-1.299072266,1,0,0,1,69,150,11,1,Yellow,Yellow.jpg,DarkGreen,DarkGreen.jpg,,
,,,,,,,,,,,,,,,,,,4,,,,,,,,,,,,,,,,,,,,,,,,,,,,,,,001,2021-12-05_23h16.52.084,jm_natural_scene_simialrity_2-12-2021,2021.2.3,MacIntel,59.99880002,5fc89209c5116c1deec89f9b,61ad71e11ddd29ccf7a27d5b,61ad727a92cbf3629b3b8389,,,48.7512207,85.01980591,1,0,0,response1disk,1.0498,0.013977051,3.947509766,1,0,0,rectangle,0.013977051,3.947509766,1,0,0,3,2,"[21,142,42,138,27,12,100,88,68,21]",0.013977051,3.947509766,1,0,0,1,70,151,39,1,DarkBlue,DarkBlue.jpg,DarkBlue,DarkBlue.jpg,,
,,,,,,,,,,,,,,,,,,2,,,,,,,,,,,,,,,,,,,,,,,,,,,,,,,001,2021-12-05_23h16.52.084,jm_natural_scene_simialrity_2-12-2021,2021.2.3,MacIntel,59.99880002,5fc89209c5116c1deec89f9b,61ad71e11ddd29ccf7a27d5b,61ad727a92cbf3629b3b8389,,,59.57775879,-31.81289673,1,0,0,response3disk,1.6171,10.01947021,-6.591064453,1,0,0,rectangle,10.01947021,-6.591064453,1,0,0,3,-4,"[21,142,42,138,27,12,100,88,68,21]",10.01947021,-6.591064453,1,0,0,1,71,152,68,1,DarkBlue,DarkBlue.jpg,DarkGreen,DarkGreen.jpg,,
,,,,,,,,,,,,,,,,,,2,,,,,,,,,,,,,,,,,,,,,,,,,,,,,,,001,2021-12-05_23h16.52.084,jm_natural_scene_simialrity_2-12-2021,2021.2.3,MacIntel,59.99880002,5fc89209c5116c1deec89f9b,61ad71e11ddd29ccf7a27d5b,61ad727a92cbf3629b3b8389,,,70.24316406,-39.96963501,1,0,0,response3disk,0.8497,1.986816406,8.440795898,1,0,0,rectangle,1.986816406,8.440795898,1,0,0,3,-1,"[21,142,42,138,27,12,100,88,68,21]",1.986816406,8.440795898,1,0,0,1,72,153,21,1,LightGreen,LightGreen.jpg,DarkBlue,DarkBlue.jpg,,
,,,,,,,,,,,,,,,,,,-2,,,,,,,,,,,,,,,,,,,,,,,,,,,,,,,001,2021-12-05_23h16.52.084,jm_natural_scene_simialrity_2-12-2021,2021.2.3,MacIntel,59.99880002,5fc89209c5116c1deec89f9b,61ad71e11ddd29ccf7a27d5b,61ad727a92cbf3629b3b8389,,,-73.16552734,-42.15493774,1,0,0,response5disk,1.3663,-23.26367188,-18.2805481,1,0,0,rectangle,-23.26367188,-18.2805481,1,0,0,3,1,"[21,142,42,138,27,12,100,88,68,21]",-23.26367188,-18.2805481,1,0,0,1,73,154,5,1,Red,Red.jpg,LightBlue,LightBlue.jpg,,
,,,,,,,,,,,,,,,,,,-2,,,,,,,,,,,,,,,,,,,,,,,,,,,,,,,001,2021-12-05_23h16.52.084,jm_natural_scene_simialrity_2-12-2021,2021.2.3,MacIntel,59.99880002,5fc89209c5116c1deec89f9b,61ad71e11ddd29ccf7a27d5b,61ad727a92cbf3629b3b8389,,,-86.70391846,-48.33834839,1,0,0,response5disk,0.9839,-15.25054932,-20.98529053,1,0,0,rectangle,-15.25054932,-20.98529053,1,0,0,3,-1,"[21,142,42,138,27,12,100,88,68,21]",-15.25054932,-20.98529053,1,0,0,1,74,155,2,1,Red,Red.jpg,LightGreen,LightGreen.jpg,,
,,,,,,,,,,,,,,,,,,-2,,,,,,,,,,,,,,,,,,,,,,,,,,,,,,,001,2021-12-05_23h16.52.084,jm_natural_scene_simialrity_2-12-2021,2021.2.3,MacIntel,59.99880002,5fc89209c5116c1deec89f9b,61ad71e11ddd29ccf7a27d5b,61ad727a92cbf3629b3b8389,,,-104.7390747,-34.01513672,1,0,0,response5disk,1.4998,-14.5067749,-17.57781982,1,0,0,rectangle,-14.5067749,-17.57781982,1,0,0,3,2,"[21,142,42,138,27,12,100,88,68,21]",-14.5067749,-17.57781982,1,0,0,1,75,156,76,1,Pink,Pink.jpg,LightBlue,LightBlue.jpg,,
,,,,,,,,,,,,,,,,,,-3,,,,,,,,,,,,,,,,,,,,,,,,,,,,,,,001,2021-12-05_23h16.52.084,jm_natural_scene_simialrity_2-12-2021,2021.2.3,MacIntel,59.99880002,5fc89209c5116c1deec89f9b,61ad71e11ddd29ccf7a27d5b,61ad727a92cbf3629b3b8389,,,-125.2822876,79.72998047,1,0,0,response7disk,2.3507,-9.370727539,12.88122559,1,0,0,rectangle,-9.370727539,12.88122559,1,0,0,3,3,"[21,142,42,138,27,12,100,88,68,21]",-9.370727539,12.88122559,1,0,0,1,76,157,47,1,DarkGreen,DarkGreen.jpg,Red,Red.jpg,,
,,,,,,,,,,,,,,,,,,-3,,,,,,,,,,,,,,,,,,,,,,,,,,,,,,,001,2021-12-05_23h16.52.084,jm_natural_scene_simialrity_2-12-2021,2021.2.3,MacIntel,59.99880002,5fc89209c5116c1deec89f9b,61ad71e11ddd29ccf7a27d5b,61ad727a92cbf3629b3b8389,,,-100.4937744,39.26373291,1,0,0,response7disk,1.5491,2.995605469,17.39712524,1,0,0,rectangle,2.995605469,17.39712524,1,0,0,3,1,"[21,142,42,138,27,12,100,88,68,21]",2.995605469,17.39712524,1,0,0,1,77,158,4,1,Red,Red.jpg,Turquiose,Turquiose.jpg,,
,,,,,,,,,,,,,,,,,,-3,,,,,,,,,,,,,,,,,,,,,,,,,,,,,,,001,2021-12-05_23h16.52.084,jm_natural_scene_simialrity_2-12-2021,2021.2.3,MacIntel,59.99880002,5fc89209c5116c1deec89f9b,61ad71e11ddd29ccf7a27d5b,61ad727a92cbf3629b3b8389,,,-75.78570557,30.43676758,1,0,0,response7disk,1.2502,3.350341797,10.21664429,1,0,0,rectangle,3.350341797,10.21664429,1,0,0,3,-1,"[21,142,42,138,27,12,100,88,68,21]",3.350341797,10.21664429,1,0,0,1,78,159,31,1,Turquiose,Turquiose.jpg,LightBlue,LightBlue.jpg,,
,,,,,,,,,,,,,,,,,,-3,,,,,,,,,,,,,,,,,,,,,,,,,,,,,,,001,2021-12-05_23h16.52.084,jm_natural_scene_simialrity_2-12-2021,2021.2.3,MacIntel,59.99880002,5fc89209c5116c1deec89f9b,61ad71e11ddd29ccf7a27d5b,61ad727a92cbf3629b3b8389,,,-111.0841064,33.82394409,1,0,0,response7disk,0.9771,-17.49731445,-8.667816162,1,0,0,rectangle,-17.49731445,-8.667816162,1,0,0,3,-1,"[21,142,42,138,27,12,100,88,68,21]",-17.49731445,-8.667816162,1,0,0,1,79,160,78,1,Pink,Pink.jpg,DarkBlue,DarkBlue.jpg,,
,,,,,,,,,,,,,,,,,,1,,,,,,,,,,,,,,,,,,,,,,,,,,,,,,,001,2021-12-05_23h16.52.084,jm_natural_scene_simialrity_2-12-2021,2021.2.3,MacIntel,59.99880002,5fc89209c5116c1deec89f9b,61ad71e11ddd29ccf7a27d5b,61ad727a92cbf3629b3b8389,,,42.30236816,-84.52624512,1,0,0,response3disk,1.1999,-1.218322754,-2.065124512,1,0,0,rectangle,-1.218322754,-2.065124512,1,0,0,3,3,"[21,142,42,138,27,12,100,88,68,21]",-1.218322754,-2.065124512,1,0,0,1,80,161,32,1,Turquiose,Turquiose.jpg,DarkBlue,DarkBlue.jpg,,
