key_resp.keys,key_resp.rt,key_resp_16.keys,key_resp_16.rt,key_resp_2.keys,key_resp_2.rt,key_resp_3.keys,key_resp_3.rt,key_resp_19.keys,key_resp_19.rt,key_resp_10.keys,key_resp_10.rt,mouse_prac.x,mouse_prac.y,mouse_prac.leftButton,mouse_prac.midButton,mouse_prac.rightButton,mouse_prac.clicked_name,similarity,mouse_10.x,mouse_10.y,mouse_10.leftButton,mouse_10.midButton,mouse_10.rightButton,mouse_10.clicked_name,mouse_catch_prac.x,mouse_catch_prac.y,mouse_catch_prac.leftButton,mouse_catch_prac.midButton,mouse_catch_prac.rightButton,mouse_catch_prac.clicked_name,catchprac,catchnumberprac,mouse_6.x,mouse_6.y,mouse_6.leftButton,mouse_6.midButton,mouse_6.rightButton,mouse_6.clicked_name,during_prac.thisRepN,during_prac.thisTrialN,during_prac.thisN,during_prac.thisIndex,during_prac.ran,trailimage1,trial1adress,trailimage2,trial2adress,participant,session,date,expName,psychopyVersion,OS,frameRate,PROLIFIC_PID,STUDY_ID,SESSION_ID,key_resp_22.keys,key_resp_22.rt,mouse.x,mouse.y,mouse.leftButton,mouse.midButton,mouse.rightButton,mouse.clicked_name,response_time,mouse_2.x,mouse_2.y,mouse_2.leftButton,mouse_2.midButton,mouse_2.rightButton,mouse_2.clicked_name,mouse_3.x,mouse_3.y,mouse_3.leftButton,mouse_3.midButton,mouse_3.rightButton,catchresponse,catchnumber,catchtrialorder,mouse_11.x,mouse_11.y,mouse_11.leftButton,mouse_11.midButton,mouse_11.rightButton,trials_2.thisRepN,trials_2.thisTrialN,trials_2.thisN,trials_2.thisIndex,trials_2.ran,image1,image1adress,image2,image2adress,mouse_3.clicked_name,mouse_11.clicked_name
space,3.3219,space,2.9975,space,2.9681,space,17.8883,space,10.8607,space,2.1456,54,-58,1,0,0,response3disk_5,1,2,-14,1,0,0,rectangle_8,-54,124,1,0,0,response7disk_7,-4,-4,-2,15,1,0,0,rectangle_4,0,0,0,3,1,trail2,trail2.jpg,trail2,trail2.jpg,RETHA 616b4a94951835aed0530a7c,001,2021-12-06_04h18.33.315,jm_natural_scene_simialrity_2-12-2021,2021.2.3,Win32,60.69434329,616b4a94951835aed0530a7c,61ad71e11ddd29ccf7a27d5b,61ad72ae92cbf3629b3b838f,,,,,,,,,,,,,,,,,,,,,,,,,,,,,,,,,,,,,,,
,,,,,,,,,,,,52,93,1,0,0,response1disk_5,4,4,-12,1,0,0,rectangle_8,4,-12,1,0,0,,,-4,4,-12,1,0,0,,0,1,1,1,1,trail1,trail1.jpg,trail2,trail2.jpg,RETHA 616b4a94951835aed0530a7c,001,2021-12-06_04h18.33.315,jm_natural_scene_simialrity_2-12-2021,2021.2.3,Win32,60.69434329,616b4a94951835aed0530a7c,61ad71e11ddd29ccf7a27d5b,61ad72ae92cbf3629b3b838f,,,,,,,,,,,,,,,,,,,,,,,,,,,,,,,,,,,,,,,
,,,,,,,,,,,,-33,101,1,0,0,response7disk_5,-4,-3,-1,1,0,0,rectangle_8,-3,-1,1,0,0,,,-4,-3,-1,1,0,0,,0,2,2,4,1,trail2,trail2.jpg,trail3,trail3.jpg,RETHA 616b4a94951835aed0530a7c,001,2021-12-06_04h18.33.315,jm_natural_scene_simialrity_2-12-2021,2021.2.3,Win32,60.69434329,616b4a94951835aed0530a7c,61ad71e11ddd29ccf7a27d5b,61ad72ae92cbf3629b3b838f,,,,,,,,,,,,,,,,,,,,,,,,,,,,,,,,,,,,,,,
,,,,,,,,,,,,-72,-34,1,0,0,response5disk_5,-2,6,-1,1,0,0,rectangle_8,6,-1,1,0,0,,,-4,6,-1,1,0,0,,0,3,3,2,1,trail1,trail1.jpg,trail3,trail3.jpg,RETHA 616b4a94951835aed0530a7c,001,2021-12-06_04h18.33.315,jm_natural_scene_simialrity_2-12-2021,2021.2.3,Win32,60.69434329,616b4a94951835aed0530a7c,61ad71e11ddd29ccf7a27d5b,61ad72ae92cbf3629b3b838f,,,,,,,,,,,,,,,,,,,,,,,,,,,,,,,,,,,,,,,
,,,,,,,,,,,,46,129,1,0,0,response1disk_5,4,-10,1,1,0,0,rectangle_8,-41,90,1,0,0,response7disk_7,-4,-4,-2,-5,1,0,0,rectangle_4,0,4,4,5,1,trail3,trail3.jpg,trail3,trail3.jpg,RETHA 616b4a94951835aed0530a7c,001,2021-12-06_04h18.33.315,jm_natural_scene_simialrity_2-12-2021,2021.2.3,Win32,60.69434329,616b4a94951835aed0530a7c,61ad71e11ddd29ccf7a27d5b,61ad72ae92cbf3629b3b838f,,,,,,,,,,,,,,,,,,,,,,,,,,,,,,,,,,,,,,,
,,,,,,,,,,,,64,122,1,0,0,response1disk_5,4,2,3,1,0,0,rectangle_8,2,3,1,0,0,,,-4,2,3,1,0,0,,0,5,5,0,1,trail1,trail1.jpg,trail1,trail1.jpg,RETHA 616b4a94951835aed0530a7c,001,2021-12-06_04h18.33.315,jm_natural_scene_simialrity_2-12-2021,2021.2.3,Win32,60.69434329,616b4a94951835aed0530a7c,61ad71e11ddd29ccf7a27d5b,61ad72ae92cbf3629b3b838f,,,,,,,,,,,,,,,,,,,,,,,,,,,,,,,,,,,,,,,
,,,,,,,,,,,,,,,,,,4,,,,,,,,,,,,,,,,,,,,,,,,,,,,,,RETHA 616b4a94951835aed0530a7c,001,2021-12-06_04h18.33.315,jm_natural_scene_simialrity_2-12-2021,2021.2.3,Win32,60.69434329,616b4a94951835aed0530a7c,61ad71e11ddd29ccf7a27d5b,61ad72ae92cbf3629b3b838f,space,0.8194,37,112,1,0,0,response1disk,2.2802,9,0,1,0,0,rectangle,9,0,1,0,0,,-1,"[88,5,87,46,20,20,39,93,72,78]",9,0,1,0,0,0,0,0,48,1,Turquiose,Turquiose.jpg,Red,Red.jpg,,
,,,,,,,,,,,,,,,,,,-2,,,,,,,,,,,,,,,,,,,,,,,,,,,,,,RETHA 616b4a94951835aed0530a7c,001,2021-12-06_04h18.33.315,jm_natural_scene_simialrity_2-12-2021,2021.2.3,Win32,60.69434329,616b4a94951835aed0530a7c,61ad71e11ddd29ccf7a27d5b,61ad72ae92cbf3629b3b838f,,,-92,-39,1,0,0,response5disk,2.3889,-14,8,1,0,0,rectangle,-14,8,1,0,0,,-4,"[88,5,87,46,20,20,39,93,72,78]",-14,8,1,0,0,0,1,1,63,1,DarkBlue,DarkBlue.jpg,LightGreen,LightGreen.jpg,,
,,,,,,,,,,,,,,,,,,-2,,,,,,,,,,,,,,,,,,,,,,,,,,,,,,RETHA 616b4a94951835aed0530a7c,001,2021-12-06_04h18.33.315,jm_natural_scene_simialrity_2-12-2021,2021.2.3,Win32,60.69434329,616b4a94951835aed0530a7c,61ad71e11ddd29ccf7a27d5b,61ad72ae92cbf3629b3b838f,,,-90,-32,1,0,0,response5disk,1.7019,-12,-18,1,0,0,rectangle,-12,-18,1,0,0,,-2,"[88,5,87,46,20,20,39,93,72,78]",-12,-18,1,0,0,0,2,2,55,1,Turquiose,Turquiose.jpg,Yellow,Yellow.jpg,,
,,,,,,,,,,,,,,,,,,-4,,,,,,,,,,,,,,,,,,,,,,,,,,,,,,RETHA 616b4a94951835aed0530a7c,001,2021-12-06_04h18.33.315,jm_natural_scene_simialrity_2-12-2021,2021.2.3,Win32,60.69434329,616b4a94951835aed0530a7c,61ad71e11ddd29ccf7a27d5b,61ad72ae92cbf3629b3b838f,,,-43,98,1,0,0,response7disk,2.2817,11,-1,1,0,0,rectangle,11,-1,1,0,0,,-3,"[88,5,87,46,20,20,39,93,72,78]",11,-1,1,0,0,0,3,3,10,1,Yellow,Yellow.jpg,LightGreen,LightGreen.jpg,,
,,,,,,,,,,,,,,,,,,-4,,,,,,,,,,,,,,,,,,,,,,,,,,,,,,RETHA 616b4a94951835aed0530a7c,001,2021-12-06_04h18.33.315,jm_natural_scene_simialrity_2-12-2021,2021.2.3,Win32,60.69434329,616b4a94951835aed0530a7c,61ad71e11ddd29ccf7a27d5b,61ad72ae92cbf3629b3b838f,,,-51,87,1,0,0,response7disk,1.1356,10,7,1,0,0,rectangle,-64,-118,1,0,0,-1,-1,"[88,5,87,46,20,20,39,93,72,78]",-3,1,1,0,0,0,4,4,56,1,LightBlue,LightBlue.jpg,Yellow,Yellow.jpg,response5disk_3,rectangle
,,,,,,,,,,,,,,,,,,-4,,,,,,,,,,,,,,,,,,,,,,,,,,,,,,RETHA 616b4a94951835aed0530a7c,001,2021-12-06_04h18.33.315,jm_natural_scene_simialrity_2-12-2021,2021.2.3,Win32,60.69434329,616b4a94951835aed0530a7c,61ad71e11ddd29ccf7a27d5b,61ad72ae92cbf3629b3b838f,,,-58,100,1,0,0,response7disk,1.2031,-5,12,1,0,0,rectangle,-5,12,1,0,0,-1,-1,"[88,5,87,46,20,20,39,93,72,78]",-5,12,1,0,0,0,5,5,73,1,Pink,Pink.jpg,Turquiose,Turquiose.jpg,,
,,,,,,,,,,,,,,,,,,4,,,,,,,,,,,,,,,,,,,,,,,,,,,,,,RETHA 616b4a94951835aed0530a7c,001,2021-12-06_04h18.33.315,jm_natural_scene_simialrity_2-12-2021,2021.2.3,Win32,60.69434329,616b4a94951835aed0530a7c,61ad71e11ddd29ccf7a27d5b,61ad72ae92cbf3629b3b838f,,,45,131,1,0,0,response1disk,1.0994,4,-3,1,0,0,rectangle,4,-3,1,0,0,-1,-1,"[88,5,87,46,20,20,39,93,72,78]",4,-3,1,0,0,0,6,6,42,1,Pink,Pink.jpg,Pink,Pink.jpg,,
,,,,,,,,,,,,,,,,,,4,,,,,,,,,,,,,,,,,,,,,,,,,,,,,,RETHA 616b4a94951835aed0530a7c,001,2021-12-06_04h18.33.315,jm_natural_scene_simialrity_2-12-2021,2021.2.3,Win32,60.69434329,616b4a94951835aed0530a7c,61ad71e11ddd29ccf7a27d5b,61ad72ae92cbf3629b3b838f,,,29,88,1,0,0,response1disk,0.9872,15,-5,1,0,0,rectangle,15,-5,1,0,0,-1,-3,"[88,5,87,46,20,20,39,93,72,78]",15,-5,1,0,0,0,7,7,35,1,LightBlue,LightBlue.jpg,LightBlue,LightBlue.jpg,,
,,,,,,,,,,,,,,,,,,4,,,,,,,,,,,,,,,,,,,,,,,,,,,,,,RETHA 616b4a94951835aed0530a7c,001,2021-12-06_04h18.33.315,jm_natural_scene_simialrity_2-12-2021,2021.2.3,Win32,60.69434329,616b4a94951835aed0530a7c,61ad71e11ddd29ccf7a27d5b,61ad72ae92cbf3629b3b838f,,,32,82,1,0,0,response1disk,0.9346,-1,-22,1,0,0,rectangle,-1,-22,1,0,0,-1,3,"[88,5,87,46,20,20,39,93,72,78]",-1,-22,1,0,0,0,8,8,17,1,LightGreen,LightGreen.jpg,LightGreen,LightGreen.jpg,,
,,,,,,,,,,,,,,,,,,4,,,,,,,,,,,,,,,,,,,,,,,,,,,,,,RETHA 616b4a94951835aed0530a7c,001,2021-12-06_04h18.33.315,jm_natural_scene_simialrity_2-12-2021,2021.2.3,Win32,60.69434329,616b4a94951835aed0530a7c,61ad71e11ddd29ccf7a27d5b,61ad72ae92cbf3629b3b838f,,,46,96,1,0,0,response1disk,1.0357,19,9,1,0,0,rectangle,19,9,1,0,0,-1,-2,"[88,5,87,46,20,20,39,93,72,78]",19,9,1,0,0,0,9,9,30,1,Turquiose,Turquiose.jpg,Turquiose,Turquiose.jpg,,
,,,,,,,,,,,,,,,,,,4,,,,,,,,,,,,,,,,,,,,,,,,,,,,,,RETHA 616b4a94951835aed0530a7c,001,2021-12-06_04h18.33.315,jm_natural_scene_simialrity_2-12-2021,2021.2.3,Win32,60.69434329,616b4a94951835aed0530a7c,61ad71e11ddd29ccf7a27d5b,61ad72ae92cbf3629b3b838f,,,56,130,1,0,0,response1disk,0.9026,-8,-5,1,0,0,rectangle,-8,-5,1,0,0,-1,-3,"[88,5,87,46,20,20,39,93,72,78]",-8,-5,1,0,0,0,10,10,0,1,Red,Red.jpg,Red,Red.jpg,,
,,,,,,,,,,,,,,,,,,-4,,,,,,,,,,,,,,,,,,,,,,,,,,,,,,RETHA 616b4a94951835aed0530a7c,001,2021-12-06_04h18.33.315,jm_natural_scene_simialrity_2-12-2021,2021.2.3,Win32,60.69434329,616b4a94951835aed0530a7c,61ad71e11ddd29ccf7a27d5b,61ad72ae92cbf3629b3b838f,,,-49,107,1,0,0,response7disk,1.7189,5,3,1,0,0,rectangle,5,3,1,0,0,-1,-3,"[88,5,87,46,20,20,39,93,72,78]",5,3,1,0,0,0,11,11,66,1,Turquiose,Turquiose.jpg,DarkGreen,DarkGreen.jpg,,
,,,,,,,,,,,,,,,,,,-4,,,,,,,,,,,,,,,,,,,,,,,,,,,,,,RETHA 616b4a94951835aed0530a7c,001,2021-12-06_04h18.33.315,jm_natural_scene_simialrity_2-12-2021,2021.2.3,Win32,60.69434329,616b4a94951835aed0530a7c,61ad71e11ddd29ccf7a27d5b,61ad72ae92cbf3629b3b838f,,,-39,91,1,0,0,response7disk,1.0839,1,-5,1,0,0,rectangle,1,-5,1,0,0,-1,-4,"[88,5,87,46,20,20,39,93,72,78]",1,-5,1,0,0,0,12,12,61,1,Turquiose,Turquiose.jpg,LightGreen,LightGreen.jpg,,
,,,,,,,,,,,,,,,,,,-4,,,,,,,,,,,,,,,,,,,,,,,,,,,,,,RETHA 616b4a94951835aed0530a7c,001,2021-12-06_04h18.33.315,jm_natural_scene_simialrity_2-12-2021,2021.2.3,Win32,60.69434329,616b4a94951835aed0530a7c,61ad71e11ddd29ccf7a27d5b,61ad72ae92cbf3629b3b838f,,,-30,103,1,0,0,response7disk,1.0893,5,-10,1,0,0,rectangle,5,-10,1,0,0,-1,3,"[88,5,87,46,20,20,39,93,72,78]",5,-10,1,0,0,0,13,13,1,1,Red,Red.jpg,Yellow,Yellow.jpg,,
,,,,,,,,,,,,,,,,,,-4,,,,,,,,,,,,,,,,,,,,,,,,,,,,,,RETHA 616b4a94951835aed0530a7c,001,2021-12-06_04h18.33.315,jm_natural_scene_simialrity_2-12-2021,2021.2.3,Win32,60.69434329,616b4a94951835aed0530a7c,61ad71e11ddd29ccf7a27d5b,61ad72ae92cbf3629b3b838f,,,-55,81,1,0,0,response7disk,1.7537,6,6,1,0,0,rectangle,6,6,1,0,0,-1,-3,"[88,5,87,46,20,20,39,93,72,78]",6,6,1,0,0,0,14,14,41,1,DarkBlue,DarkBlue.jpg,Purple,Purple.jpg,,
,,,,,,,,,,,,,,,,,,-4,,,,,,,,,,,,,,,,,,,,,,,,,,,,,,RETHA 616b4a94951835aed0530a7c,001,2021-12-06_04h18.33.315,jm_natural_scene_simialrity_2-12-2021,2021.2.3,Win32,60.69434329,616b4a94951835aed0530a7c,61ad71e11ddd29ccf7a27d5b,61ad72ae92cbf3629b3b838f,,,-52,96,1,0,0,response7disk,1.0518,1,2,1,0,0,rectangle,1,2,1,0,0,-1,3,"[88,5,87,46,20,20,39,93,72,78]",1,2,1,0,0,0,15,15,76,1,Pink,Pink.jpg,LightBlue,LightBlue.jpg,,
,,,,,,,,,,,,,,,,,,-4,,,,,,,,,,,,,,,,,,,,,,,,,,,,,,RETHA 616b4a94951835aed0530a7c,001,2021-12-06_04h18.33.315,jm_natural_scene_simialrity_2-12-2021,2021.2.3,Win32,60.69434329,616b4a94951835aed0530a7c,61ad71e11ddd29ccf7a27d5b,61ad72ae92cbf3629b3b838f,,,-41,85,1,0,0,response7disk,0.8687,10,-6,1,0,0,rectangle,10,-6,1,0,0,-1,-4,"[88,5,87,46,20,20,39,93,72,78]",10,-6,1,0,0,0,16,16,31,1,Turquiose,Turquiose.jpg,LightBlue,LightBlue.jpg,,
,,,,,,,,,,,,,,,,,,4,,,,,,,,,,,,,,,,,,,,,,,,,,,,,,RETHA 616b4a94951835aed0530a7c,001,2021-12-06_04h18.33.315,jm_natural_scene_simialrity_2-12-2021,2021.2.3,Win32,60.69434329,616b4a94951835aed0530a7c,61ad71e11ddd29ccf7a27d5b,61ad72ae92cbf3629b3b838f,,,39,82,1,0,0,response1disk,0.8666,10,-16,1,0,0,rectangle,10,-16,1,0,0,-1,3,"[88,5,87,46,20,20,39,93,72,78]",10,-16,1,0,0,0,17,17,44,1,Purple,Purple.jpg,Purple,Purple.jpg,,
,,,,,,,,,,,,,,,,,,4,,,,,,,,,,,,,,,,,,,,,,,,,,,,,,RETHA 616b4a94951835aed0530a7c,001,2021-12-06_04h18.33.315,jm_natural_scene_simialrity_2-12-2021,2021.2.3,Win32,60.69434329,616b4a94951835aed0530a7c,61ad71e11ddd29ccf7a27d5b,61ad72ae92cbf3629b3b838f,,,25,87,1,0,0,response1disk,1.1702,0,4,1,0,0,rectangle,0,4,1,0,0,-1,-2,"[88,5,87,46,20,20,39,93,72,78]",0,4,1,0,0,0,18,18,26,1,DarkGreen,DarkGreen.jpg,LightBlue,LightBlue.jpg,,
,,,,,,,,,,,,,,,,,,-4,,,,,,,,,,,,,,,,,,,,,,,,,,,,,,RETHA 616b4a94951835aed0530a7c,001,2021-12-06_04h18.33.315,jm_natural_scene_simialrity_2-12-2021,2021.2.3,Win32,60.69434329,616b4a94951835aed0530a7c,61ad71e11ddd29ccf7a27d5b,61ad72ae92cbf3629b3b838f,,,-63,89,1,0,0,response7disk,0.9198,-7,11,1,0,0,rectangle,-53,123,1,0,0,-4,-4,"[88,5,87,46,20,20,39,93,72,78]",-3,-16,1,0,0,0,19,19,64,1,Pink,Pink.jpg,LightGreen,LightGreen.jpg,response7disk_3,rectangle
,,,,,,,,,,,,,,,,,,-4,,,,,,,,,,,,,,,,,,,,,,,,,,,,,,RETHA 616b4a94951835aed0530a7c,001,2021-12-06_04h18.33.315,jm_natural_scene_simialrity_2-12-2021,2021.2.3,Win32,60.69434329,616b4a94951835aed0530a7c,61ad71e11ddd29ccf7a27d5b,61ad72ae92cbf3629b3b838f,,,-37,98,1,0,0,response7disk,1.4859,-3,12,1,0,0,rectangle,-3,12,1,0,0,-4,-2,"[88,5,87,46,20,20,39,93,72,78]",-3,12,1,0,0,0,20,20,72,1,DarkBlue,DarkBlue.jpg,Turquiose,Turquiose.jpg,,
,,,,,,,,,,,,,,,,,,-4,,,,,,,,,,,,,,,,,,,,,,,,,,,,,,RETHA 616b4a94951835aed0530a7c,001,2021-12-06_04h18.33.315,jm_natural_scene_simialrity_2-12-2021,2021.2.3,Win32,60.69434329,616b4a94951835aed0530a7c,61ad71e11ddd29ccf7a27d5b,61ad72ae92cbf3629b3b838f,,,-62,117,1,0,0,response7disk,0.8361,7,4,1,0,0,rectangle,7,4,1,0,0,-4,-2,"[88,5,87,46,20,20,39,93,72,78]",7,4,1,0,0,0,21,21,58,1,Pink,Pink.jpg,Yellow,Yellow.jpg,,
,,,,,,,,,,,,,,,,,,-4,,,,,,,,,,,,,,,,,,,,,,,,,,,,,,RETHA 616b4a94951835aed0530a7c,001,2021-12-06_04h18.33.315,jm_natural_scene_simialrity_2-12-2021,2021.2.3,Win32,60.69434329,616b4a94951835aed0530a7c,61ad71e11ddd29ccf7a27d5b,61ad72ae92cbf3629b3b838f,,,-37,87,1,0,0,response7disk,0.8693,16,-18,1,0,0,rectangle,16,-18,1,0,0,-4,3,"[88,5,87,46,20,20,39,93,72,78]",16,-18,1,0,0,0,22,22,40,1,DarkBlue,DarkBlue.jpg,Pink,Pink.jpg,,
,,,,,,,,,,,,,,,,,,-4,,,,,,,,,,,,,,,,,,,,,,,,,,,,,,RETHA 616b4a94951835aed0530a7c,001,2021-12-06_04h18.33.315,jm_natural_scene_simialrity_2-12-2021,2021.2.3,Win32,60.69434329,616b4a94951835aed0530a7c,61ad71e11ddd29ccf7a27d5b,61ad72ae92cbf3629b3b838f,,,-20,111,1,0,0,response7disk,1.0047,9,14,1,0,0,rectangle,9,14,1,0,0,-4,-3,"[88,5,87,46,20,20,39,93,72,78]",9,14,1,0,0,0,23,23,34,1,Turquiose,Turquiose.jpg,Purple,Purple.jpg,,
,,,,,,,,,,,,,,,,,,-4,,,,,,,,,,,,,,,,,,,,,,,,,,,,,,RETHA 616b4a94951835aed0530a7c,001,2021-12-06_04h18.33.315,jm_natural_scene_simialrity_2-12-2021,2021.2.3,Win32,60.69434329,616b4a94951835aed0530a7c,61ad71e11ddd29ccf7a27d5b,61ad72ae92cbf3629b3b838f,,,-41,79,1,0,0,response7disk,0.8354,17,-17,1,0,0,rectangle,17,-17,1,0,0,2,-1,"[88,5,87,46,20,20,39,93,72,78]",17,-17,1,0,0,0,24,24,75,1,DarkBlue,DarkBlue.jpg,LightBlue,LightBlue.jpg,,
,,,,,,,,,,,,,,,,,,4,,,,,,,,,,,,,,,,,,,,,,,,,,,,,,RETHA 616b4a94951835aed0530a7c,001,2021-12-06_04h18.33.315,jm_natural_scene_simialrity_2-12-2021,2021.2.3,Win32,60.69434329,616b4a94951835aed0530a7c,61ad71e11ddd29ccf7a27d5b,61ad72ae92cbf3629b3b838f,,,44,100,1,0,0,response1disk,1.0878,-8,-15,1,0,0,rectangle,-8,-15,1,0,0,2,2,"[88,5,87,46,20,20,39,93,72,78]",-8,-15,1,0,0,0,25,25,9,1,Yellow,Yellow.jpg,Yellow,Yellow.jpg,,
,,,,,,,,,,,,,,,,,,-3,,,,,,,,,,,,,,,,,,,,,,,,,,,,,,RETHA 616b4a94951835aed0530a7c,001,2021-12-06_04h18.33.315,jm_natural_scene_simialrity_2-12-2021,2021.2.3,Win32,60.69434329,616b4a94951835aed0530a7c,61ad71e11ddd29ccf7a27d5b,61ad72ae92cbf3629b3b838f,,,-101,59,1,0,0,response7disk,2.1041,-7,15,1,0,0,rectangle,-7,15,1,0,0,2,-2,"[88,5,87,46,20,20,39,93,72,78]",-7,15,1,0,0,0,26,26,6,1,Red,Red.jpg,DarkBlue,DarkBlue.jpg,,
,,,,,,,,,,,,,,,,,,-3,,,,,,,,,,,,,,,,,,,,,,,,,,,,,,RETHA 616b4a94951835aed0530a7c,001,2021-12-06_04h18.33.315,jm_natural_scene_simialrity_2-12-2021,2021.2.3,Win32,60.69434329,616b4a94951835aed0530a7c,61ad71e11ddd29ccf7a27d5b,61ad72ae92cbf3629b3b838f,,,-73,40,1,0,0,response7disk,0.9882,-5,7,1,0,0,rectangle,-5,7,1,0,0,2,-2,"[88,5,87,46,20,20,39,93,72,78]",-5,7,1,0,0,0,27,27,62,1,LightBlue,LightBlue.jpg,LightGreen,LightGreen.jpg,,
,,,,,,,,,,,,,,,,,,-4,,,,,,,,,,,,,,,,,,,,,,,,,,,,,,RETHA 616b4a94951835aed0530a7c,001,2021-12-06_04h18.33.315,jm_natural_scene_simialrity_2-12-2021,2021.2.3,Win32,60.69434329,616b4a94951835aed0530a7c,61ad71e11ddd29ccf7a27d5b,61ad72ae92cbf3629b3b838f,,,-65,123,1,0,0,response7disk,1.3857,10,6,1,0,0,rectangle,10,6,1,0,0,2,-1,"[88,5,87,46,20,20,39,93,72,78]",10,6,1,0,0,0,28,28,54,1,DarkGreen,DarkGreen.jpg,Yellow,Yellow.jpg,,
,,,,,,,,,,,,,,,,,,-4,,,,,,,,,,,,,,,,,,,,,,,,,,,,,,RETHA 616b4a94951835aed0530a7c,001,2021-12-06_04h18.33.315,jm_natural_scene_simialrity_2-12-2021,2021.2.3,Win32,60.69434329,616b4a94951835aed0530a7c,61ad71e11ddd29ccf7a27d5b,61ad72ae92cbf3629b3b838f,,,-57,96,1,0,0,response7disk,1.0532,7,-12,1,0,0,rectangle,7,-12,1,0,0,2,-3,"[88,5,87,46,20,20,39,93,72,78]",7,-12,1,0,0,0,29,29,70,1,Purple,Purple.jpg,DarkGreen,DarkGreen.jpg,,
,,,,,,,,,,,,,,,,,,-4,,,,,,,,,,,,,,,,,,,,,,,,,,,,,,RETHA 616b4a94951835aed0530a7c,001,2021-12-06_04h18.33.315,jm_natural_scene_simialrity_2-12-2021,2021.2.3,Win32,60.69434329,616b4a94951835aed0530a7c,61ad71e11ddd29ccf7a27d5b,61ad72ae92cbf3629b3b838f,,,-53,78,1,0,0,response7disk,0.8535,-12,5,1,0,0,rectangle,-12,5,1,0,0,2,3,"[88,5,87,46,20,20,39,93,72,78]",-12,5,1,0,0,0,30,30,25,1,DarkGreen,DarkGreen.jpg,Turquiose,Turquiose.jpg,,
,,,,,,,,,,,,,,,,,,-4,,,,,,,,,,,,,,,,,,,,,,,,,,,,,,RETHA 616b4a94951835aed0530a7c,001,2021-12-06_04h18.33.315,jm_natural_scene_simialrity_2-12-2021,2021.2.3,Win32,60.69434329,616b4a94951835aed0530a7c,61ad71e11ddd29ccf7a27d5b,61ad72ae92cbf3629b3b838f,,,-70,97,1,0,0,response7disk,0.8689,-7,15,1,0,0,rectangle,-7,15,1,0,0,2,2,"[88,5,87,46,20,20,39,93,72,78]",-7,15,1,0,0,0,31,31,71,1,LightBlue,LightBlue.jpg,Turquiose,Turquiose.jpg,,
,,,,,,,,,,,,,,,,,,-4,,,,,,,,,,,,,,,,,,,,,,,,,,,,,,RETHA 616b4a94951835aed0530a7c,001,2021-12-06_04h18.33.315,jm_natural_scene_simialrity_2-12-2021,2021.2.3,Win32,60.69434329,616b4a94951835aed0530a7c,61ad71e11ddd29ccf7a27d5b,61ad72ae92cbf3629b3b838f,,,-67,116,1,0,0,response7disk,0.8522,11,5,1,0,0,rectangle,11,5,1,0,0,2,1,"[88,5,87,46,20,20,39,93,72,78]",11,5,1,0,0,0,32,32,68,1,DarkBlue,DarkBlue.jpg,DarkGreen,DarkGreen.jpg,,
,,,,,,,,,,,,,,,,,,-4,,,,,,,,,,,,,,,,,,,,,,,,,,,,,,RETHA 616b4a94951835aed0530a7c,001,2021-12-06_04h18.33.315,jm_natural_scene_simialrity_2-12-2021,2021.2.3,Win32,60.69434329,616b4a94951835aed0530a7c,61ad71e11ddd29ccf7a27d5b,61ad72ae92cbf3629b3b838f,,,-54,126,1,0,0,response7disk,1.5709,10,19,1,0,0,rectangle,10,19,1,0,0,2,-2,"[88,5,87,46,20,20,39,93,72,78]",10,19,1,0,0,0,33,33,46,1,LightGreen,LightGreen.jpg,Red,Red.jpg,,
,,,,,,,,,,,,,,,,,,-4,,,,,,,,,,,,,,,,,,,,,,,,,,,,,,RETHA 616b4a94951835aed0530a7c,001,2021-12-06_04h18.33.315,jm_natural_scene_simialrity_2-12-2021,2021.2.3,Win32,60.69434329,616b4a94951835aed0530a7c,61ad71e11ddd29ccf7a27d5b,61ad72ae92cbf3629b3b838f,,,-30,81,1,0,0,response7disk,0.7999,1,15,1,0,0,rectangle,1,15,1,0,0,2,3,"[88,5,87,46,20,20,39,93,72,78]",1,15,1,0,0,0,34,34,53,1,LightGreen,LightGreen.jpg,Yellow,Yellow.jpg,,
,,,,,,,,,,,,,,,,,,-4,,,,,,,,,,,,,,,,,,,,,,,,,,,,,,RETHA 616b4a94951835aed0530a7c,001,2021-12-06_04h18.33.315,jm_natural_scene_simialrity_2-12-2021,2021.2.3,Win32,60.69434329,616b4a94951835aed0530a7c,61ad71e11ddd29ccf7a27d5b,61ad72ae92cbf3629b3b838f,,,-37,69,1,0,0,response7disk,0.8175,12,-7,1,0,0,rectangle,12,-7,1,0,0,2,-4,"[88,5,87,46,20,20,39,93,72,78]",12,-7,1,0,0,0,35,35,36,1,LightBlue,LightBlue.jpg,DarkBlue,DarkBlue.jpg,,
,,,,,,,,,,,,,,,,,,-4,,,,,,,,,,,,,,,,,,,,,,,,,,,,,,RETHA 616b4a94951835aed0530a7c,001,2021-12-06_04h18.33.315,jm_natural_scene_simialrity_2-12-2021,2021.2.3,Win32,60.69434329,616b4a94951835aed0530a7c,61ad71e11ddd29ccf7a27d5b,61ad72ae92cbf3629b3b838f,,,-33,65,1,0,0,response7disk,0.7496,-3,9,1,0,0,rectangle,-3,9,1,0,0,2,-1,"[88,5,87,46,20,20,39,93,72,78]",-3,9,1,0,0,0,36,36,4,1,Red,Red.jpg,Turquiose,Turquiose.jpg,,
,,,,,,,,,,,,,,,,,,-4,,,,,,,,,,,,,,,,,,,,,,,,,,,,,,RETHA 616b4a94951835aed0530a7c,001,2021-12-06_04h18.33.315,jm_natural_scene_simialrity_2-12-2021,2021.2.3,Win32,60.69434329,616b4a94951835aed0530a7c,61ad71e11ddd29ccf7a27d5b,61ad72ae92cbf3629b3b838f,,,-38,71,1,0,0,response7disk,3.6053,-9,2,1,0,0,rectangle,-9,2,1,0,0,2,-4,"[88,5,87,46,20,20,39,93,72,78]",-9,2,1,0,0,0,37,37,27,1,DarkGreen,DarkGreen.jpg,DarkBlue,DarkBlue.jpg,,
,,,,,,,,,,,,,,,,,,4,,,,,,,,,,,,,,,,,,,,,,,,,,,,,,RETHA 616b4a94951835aed0530a7c,001,2021-12-06_04h18.33.315,jm_natural_scene_simialrity_2-12-2021,2021.2.3,Win32,60.69434329,616b4a94951835aed0530a7c,61ad71e11ddd29ccf7a27d5b,61ad72ae92cbf3629b3b838f,,,46,103,1,0,0,response1disk,0.9688,19,20,1,0,0,rectangle,100,45,1,0,0,3,3,"[88,5,87,46,20,20,39,93,72,78]",5,-3,1,0,0,0,38,38,24,1,DarkGreen,DarkGreen.jpg,DarkGreen,DarkGreen.jpg,response1disk_3,rectangle
,,,,,,,,,,,,,,,,,,-4,,,,,,,,,,,,,,,,,,,,,,,,,,,,,,RETHA 616b4a94951835aed0530a7c,001,2021-12-06_04h18.33.315,jm_natural_scene_simialrity_2-12-2021,2021.2.3,Win32,60.69434329,616b4a94951835aed0530a7c,61ad71e11ddd29ccf7a27d5b,61ad72ae92cbf3629b3b838f,,,-38,97,1,0,0,response7disk,1.1528,-2,-20,1,0,0,rectangle,-2,-20,1,0,0,3,1,"[88,5,87,46,20,20,39,93,72,78]",-2,-20,1,0,0,0,39,39,67,1,LightBlue,LightBlue.jpg,DarkGreen,DarkGreen.jpg,,
,,,,,,,,,,,,,,,,,,-4,,,,,,,,,,,,,,,,,,,,,,,,,,,,,,RETHA 616b4a94951835aed0530a7c,001,2021-12-06_04h18.33.315,jm_natural_scene_simialrity_2-12-2021,2021.2.3,Win32,60.69434329,616b4a94951835aed0530a7c,61ad71e11ddd29ccf7a27d5b,61ad72ae92cbf3629b3b838f,,,-36,80,1,0,0,response7disk,0.8534,18,-24,1,0,0,rectangle,18,-24,1,0,0,1,3,"[88,5,87,46,20,20,39,93,72,78]",18,-24,1,0,0,0,40,40,37,1,LightBlue,LightBlue.jpg,Pink,Pink.jpg,,
,,,,,,,,,,,,,,,,,,-4,,,,,,,,,,,,,,,,,,,,,,,,,,,,,,RETHA 616b4a94951835aed0530a7c,001,2021-12-06_04h18.33.315,jm_natural_scene_simialrity_2-12-2021,2021.2.3,Win32,60.69434329,616b4a94951835aed0530a7c,61ad71e11ddd29ccf7a27d5b,61ad72ae92cbf3629b3b838f,,,-36,108,1,0,0,response7disk,1.6364,15,3,1,0,0,rectangle,15,3,1,0,0,1,-4,"[88,5,87,46,20,20,39,93,72,78]",15,3,1,0,0,0,41,41,3,1,Red,Red.jpg,DarkGreen,DarkGreen.jpg,,
,,,,,,,,,,,,,,,,,,4,,,,,,,,,,,,,,,,,,,,,,,,,,,,,,RETHA 616b4a94951835aed0530a7c,001,2021-12-06_04h18.33.315,jm_natural_scene_simialrity_2-12-2021,2021.2.3,Win32,60.69434329,616b4a94951835aed0530a7c,61ad71e11ddd29ccf7a27d5b,61ad72ae92cbf3629b3b838f,,,35,67,1,0,0,response1disk,2.8016,9,-15,1,0,0,rectangle,9,-15,1,0,0,1,2,"[88,5,87,46,20,20,39,93,72,78]",9,-15,1,0,0,0,42,42,49,1,LightBlue,LightBlue.jpg,Red,Red.jpg,,
,,,,,,,,,,,,,,,,,,-4,,,,,,,,,,,,,,,,,,,,,,,,,,,,,,RETHA 616b4a94951835aed0530a7c,001,2021-12-06_04h18.33.315,jm_natural_scene_simialrity_2-12-2021,2021.2.3,Win32,60.69434329,616b4a94951835aed0530a7c,61ad71e11ddd29ccf7a27d5b,61ad72ae92cbf3629b3b838f,,,-57,84,1,0,0,response7disk,0.9017,7,-2,1,0,0,rectangle,7,-2,1,0,0,1,-3,"[88,5,87,46,20,20,39,93,72,78]",7,-2,1,0,0,0,43,43,79,1,Purple,Purple.jpg,DarkBlue,DarkBlue.jpg,,
,,,,,,,,,,,,,,,,,,-4,,,,,,,,,,,,,,,,,,,,,,,,,,,,,,RETHA 616b4a94951835aed0530a7c,001,2021-12-06_04h18.33.315,jm_natural_scene_simialrity_2-12-2021,2021.2.3,Win32,60.69434329,616b4a94951835aed0530a7c,61ad71e11ddd29ccf7a27d5b,61ad72ae92cbf3629b3b838f,,,-54,89,1,0,0,response7disk,0.8689,12,-7,1,0,0,rectangle,12,-7,1,0,0,1,1,"[88,5,87,46,20,20,39,93,72,78]",12,-7,1,0,0,0,44,44,15,1,Yellow,Yellow.jpg,Pink,Pink.jpg,,
,,,,,,,,,,,,,,,,,,-4,,,,,,,,,,,,,,,,,,,,,,,,,,,,,,RETHA 616b4a94951835aed0530a7c,001,2021-12-06_04h18.33.315,jm_natural_scene_simialrity_2-12-2021,2021.2.3,Win32,60.69434329,616b4a94951835aed0530a7c,61ad71e11ddd29ccf7a27d5b,61ad72ae92cbf3629b3b838f,,,-36,86,1,0,0,response7disk,0.7855,7,7,1,0,0,rectangle,-24,64,1,0,0,-4,1,"[88,5,87,46,20,20,39,93,72,78]",-1,3,1,0,0,0,45,45,2,1,Red,Red.jpg,LightGreen,LightGreen.jpg,response7disk_3,rectangle
,,,,,,,,,,,,,,,,,,-4,,,,,,,,,,,,,,,,,,,,,,,,,,,,,,RETHA 616b4a94951835aed0530a7c,001,2021-12-06_04h18.33.315,jm_natural_scene_simialrity_2-12-2021,2021.2.3,Win32,60.69434329,616b4a94951835aed0530a7c,61ad71e11ddd29ccf7a27d5b,61ad72ae92cbf3629b3b838f,,,-39,72,1,0,0,response7disk,0.9542,-4,-4,1,0,0,rectangle,-4,-4,1,0,0,-4,-1,"[88,5,87,46,20,20,39,93,72,78]",-4,-4,1,0,0,0,46,46,28,1,DarkGreen,DarkGreen.jpg,Pink,Pink.jpg,,
,,,,,,,,,,,,,,,,,,-4,,,,,,,,,,,,,,,,,,,,,,,,,,,,,,RETHA 616b4a94951835aed0530a7c,001,2021-12-06_04h18.33.315,jm_natural_scene_simialrity_2-12-2021,2021.2.3,Win32,60.69434329,616b4a94951835aed0530a7c,61ad71e11ddd29ccf7a27d5b,61ad72ae92cbf3629b3b838f,,,-53,103,1,0,0,response7disk,0.7713,-2,-12,1,0,0,rectangle,-2,-12,1,0,0,-4,2,"[88,5,87,46,20,20,39,93,72,78]",-2,-12,1,0,0,0,47,47,43,1,Pink,Pink.jpg,Purple,Purple.jpg,,
,,,,,,,,,,,,,,,,,,-4,,,,,,,,,,,,,,,,,,,,,,,,,,,,,,RETHA 616b4a94951835aed0530a7c,001,2021-12-06_04h18.33.315,jm_natural_scene_simialrity_2-12-2021,2021.2.3,Win32,60.69434329,616b4a94951835aed0530a7c,61ad71e11ddd29ccf7a27d5b,61ad72ae92cbf3629b3b838f,,,-56,115,1,0,0,response7disk,0.866,6,1,1,0,0,rectangle,6,1,1,0,0,-4,-4,"[88,5,87,46,20,20,39,93,72,78]",6,1,1,0,0,0,48,48,74,1,Purple,Purple.jpg,Turquiose,Turquiose.jpg,,
,,,,,,,,,,,,,,,,,,-4,,,,,,,,,,,,,,,,,,,,,,,,,,,,,,RETHA 616b4a94951835aed0530a7c,001,2021-12-06_04h18.33.315,jm_natural_scene_simialrity_2-12-2021,2021.2.3,Win32,60.69434329,616b4a94951835aed0530a7c,61ad71e11ddd29ccf7a27d5b,61ad72ae92cbf3629b3b838f,,,-52,138,1,0,0,response7disk,0.7547,9,9,1,0,0,rectangle,9,9,1,0,0,-4,-2,"[88,5,87,46,20,20,39,93,72,78]",9,9,1,0,0,0,49,49,80,1,Purple,Purple.jpg,Pink,Pink.jpg,,
,,,,,,,,,,,,,,,,,,-4,,,,,,,,,,,,,,,,,,,,,,,,,,,,,,RETHA 616b4a94951835aed0530a7c,001,2021-12-06_04h18.33.315,jm_natural_scene_simialrity_2-12-2021,2021.2.3,Win32,60.69434329,616b4a94951835aed0530a7c,61ad71e11ddd29ccf7a27d5b,61ad72ae92cbf3629b3b838f,,,-64,120,1,0,0,response7disk,0.9343,13,-5,1,0,0,rectangle,13,-5,1,0,0,-4,-3,"[88,5,87,46,20,20,39,93,72,78]",13,-5,1,0,0,0,50,50,50,1,DarkBlue,DarkBlue.jpg,Red,Red.jpg,,
,,,,,,,,,,,,,,,,,,-4,,,,,,,,,,,,,,,,,,,,,,,,,,,,,,RETHA 616b4a94951835aed0530a7c,001,2021-12-06_04h18.33.315,jm_natural_scene_simialrity_2-12-2021,2021.2.3,Win32,60.69434329,616b4a94951835aed0530a7c,61ad71e11ddd29ccf7a27d5b,61ad72ae92cbf3629b3b838f,,,-58,136,1,0,0,response7disk,0.9201,4,23,1,0,0,rectangle,4,23,1,0,0,-4,-1,"[88,5,87,46,20,20,39,93,72,78]",4,23,1,0,0,0,51,51,20,1,LightGreen,LightGreen.jpg,LightBlue,LightBlue.jpg,,
,,,,,,,,,,,,,,,,,,-4,,,,,,,,,,,,,,,,,,,,,,,,,,,,,,RETHA 616b4a94951835aed0530a7c,001,2021-12-06_04h18.33.315,jm_natural_scene_simialrity_2-12-2021,2021.2.3,Win32,60.69434329,616b4a94951835aed0530a7c,61ad71e11ddd29ccf7a27d5b,61ad72ae92cbf3629b3b838f,,,-31,90,1,0,0,response7disk,0.82,16,-15,1,0,0,rectangle,16,-15,1,0,0,-4,-2,"[88,5,87,46,20,20,39,93,72,78]",16,-15,1,0,0,0,52,52,16,1,Yellow,Yellow.jpg,Purple,Purple.jpg,,
,,,,,,,,,,,,,,,,,,-4,,,,,,,,,,,,,,,,,,,,,,,,,,,,,,RETHA 616b4a94951835aed0530a7c,001,2021-12-06_04h18.33.315,jm_natural_scene_simialrity_2-12-2021,2021.2.3,Win32,60.69434329,616b4a94951835aed0530a7c,61ad71e11ddd29ccf7a27d5b,61ad72ae92cbf3629b3b838f,,,-40,75,1,0,0,response7disk,0.8018,-5,3,1,0,0,rectangle,-5,3,1,0,0,-4,-3,"[88,5,87,46,20,20,39,93,72,78]",-5,3,1,0,0,0,53,53,51,1,Pink,Pink.jpg,Red,Red.jpg,,
,,,,,,,,,,,,,,,,,,-4,,,,,,,,,,,,,,,,,,,,,,,,,,,,,,RETHA 616b4a94951835aed0530a7c,001,2021-12-06_04h18.33.315,jm_natural_scene_simialrity_2-12-2021,2021.2.3,Win32,60.69434329,616b4a94951835aed0530a7c,61ad71e11ddd29ccf7a27d5b,61ad72ae92cbf3629b3b838f,,,-46,103,1,0,0,response7disk,0.8012,9,-3,1,0,0,rectangle,9,-3,1,0,0,-4,-3,"[88,5,87,46,20,20,39,93,72,78]",9,-3,1,0,0,0,54,54,59,1,Purple,Purple.jpg,Yellow,Yellow.jpg,,
,,,,,,,,,,,,,,,,,,-4,,,,,,,,,,,,,,,,,,,,,,,,,,,,,,RETHA 616b4a94951835aed0530a7c,001,2021-12-06_04h18.33.315,jm_natural_scene_simialrity_2-12-2021,2021.2.3,Win32,60.69434329,616b4a94951835aed0530a7c,61ad71e11ddd29ccf7a27d5b,61ad72ae92cbf3629b3b838f,,,-35,72,1,0,0,response7disk,0.8022,13,-10,1,0,0,rectangle,13,-10,1,0,0,-4,-3,"[88,5,87,46,20,20,39,93,72,78]",13,-10,1,0,0,0,55,55,13,1,Yellow,Yellow.jpg,LightBlue,LightBlue.jpg,,
,,,,,,,,,,,,,,,,,,-4,,,,,,,,,,,,,,,,,,,,,,,,,,,,,,RETHA 616b4a94951835aed0530a7c,001,2021-12-06_04h18.33.315,jm_natural_scene_simialrity_2-12-2021,2021.2.3,Win32,60.69434329,616b4a94951835aed0530a7c,61ad71e11ddd29ccf7a27d5b,61ad72ae92cbf3629b3b838f,,,-60,96,1,0,0,response7disk,0.8332,3,-11,1,0,0,rectangle,3,-11,1,0,0,-4,-3,"[88,5,87,46,20,20,39,93,72,78]",3,-11,1,0,0,0,56,56,21,1,LightGreen,LightGreen.jpg,DarkBlue,DarkBlue.jpg,,
,,,,,,,,,,,,,,,,,,-4,,,,,,,,,,,,,,,,,,,,,,,,,,,,,,RETHA 616b4a94951835aed0530a7c,001,2021-12-06_04h18.33.315,jm_natural_scene_simialrity_2-12-2021,2021.2.3,Win32,60.69434329,616b4a94951835aed0530a7c,61ad71e11ddd29ccf7a27d5b,61ad72ae92cbf3629b3b838f,,,-48,98,1,0,0,response7disk,4.3524,-4,9,1,0,0,rectangle,-4,9,1,0,0,-4,-1,"[88,5,87,46,20,20,39,93,72,78]",-4,9,1,0,0,0,57,57,29,1,DarkGreen,DarkGreen.jpg,Purple,Purple.jpg,,
,,,,,,,,,,,,,,,,,,-4,,,,,,,,,,,,,,,,,,,,,,,,,,,,,,RETHA 616b4a94951835aed0530a7c,001,2021-12-06_04h18.33.315,jm_natural_scene_simialrity_2-12-2021,2021.2.3,Win32,60.69434329,616b4a94951835aed0530a7c,61ad71e11ddd29ccf7a27d5b,61ad72ae92cbf3629b3b838f,,,-50,97,1,0,0,response7disk,0.8043,3,12,1,0,0,rectangle,3,12,1,0,0,-4,-2,"[88,5,87,46,20,20,39,93,72,78]",3,12,1,0,0,0,58,58,12,1,Yellow,Yellow.jpg,Turquiose,Turquiose.jpg,,
,,,,,,,,,,,,,,,,,,4,,,,,,,,,,,,,,,,,,,,,,,,,,,,,,RETHA 616b4a94951835aed0530a7c,001,2021-12-06_04h18.33.315,jm_natural_scene_simialrity_2-12-2021,2021.2.3,Win32,60.69434329,616b4a94951835aed0530a7c,61ad71e11ddd29ccf7a27d5b,61ad72ae92cbf3629b3b838f,,,40,81,1,0,0,response1disk,1.536,21,14,1,0,0,rectangle,21,14,1,0,0,-4,1,"[88,5,87,46,20,20,39,93,72,78]",21,14,1,0,0,0,59,59,39,1,DarkBlue,DarkBlue.jpg,DarkBlue,DarkBlue.jpg,,
,,,,,,,,,,,,,,,,,,3,,,,,,,,,,,,,,,,,,,,,,,,,,,,,,RETHA 616b4a94951835aed0530a7c,001,2021-12-06_04h18.33.315,jm_natural_scene_simialrity_2-12-2021,2021.2.3,Win32,60.69434329,616b4a94951835aed0530a7c,61ad71e11ddd29ccf7a27d5b,61ad72ae92cbf3629b3b838f,,,104,30,1,0,0,response1disk,2.2541,22,7,1,0,0,rectangle,22,7,1,0,0,-4,-3,"[88,5,87,46,20,20,39,93,72,78]",22,7,1,0,0,0,60,60,18,1,LightGreen,LightGreen.jpg,DarkGreen,DarkGreen.jpg,,
,,,,,,,,,,,,,,,,,,3,,,,,,,,,,,,,,,,,,,,,,,,,,,,,,RETHA 616b4a94951835aed0530a7c,001,2021-12-06_04h18.33.315,jm_natural_scene_simialrity_2-12-2021,2021.2.3,Win32,60.69434329,616b4a94951835aed0530a7c,61ad71e11ddd29ccf7a27d5b,61ad72ae92cbf3629b3b838f,,,86,35,1,0,0,response1disk,0.9046,12,-8,1,0,0,rectangle,12,-8,1,0,0,-4,-4,"[88,5,87,46,20,20,39,93,72,78]",12,-8,1,0,0,0,61,61,60,1,DarkGreen,DarkGreen.jpg,LightGreen,LightGreen.jpg,,
,,,,,,,,,,,,,,,,,,-4,,,,,,,,,,,,,,,,,,,,,,,,,,,,,,RETHA 616b4a94951835aed0530a7c,001,2021-12-06_04h18.33.315,jm_natural_scene_simialrity_2-12-2021,2021.2.3,Win32,60.69434329,616b4a94951835aed0530a7c,61ad71e11ddd29ccf7a27d5b,61ad72ae92cbf3629b3b838f,,,-53,89,1,0,0,response7disk,0.9195,-22,3,1,0,0,rectangle,-22,3,1,0,0,-4,-3,"[88,5,87,46,20,20,39,93,72,78]",-22,3,1,0,0,0,62,62,45,1,Yellow,Yellow.jpg,Red,Red.jpg,,
,,,,,,,,,,,,,,,,,,-4,,,,,,,,,,,,,,,,,,,,,,,,,,,,,,RETHA 616b4a94951835aed0530a7c,001,2021-12-06_04h18.33.315,jm_natural_scene_simialrity_2-12-2021,2021.2.3,Win32,60.69434329,616b4a94951835aed0530a7c,61ad71e11ddd29ccf7a27d5b,61ad72ae92cbf3629b3b838f,,,-56,84,1,0,0,response7disk,0.8185,-17,3,1,0,0,rectangle,-17,3,1,0,0,-4,3,"[88,5,87,46,20,20,39,93,72,78]",-17,3,1,0,0,0,63,63,38,1,LightBlue,LightBlue.jpg,Purple,Purple.jpg,,
,,,,,,,,,,,,,,,,,,-4,,,,,,,,,,,,,,,,,,,,,,,,,,,,,,RETHA 616b4a94951835aed0530a7c,001,2021-12-06_04h18.33.315,jm_natural_scene_simialrity_2-12-2021,2021.2.3,Win32,60.69434329,616b4a94951835aed0530a7c,61ad71e11ddd29ccf7a27d5b,61ad72ae92cbf3629b3b838f,,,-43,83,1,0,0,response7disk,0.8025,17,-3,1,0,0,rectangle,17,-3,1,0,0,-4,-1,"[88,5,87,46,20,20,39,93,72,78]",17,-3,1,0,0,0,64,64,78,1,Pink,Pink.jpg,DarkBlue,DarkBlue.jpg,,
,,,,,,,,,,,,,,,,,,-4,,,,,,,,,,,,,,,,,,,,,,,,,,,,,,RETHA 616b4a94951835aed0530a7c,001,2021-12-06_04h18.33.315,jm_natural_scene_simialrity_2-12-2021,2021.2.3,Win32,60.69434329,616b4a94951835aed0530a7c,61ad71e11ddd29ccf7a27d5b,61ad72ae92cbf3629b3b838f,,,-32,77,1,0,0,response7disk,1.0533,14,-17,1,0,0,rectangle,14,-17,1,0,0,-4,3,"[88,5,87,46,20,20,39,93,72,78]",14,-17,1,0,0,0,65,65,32,1,Turquiose,Turquiose.jpg,DarkBlue,DarkBlue.jpg,,
,,,,,,,,,,,,,,,,,,-4,,,,,,,,,,,,,,,,,,,,,,,,,,,,,,RETHA 616b4a94951835aed0530a7c,001,2021-12-06_04h18.33.315,jm_natural_scene_simialrity_2-12-2021,2021.2.3,Win32,60.69434329,616b4a94951835aed0530a7c,61ad71e11ddd29ccf7a27d5b,61ad72ae92cbf3629b3b838f,,,-40,61,1,0,0,response7disk,0.8864,9,-19,1,0,0,rectangle,9,-19,1,0,0,-4,-1,"[88,5,87,46,20,20,39,93,72,78]",9,-19,1,0,0,0,66,66,65,1,Purple,Purple.jpg,LightGreen,LightGreen.jpg,,
,,,,,,,,,,,,,,,,,,-4,,,,,,,,,,,,,,,,,,,,,,,,,,,,,,RETHA 616b4a94951835aed0530a7c,001,2021-12-06_04h18.33.315,jm_natural_scene_simialrity_2-12-2021,2021.2.3,Win32,60.69434329,616b4a94951835aed0530a7c,61ad71e11ddd29ccf7a27d5b,61ad72ae92cbf3629b3b838f,,,-59,80,1,0,0,response7disk,1.9034,-8,22,1,0,0,rectangle,-8,22,1,0,0,-4,-3,"[88,5,87,46,20,20,39,93,72,78]",-8,22,1,0,0,0,67,67,47,1,DarkGreen,DarkGreen.jpg,Red,Red.jpg,,
,,,,,,,,,,,,,,,,,,-4,,,,,,,,,,,,,,,,,,,,,,,,,,,,,,RETHA 616b4a94951835aed0530a7c,001,2021-12-06_04h18.33.315,jm_natural_scene_simialrity_2-12-2021,2021.2.3,Win32,60.69434329,616b4a94951835aed0530a7c,61ad71e11ddd29ccf7a27d5b,61ad72ae92cbf3629b3b838f,,,-21,83,1,0,0,response7disk,1.1019,16,5,1,0,0,rectangle,16,5,1,0,0,-4,1,"[88,5,87,46,20,20,39,93,72,78]",16,5,1,0,0,0,68,68,57,1,DarkBlue,DarkBlue.jpg,Yellow,Yellow.jpg,,
,,,,,,,,,,,,,,,,,,-4,,,,,,,,,,,,,,,,,,,,,,,,,,,,,,RETHA 616b4a94951835aed0530a7c,001,2021-12-06_04h18.33.315,jm_natural_scene_simialrity_2-12-2021,2021.2.3,Win32,60.69434329,616b4a94951835aed0530a7c,61ad71e11ddd29ccf7a27d5b,61ad72ae92cbf3629b3b838f,,,-60,89,1,0,0,response7disk,0.8513,3,-20,1,0,0,rectangle,3,-20,1,0,0,-4,-1,"[88,5,87,46,20,20,39,93,72,78]",3,-20,1,0,0,0,69,69,5,1,Red,Red.jpg,LightBlue,LightBlue.jpg,,
,,,,,,,,,,,,,,,,,,-4,,,,,,,,,,,,,,,,,,,,,,,,,,,,,,RETHA 616b4a94951835aed0530a7c,001,2021-12-06_04h18.33.315,jm_natural_scene_simialrity_2-12-2021,2021.2.3,Win32,60.69434329,616b4a94951835aed0530a7c,61ad71e11ddd29ccf7a27d5b,61ad72ae92cbf3629b3b838f,,,-49,50,1,0,0,response7disk,0.8006,-3,5,1,0,0,rectangle,-3,5,1,0,0,-4,2,"[88,5,87,46,20,20,39,93,72,78]",-3,5,1,0,0,0,70,70,8,1,Red,Red.jpg,Purple,Purple.jpg,,
,,,,,,,,,,,,,,,,,,-4,,,,,,,,,,,,,,,,,,,,,,,,,,,,,,RETHA 616b4a94951835aed0530a7c,001,2021-12-06_04h18.33.315,jm_natural_scene_simialrity_2-12-2021,2021.2.3,Win32,60.69434329,616b4a94951835aed0530a7c,61ad71e11ddd29ccf7a27d5b,61ad72ae92cbf3629b3b838f,,,-44,112,1,0,0,response7disk,0.951,-2,16,1,0,0,rectangle,-36,100,1,0,0,-4,-4,"[88,5,87,46,20,20,39,93,72,78]",-2,-1,1,0,0,0,71,71,22,1,LightGreen,LightGreen.jpg,Pink,Pink.jpg,response7disk_3,rectangle
,,,,,,,,,,,,,,,,,,-4,,,,,,,,,,,,,,,,,,,,,,,,,,,,,,RETHA 616b4a94951835aed0530a7c,001,2021-12-06_04h18.33.315,jm_natural_scene_simialrity_2-12-2021,2021.2.3,Win32,60.69434329,616b4a94951835aed0530a7c,61ad71e11ddd29ccf7a27d5b,61ad72ae92cbf3629b3b838f,,,-46,95,1,0,0,response7disk,0.9202,4,1,1,0,0,rectangle,4,1,1,0,0,-4,-2,"[88,5,87,46,20,20,39,93,72,78]",4,1,1,0,0,0,72,72,33,1,Turquiose,Turquiose.jpg,Pink,Pink.jpg,,
,,,,,,,,,,,,,,,,,,-4,,,,,,,,,,,,,,,,,,,,,,,,,,,,,,RETHA 616b4a94951835aed0530a7c,001,2021-12-06_04h18.33.315,jm_natural_scene_simialrity_2-12-2021,2021.2.3,Win32,60.69434329,616b4a94951835aed0530a7c,61ad71e11ddd29ccf7a27d5b,61ad72ae92cbf3629b3b838f,,,-36,80,1,0,0,response7disk,1.8372,-1,-2,1,0,0,rectangle,-1,-2,1,0,0,-4,-1,"[88,5,87,46,20,20,39,93,72,78]",-1,-2,1,0,0,0,73,73,77,1,Purple,Purple.jpg,LightBlue,LightBlue.jpg,,
,,,,,,,,,,,,,,,,,,-4,,,,,,,,,,,,,,,,,,,,,,,,,,,,,,RETHA 616b4a94951835aed0530a7c,001,2021-12-06_04h18.33.315,jm_natural_scene_simialrity_2-12-2021,2021.2.3,Win32,60.69434329,616b4a94951835aed0530a7c,61ad71e11ddd29ccf7a27d5b,61ad72ae92cbf3629b3b838f,,,-25,108,1,0,0,response7disk,0.9699,11,6,1,0,0,rectangle,11,6,1,0,0,-4,1,"[88,5,87,46,20,20,39,93,72,78]",11,6,1,0,0,0,74,74,52,1,Purple,Purple.jpg,Red,Red.jpg,,
,,,,,,,,,,,,,,,,,,-4,,,,,,,,,,,,,,,,,,,,,,,,,,,,,,RETHA 616b4a94951835aed0530a7c,001,2021-12-06_04h18.33.315,jm_natural_scene_simialrity_2-12-2021,2021.2.3,Win32,60.69434329,616b4a94951835aed0530a7c,61ad71e11ddd29ccf7a27d5b,61ad72ae92cbf3629b3b838f,,,-50,116,1,0,0,response7disk,0.7824,-4,11,1,0,0,rectangle,-4,11,1,0,0,-4,3,"[88,5,87,46,20,20,39,93,72,78]",-4,11,1,0,0,0,75,75,14,1,Yellow,Yellow.jpg,DarkBlue,DarkBlue.jpg,,
,,,,,,,,,,,,,,,,,,-4,,,,,,,,,,,,,,,,,,,,,,,,,,,,,,RETHA 616b4a94951835aed0530a7c,001,2021-12-06_04h18.33.315,jm_natural_scene_simialrity_2-12-2021,2021.2.3,Win32,60.69434329,616b4a94951835aed0530a7c,61ad71e11ddd29ccf7a27d5b,61ad72ae92cbf3629b3b838f,,,-32,121,1,0,0,response7disk,0.7395,12,11,1,0,0,rectangle,12,11,1,0,0,-4,-3,"[88,5,87,46,20,20,39,93,72,78]",12,11,1,0,0,0,76,76,11,1,Yellow,Yellow.jpg,DarkGreen,DarkGreen.jpg,,
,,,,,,,,,,,,,,,,,,-4,,,,,,,,,,,,,,,,,,,,,,,,,,,,,,RETHA 616b4a94951835aed0530a7c,001,2021-12-06_04h18.33.315,jm_natural_scene_simialrity_2-12-2021,2021.2.3,Win32,60.69434329,616b4a94951835aed0530a7c,61ad71e11ddd29ccf7a27d5b,61ad72ae92cbf3629b3b838f,,,-31,109,1,0,0,response7disk,0.7677,3,14,1,0,0,rectangle,-45,102,1,0,0,-4,-4,"[88,5,87,46,20,20,39,93,72,78]",1,-6,1,0,0,0,77,77,19,1,LightGreen,LightGreen.jpg,Turquiose,Turquiose.jpg,response7disk_3,rectangle
,,,,,,,,,,,,,,,,,,-4,,,,,,,,,,,,,,,,,,,,,,,,,,,,,,RETHA 616b4a94951835aed0530a7c,001,2021-12-06_04h18.33.315,jm_natural_scene_simialrity_2-12-2021,2021.2.3,Win32,60.69434329,616b4a94951835aed0530a7c,61ad71e11ddd29ccf7a27d5b,61ad72ae92cbf3629b3b838f,,,-53,126,1,0,0,response7disk,0.7855,3,0,1,0,0,rectangle,3,0,1,0,0,-4,-3,"[88,5,87,46,20,20,39,93,72,78]",3,0,1,0,0,0,78,78,23,1,LightGreen,LightGreen.jpg,Purple,Purple.jpg,,
,,,,,,,,,,,,,,,,,,-4,,,,,,,,,,,,,,,,,,,,,,,,,,,,,,RETHA 616b4a94951835aed0530a7c,001,2021-12-06_04h18.33.315,jm_natural_scene_simialrity_2-12-2021,2021.2.3,Win32,60.69434329,616b4a94951835aed0530a7c,61ad71e11ddd29ccf7a27d5b,61ad72ae92cbf3629b3b838f,,,-44,113,1,0,0,response7disk,0.8526,-7,17,1,0,0,rectangle,-7,17,1,0,0,-4,-4,"[88,5,87,46,20,20,39,93,72,78]",-7,17,1,0,0,0,79,79,69,1,Pink,Pink.jpg,DarkGreen,DarkGreen.jpg,,
,,,,,,,,,,,,,,,,,,-2,,,,,,,,,,,,,,,,,,,,,,,,,,,,,,RETHA 616b4a94951835aed0530a7c,001,2021-12-06_04h18.33.315,jm_natural_scene_simialrity_2-12-2021,2021.2.3,Win32,60.69434329,616b4a94951835aed0530a7c,61ad71e11ddd29ccf7a27d5b,61ad72ae92cbf3629b3b838f,,,-70,-18,1,0,0,response5disk,1.2689,-11,-10,1,0,0,rectangle,-11,-10,1,0,0,-4,1,"[88,5,87,46,20,20,39,93,72,78]",-11,-10,1,0,0,0,80,80,7,1,Red,Red.jpg,Pink,Pink.jpg,,
,,,,,,,,,,,,,,,,,,4,,,,,,,,,,,,,,,,,,,,,,,,,,,,,,RETHA 616b4a94951835aed0530a7c,001,2021-12-06_04h18.33.315,jm_natural_scene_simialrity_2-12-2021,2021.2.3,Win32,60.69434329,616b4a94951835aed0530a7c,61ad71e11ddd29ccf7a27d5b,61ad72ae92cbf3629b3b838f,,,22,79,1,0,0,response1disk,1.072,3,2,1,0,0,rectangle,3,2,1,0,0,-4,-4,"[88,5,87,46,20,20,39,93,72,78]",3,2,1,0,0,1,0,81,39,1,DarkBlue,DarkBlue.jpg,DarkBlue,DarkBlue.jpg,,
,,,,,,,,,,,,,,,,,,-4,,,,,,,,,,,,,,,,,,,,,,,,,,,,,,RETHA 616b4a94951835aed0530a7c,001,2021-12-06_04h18.33.315,jm_natural_scene_simialrity_2-12-2021,2021.2.3,Win32,60.69434329,616b4a94951835aed0530a7c,61ad71e11ddd29ccf7a27d5b,61ad72ae92cbf3629b3b838f,,,-57,82,1,0,0,response7disk,1.6857,17,-7,1,0,0,rectangle,17,-7,1,0,0,-4,2,"[88,5,87,46,20,20,39,93,72,78]",17,-7,1,0,0,1,1,82,64,1,Pink,Pink.jpg,LightGreen,LightGreen.jpg,,
,,,,,,,,,,,,,,,,,,-4,,,,,,,,,,,,,,,,,,,,,,,,,,,,,,RETHA 616b4a94951835aed0530a7c,001,2021-12-06_04h18.33.315,jm_natural_scene_simialrity_2-12-2021,2021.2.3,Win32,60.69434329,616b4a94951835aed0530a7c,61ad71e11ddd29ccf7a27d5b,61ad72ae92cbf3629b3b838f,,,-43,87,1,0,0,response7disk,0.9375,-13,6,1,0,0,rectangle,-13,6,1,0,0,-4,1,"[88,5,87,46,20,20,39,93,72,78]",-13,6,1,0,0,1,2,83,54,1,DarkGreen,DarkGreen.jpg,Yellow,Yellow.jpg,,
,,,,,,,,,,,,,,,,,,-4,,,,,,,,,,,,,,,,,,,,,,,,,,,,,,RETHA 616b4a94951835aed0530a7c,001,2021-12-06_04h18.33.315,jm_natural_scene_simialrity_2-12-2021,2021.2.3,Win32,60.69434329,616b4a94951835aed0530a7c,61ad71e11ddd29ccf7a27d5b,61ad72ae92cbf3629b3b838f,,,-57,119,1,0,0,response7disk,0.886,-3,-14,1,0,0,rectangle,-3,-14,1,0,0,-4,-3,"[88,5,87,46,20,20,39,93,72,78]",-3,-14,1,0,0,1,3,84,58,1,Pink,Pink.jpg,Yellow,Yellow.jpg,,
,,,,,,,,,,,,,,,,,,-4,,,,,,,,,,,,,,,,,,,,,,,,,,,,,,RETHA 616b4a94951835aed0530a7c,001,2021-12-06_04h18.33.315,jm_natural_scene_simialrity_2-12-2021,2021.2.3,Win32,60.69434329,616b4a94951835aed0530a7c,61ad71e11ddd29ccf7a27d5b,61ad72ae92cbf3629b3b838f,,,-42,71,1,0,0,response7disk,0.9518,0,-4,1,0,0,rectangle,0,-4,1,0,0,-4,2,"[88,5,87,46,20,20,39,93,72,78]",0,-4,1,0,0,1,4,85,4,1,Red,Red.jpg,Turquiose,Turquiose.jpg,,
,,,,,,,,,,,,,,,,,,4,,,,,,,,,,,,,,,,,,,,,,,,,,,,,,RETHA 616b4a94951835aed0530a7c,001,2021-12-06_04h18.33.315,jm_natural_scene_simialrity_2-12-2021,2021.2.3,Win32,60.69434329,616b4a94951835aed0530a7c,61ad71e11ddd29ccf7a27d5b,61ad72ae92cbf3629b3b838f,,,33,65,1,0,0,response1disk,1.1682,12,12,1,0,0,rectangle,-89,-43,1,0,0,-4,-2,"[88,5,87,46,20,20,39,93,72,78]",-23,-7,1,0,0,1,5,86,35,1,LightBlue,LightBlue.jpg,LightBlue,LightBlue.jpg,response5disk_3,rectangle
,,,,,,,,,,,,,,,,,,-4,,,,,,,,,,,,,,,,,,,,,,,,,,,,,,RETHA 616b4a94951835aed0530a7c,001,2021-12-06_04h18.33.315,jm_natural_scene_simialrity_2-12-2021,2021.2.3,Win32,60.69434329,616b4a94951835aed0530a7c,61ad71e11ddd29ccf7a27d5b,61ad72ae92cbf3629b3b838f,,,-50,80,1,0,0,response7disk,0.9533,-7,-4,1,0,0,rectangle,112,-50,1,0,0,2,2,"[88,5,87,46,20,20,39,93,72,78]",15,-13,1,0,0,1,6,87,37,1,LightBlue,LightBlue.jpg,Pink,Pink.jpg,response3disk_3,rectangle
,,,,,,,,,,,,,,,,,,-4,,,,,,,,,,,,,,,,,,,,,,,,,,,,,,RETHA 616b4a94951835aed0530a7c,001,2021-12-06_04h18.33.315,jm_natural_scene_simialrity_2-12-2021,2021.2.3,Win32,60.69434329,616b4a94951835aed0530a7c,61ad71e11ddd29ccf7a27d5b,61ad72ae92cbf3629b3b838f,,,-64,125,1,0,0,response7disk,0.9193,-2,5,1,0,0,rectangle,-2,5,1,0,0,2,-2,"[88,5,87,46,20,20,39,93,72,78]",-2,5,1,0,0,1,7,88,70,1,Purple,Purple.jpg,DarkGreen,DarkGreen.jpg,,
,,,,,,,,,,,,,,,,,,4,,,,,,,,,,,,,,,,,,,,,,,,,,,,,,RETHA 616b4a94951835aed0530a7c,001,2021-12-06_04h18.33.315,jm_natural_scene_simialrity_2-12-2021,2021.2.3,Win32,60.69434329,616b4a94951835aed0530a7c,61ad71e11ddd29ccf7a27d5b,61ad72ae92cbf3629b3b838f,,,46,79,1,0,0,response1disk,1.0676,-8,-11,1,0,0,rectangle,-8,-11,1,0,0,2,3,"[88,5,87,46,20,20,39,93,72,78]",-8,-11,1,0,0,1,8,89,42,1,Pink,Pink.jpg,Pink,Pink.jpg,,
,,,,,,,,,,,,,,,,,,-4,,,,,,,,,,,,,,,,,,,,,,,,,,,,,,RETHA 616b4a94951835aed0530a7c,001,2021-12-06_04h18.33.315,jm_natural_scene_simialrity_2-12-2021,2021.2.3,Win32,60.69434329,616b4a94951835aed0530a7c,61ad71e11ddd29ccf7a27d5b,61ad72ae92cbf3629b3b838f,,,-41,98,1,0,0,response7disk,0.9516,23,-8,1,0,0,rectangle,23,-8,1,0,0,2,2,"[88,5,87,46,20,20,39,93,72,78]",23,-8,1,0,0,1,9,90,48,1,Turquiose,Turquiose.jpg,Red,Red.jpg,,
,,,,,,,,,,,,,,,,,,-4,,,,,,,,,,,,,,,,,,,,,,,,,,,,,,RETHA 616b4a94951835aed0530a7c,001,2021-12-06_04h18.33.315,jm_natural_scene_simialrity_2-12-2021,2021.2.3,Win32,60.69434329,616b4a94951835aed0530a7c,61ad71e11ddd29ccf7a27d5b,61ad72ae92cbf3629b3b838f,,,-38,83,1,0,0,response7disk,0.9208,11,-6,1,0,0,rectangle,11,-6,1,0,0,2,-4,"[88,5,87,46,20,20,39,93,72,78]",11,-6,1,0,0,1,10,91,53,1,LightGreen,LightGreen.jpg,Yellow,Yellow.jpg,,
,,,,,,,,,,,,,,,,,,-4,,,,,,,,,,,,,,,,,,,,,,,,,,,,,,RETHA 616b4a94951835aed0530a7c,001,2021-12-06_04h18.33.315,jm_natural_scene_simialrity_2-12-2021,2021.2.3,Win32,60.69434329,616b4a94951835aed0530a7c,61ad71e11ddd29ccf7a27d5b,61ad72ae92cbf3629b3b838f,,,-54,114,1,0,0,response7disk,0.7522,-7,11,1,0,0,rectangle,-54,126,1,0,0,-4,1,"[88,5,87,46,20,20,39,93,72,78]",-2,2,1,0,0,1,11,92,16,1,Yellow,Yellow.jpg,Purple,Purple.jpg,response7disk_3,rectangle
,,,,,,,,,,,,,,,,,,-4,,,,,,,,,,,,,,,,,,,,,,,,,,,,,,RETHA 616b4a94951835aed0530a7c,001,2021-12-06_04h18.33.315,jm_natural_scene_simialrity_2-12-2021,2021.2.3,Win32,60.69434329,616b4a94951835aed0530a7c,61ad71e11ddd29ccf7a27d5b,61ad72ae92cbf3629b3b838f,,,-59,94,1,0,0,response7disk,0.8686,-7,5,1,0,0,rectangle,-7,5,1,0,0,-4,2,"[88,5,87,46,20,20,39,93,72,78]",-7,5,1,0,0,1,12,93,1,1,Red,Red.jpg,Yellow,Yellow.jpg,,
,,,,,,,,,,,,,,,,,,-4,,,,,,,,,,,,,,,,,,,,,,,,,,,,,,RETHA 616b4a94951835aed0530a7c,001,2021-12-06_04h18.33.315,jm_natural_scene_simialrity_2-12-2021,2021.2.3,Win32,60.69434329,616b4a94951835aed0530a7c,61ad71e11ddd29ccf7a27d5b,61ad72ae92cbf3629b3b838f,,,-33,88,1,0,0,response7disk,0.9041,13,-1,1,0,0,rectangle,13,-1,1,0,0,-4,2,"[88,5,87,46,20,20,39,93,72,78]",13,-1,1,0,0,1,13,94,20,1,LightGreen,LightGreen.jpg,LightBlue,LightBlue.jpg,,
,,,,,,,,,,,,,,,,,,-4,,,,,,,,,,,,,,,,,,,,,,,,,,,,,,RETHA 616b4a94951835aed0530a7c,001,2021-12-06_04h18.33.315,jm_natural_scene_simialrity_2-12-2021,2021.2.3,Win32,60.69434329,616b4a94951835aed0530a7c,61ad71e11ddd29ccf7a27d5b,61ad72ae92cbf3629b3b838f,,,-52,125,1,0,0,response7disk,0.8857,3,13,1,0,0,rectangle,3,13,1,0,0,-4,3,"[88,5,87,46,20,20,39,93,72,78]",3,13,1,0,0,1,14,95,78,1,Pink,Pink.jpg,DarkBlue,DarkBlue.jpg,,
,,,,,,,,,,,,,,,,,,-4,,,,,,,,,,,,,,,,,,,,,,,,,,,,,,RETHA 616b4a94951835aed0530a7c,001,2021-12-06_04h18.33.315,jm_natural_scene_simialrity_2-12-2021,2021.2.3,Win32,60.69434329,616b4a94951835aed0530a7c,61ad71e11ddd29ccf7a27d5b,61ad72ae92cbf3629b3b838f,,,-37,71,1,0,0,response7disk,1.3944,0,-8,1,0,0,rectangle,0,-8,1,0,0,-4,-3,"[88,5,87,46,20,20,39,93,72,78]",0,-8,1,0,0,1,15,96,77,1,Purple,Purple.jpg,LightBlue,LightBlue.jpg,,
,,,,,,,,,,,,,,,,,,-4,,,,,,,,,,,,,,,,,,,,,,,,,,,,,,RETHA 616b4a94951835aed0530a7c,001,2021-12-06_04h18.33.315,jm_natural_scene_simialrity_2-12-2021,2021.2.3,Win32,60.69434329,616b4a94951835aed0530a7c,61ad71e11ddd29ccf7a27d5b,61ad72ae92cbf3629b3b838f,,,-19,87,1,0,0,response7disk,1.12,-6,24,1,0,0,rectangle,-6,24,1,0,0,-4,-2,"[88,5,87,46,20,20,39,93,72,78]",-6,24,1,0,0,1,16,97,76,1,Pink,Pink.jpg,LightBlue,LightBlue.jpg,,
,,,,,,,,,,,,,,,,,,-4,,,,,,,,,,,,,,,,,,,,,,,,,,,,,,RETHA 616b4a94951835aed0530a7c,001,2021-12-06_04h18.33.315,jm_natural_scene_simialrity_2-12-2021,2021.2.3,Win32,60.69434329,616b4a94951835aed0530a7c,61ad71e11ddd29ccf7a27d5b,61ad72ae92cbf3629b3b838f,,,-67,103,1,0,0,response7disk,0.8861,-23,18,1,0,0,rectangle,-23,18,1,0,0,-3,-2,"[88,5,87,46,20,20,39,93,72,78]",-23,18,1,0,0,1,17,98,49,1,LightBlue,LightBlue.jpg,Red,Red.jpg,,
,,,,,,,,,,,,,,,,,,-4,,,,,,,,,,,,,,,,,,,,,,,,,,,,,,RETHA 616b4a94951835aed0530a7c,001,2021-12-06_04h18.33.315,jm_natural_scene_simialrity_2-12-2021,2021.2.3,Win32,60.69434329,616b4a94951835aed0530a7c,61ad71e11ddd29ccf7a27d5b,61ad72ae92cbf3629b3b838f,,,-57,87,1,0,0,response7disk,0.9689,12,-12,1,0,0,rectangle,12,-12,1,0,0,-3,3,"[88,5,87,46,20,20,39,93,72,78]",12,-12,1,0,0,1,18,99,63,1,DarkBlue,DarkBlue.jpg,LightGreen,LightGreen.jpg,,
,,,,,,,,,,,,,,,,,,3,,,,,,,,,,,,,,,,,,,,,,,,,,,,,,RETHA 616b4a94951835aed0530a7c,001,2021-12-06_04h18.33.315,jm_natural_scene_simialrity_2-12-2021,2021.2.3,Win32,60.69434329,616b4a94951835aed0530a7c,61ad71e11ddd29ccf7a27d5b,61ad72ae92cbf3629b3b838f,,,70,28,1,0,0,response1disk,1.9694,7,-2,1,0,0,rectangle,7,-2,1,0,0,-3,1,"[88,5,87,46,20,20,39,93,72,78]",7,-2,1,0,0,1,19,100,60,1,DarkGreen,DarkGreen.jpg,LightGreen,LightGreen.jpg,,
,,,,,,,,,,,,,,,,,,-4,,,,,,,,,,,,,,,,,,,,,,,,,,,,,,RETHA 616b4a94951835aed0530a7c,001,2021-12-06_04h18.33.315,jm_natural_scene_simialrity_2-12-2021,2021.2.3,Win32,60.69434329,616b4a94951835aed0530a7c,61ad71e11ddd29ccf7a27d5b,61ad72ae92cbf3629b3b838f,,,-48,78,1,0,0,response7disk,0.9397,22,-1,1,0,0,rectangle,22,-1,1,0,0,-3,1,"[88,5,87,46,20,20,39,93,72,78]",22,-1,1,0,0,1,20,101,23,1,LightGreen,LightGreen.jpg,Purple,Purple.jpg,,
,,,,,,,,,,,,,,,,,,-4,,,,,,,,,,,,,,,,,,,,,,,,,,,,,,RETHA 616b4a94951835aed0530a7c,001,2021-12-06_04h18.33.315,jm_natural_scene_simialrity_2-12-2021,2021.2.3,Win32,60.69434329,616b4a94951835aed0530a7c,61ad71e11ddd29ccf7a27d5b,61ad72ae92cbf3629b3b838f,,,-62,91,1,0,0,response7disk,0.7182,5,-3,1,0,0,rectangle,5,-3,1,0,0,-3,-4,"[88,5,87,46,20,20,39,93,72,78]",5,-3,1,0,0,1,21,102,14,1,Yellow,Yellow.jpg,DarkBlue,DarkBlue.jpg,,
,,,,,,,,,,,,,,,,,,-4,,,,,,,,,,,,,,,,,,,,,,,,,,,,,,RETHA 616b4a94951835aed0530a7c,001,2021-12-06_04h18.33.315,jm_natural_scene_simialrity_2-12-2021,2021.2.3,Win32,60.69434329,616b4a94951835aed0530a7c,61ad71e11ddd29ccf7a27d5b,61ad72ae92cbf3629b3b838f,,,-61,92,1,0,0,response7disk,0.8031,21,-4,1,0,0,rectangle,21,-4,1,0,0,-3,2,"[88,5,87,46,20,20,39,93,72,78]",21,-4,1,0,0,1,22,103,21,1,LightGreen,LightGreen.jpg,DarkBlue,DarkBlue.jpg,,
,,,,,,,,,,,,,,,,,,-4,,,,,,,,,,,,,,,,,,,,,,,,,,,,,,RETHA 616b4a94951835aed0530a7c,001,2021-12-06_04h18.33.315,jm_natural_scene_simialrity_2-12-2021,2021.2.3,Win32,60.69434329,616b4a94951835aed0530a7c,61ad71e11ddd29ccf7a27d5b,61ad72ae92cbf3629b3b838f,,,-46,108,1,0,0,response7disk,0.937,8,-5,1,0,0,rectangle,8,-5,1,0,0,-3,-1,"[88,5,87,46,20,20,39,93,72,78]",8,-5,1,0,0,1,23,104,47,1,DarkGreen,DarkGreen.jpg,Red,Red.jpg,,
,,,,,,,,,,,,,,,,,,-4,,,,,,,,,,,,,,,,,,,,,,,,,,,,,,RETHA 616b4a94951835aed0530a7c,001,2021-12-06_04h18.33.315,jm_natural_scene_simialrity_2-12-2021,2021.2.3,Win32,60.69434329,616b4a94951835aed0530a7c,61ad71e11ddd29ccf7a27d5b,61ad72ae92cbf3629b3b838f,,,-63,108,1,0,0,response7disk,0.9203,4,16,1,0,0,rectangle,4,16,1,0,0,-3,-1,"[88,5,87,46,20,20,39,93,72,78]",4,16,1,0,0,1,24,105,34,1,Turquiose,Turquiose.jpg,Purple,Purple.jpg,,
,,,,,,,,,,,,,,,,,,-4,,,,,,,,,,,,,,,,,,,,,,,,,,,,,,RETHA 616b4a94951835aed0530a7c,001,2021-12-06_04h18.33.315,jm_natural_scene_simialrity_2-12-2021,2021.2.3,Win32,60.69434329,616b4a94951835aed0530a7c,61ad71e11ddd29ccf7a27d5b,61ad72ae92cbf3629b3b838f,,,-30,78,1,0,0,response7disk,0.7364,14,-20,1,0,0,rectangle,14,-20,1,0,0,-3,-3,"[88,5,87,46,20,20,39,93,72,78]",14,-20,1,0,0,1,25,106,50,1,DarkBlue,DarkBlue.jpg,Red,Red.jpg,,
,,,,,,,,,,,,,,,,,,-4,,,,,,,,,,,,,,,,,,,,,,,,,,,,,,RETHA 616b4a94951835aed0530a7c,001,2021-12-06_04h18.33.315,jm_natural_scene_simialrity_2-12-2021,2021.2.3,Win32,60.69434329,616b4a94951835aed0530a7c,61ad71e11ddd29ccf7a27d5b,61ad72ae92cbf3629b3b838f,,,-51,92,1,0,0,response7disk,0.7856,-20,19,1,0,0,rectangle,-20,19,1,0,0,-3,-1,"[88,5,87,46,20,20,39,93,72,78]",-20,19,1,0,0,1,26,107,67,1,LightBlue,LightBlue.jpg,DarkGreen,DarkGreen.jpg,,
,,,,,,,,,,,,,,,,,,2,,,,,,,,,,,,,,,,,,,,,,,,,,,,,,RETHA 616b4a94951835aed0530a7c,001,2021-12-06_04h18.33.315,jm_natural_scene_simialrity_2-12-2021,2021.2.3,Win32,60.69434329,616b4a94951835aed0530a7c,61ad71e11ddd29ccf7a27d5b,61ad72ae92cbf3629b3b838f,,,112,-39,1,0,0,response3disk,3.1697,16,-8,1,0,0,rectangle,16,-8,1,0,0,-3,-4,"[88,5,87,46,20,20,39,93,72,78]",16,-8,1,0,0,1,27,108,7,1,Red,Red.jpg,Pink,Pink.jpg,,
,,,,,,,,,,,,,,,,,,-4,,,,,,,,,,,,,,,,,,,,,,,,,,,,,,RETHA 616b4a94951835aed0530a7c,001,2021-12-06_04h18.33.315,jm_natural_scene_simialrity_2-12-2021,2021.2.3,Win32,60.69434329,616b4a94951835aed0530a7c,61ad71e11ddd29ccf7a27d5b,61ad72ae92cbf3629b3b838f,,,-68,103,1,0,0,response7disk,1.7023,11,8,1,0,0,rectangle,11,8,1,0,0,-3,-4,"[88,5,87,46,20,20,39,93,72,78]",11,8,1,0,0,1,28,109,45,1,Yellow,Yellow.jpg,Red,Red.jpg,,
,,,,,,,,,,,,,,,,,,4,,,,,,,,,,,,,,,,,,,,,,,,,,,,,,RETHA 616b4a94951835aed0530a7c,001,2021-12-06_04h18.33.315,jm_natural_scene_simialrity_2-12-2021,2021.2.3,Win32,60.69434329,616b4a94951835aed0530a7c,61ad71e11ddd29ccf7a27d5b,61ad72ae92cbf3629b3b838f,,,45,97,1,0,0,response1disk,1.0544,4,1,1,0,0,rectangle,4,1,1,0,0,-3,-4,"[88,5,87,46,20,20,39,93,72,78]",4,1,1,0,0,1,29,110,0,1,Red,Red.jpg,Red,Red.jpg,,
,,,,,,,,,,,,,,,,,,4,,,,,,,,,,,,,,,,,,,,,,,,,,,,,,RETHA 616b4a94951835aed0530a7c,001,2021-12-06_04h18.33.315,jm_natural_scene_simialrity_2-12-2021,2021.2.3,Win32,60.69434329,616b4a94951835aed0530a7c,61ad71e11ddd29ccf7a27d5b,61ad72ae92cbf3629b3b838f,,,27,85,1,0,0,response1disk,1.169,20,-5,1,0,0,rectangle,20,-5,1,0,0,-3,-4,"[88,5,87,46,20,20,39,93,72,78]",20,-5,1,0,0,1,30,111,24,1,DarkGreen,DarkGreen.jpg,DarkGreen,DarkGreen.jpg,,
,,,,,,,,,,,,,,,,,,-4,,,,,,,,,,,,,,,,,,,,,,,,,,,,,,RETHA 616b4a94951835aed0530a7c,001,2021-12-06_04h18.33.315,jm_natural_scene_simialrity_2-12-2021,2021.2.3,Win32,60.69434329,616b4a94951835aed0530a7c,61ad71e11ddd29ccf7a27d5b,61ad72ae92cbf3629b3b838f,,,-52,100,1,0,0,response7disk,0.9354,8,-22,1,0,0,rectangle,8,-22,1,0,0,-3,1,"[88,5,87,46,20,20,39,93,72,78]",8,-22,1,0,0,1,31,112,10,1,Yellow,Yellow.jpg,LightGreen,LightGreen.jpg,,
,,,,,,,,,,,,,,,,,,-4,,,,,,,,,,,,,,,,,,,,,,,,,,,,,,RETHA 616b4a94951835aed0530a7c,001,2021-12-06_04h18.33.315,jm_natural_scene_simialrity_2-12-2021,2021.2.3,Win32,60.69434329,616b4a94951835aed0530a7c,61ad71e11ddd29ccf7a27d5b,61ad72ae92cbf3629b3b838f,,,-65,102,1,0,0,response7disk,1.0857,3,-5,1,0,0,rectangle,3,-5,1,0,0,-3,3,"[88,5,87,46,20,20,39,93,72,78]",3,-5,1,0,0,1,32,113,75,1,DarkBlue,DarkBlue.jpg,LightBlue,LightBlue.jpg,,
,,,,,,,,,,,,,,,,,,-4,,,,,,,,,,,,,,,,,,,,,,,,,,,,,,RETHA 616b4a94951835aed0530a7c,001,2021-12-06_04h18.33.315,jm_natural_scene_simialrity_2-12-2021,2021.2.3,Win32,60.69434329,616b4a94951835aed0530a7c,61ad71e11ddd29ccf7a27d5b,61ad72ae92cbf3629b3b838f,,,-27,109,1,0,0,response7disk,2.8525,0,10,1,0,0,rectangle,0,10,1,0,0,-3,-3,"[88,5,87,46,20,20,39,93,72,78]",0,10,1,0,0,1,33,114,68,1,DarkBlue,DarkBlue.jpg,DarkGreen,DarkGreen.jpg,,
,,,,,,,,,,,,,,,,,,-4,,,,,,,,,,,,,,,,,,,,,,,,,,,,,,RETHA 616b4a94951835aed0530a7c,001,2021-12-06_04h18.33.315,jm_natural_scene_simialrity_2-12-2021,2021.2.3,Win32,60.69434329,616b4a94951835aed0530a7c,61ad71e11ddd29ccf7a27d5b,61ad72ae92cbf3629b3b838f,,,-56,124,1,0,0,response7disk,1.0361,22,-12,1,0,0,rectangle,22,-12,1,0,0,-3,-3,"[88,5,87,46,20,20,39,93,72,78]",22,-12,1,0,0,1,34,115,15,1,Yellow,Yellow.jpg,Pink,Pink.jpg,,
,,,,,,,,,,,,,,,,,,-4,,,,,,,,,,,,,,,,,,,,,,,,,,,,,,RETHA 616b4a94951835aed0530a7c,001,2021-12-06_04h18.33.315,jm_natural_scene_simialrity_2-12-2021,2021.2.3,Win32,60.69434329,616b4a94951835aed0530a7c,61ad71e11ddd29ccf7a27d5b,61ad72ae92cbf3629b3b838f,,,-41,101,1,0,0,response7disk,1.7031,-18,23,1,0,0,rectangle,-18,23,1,0,0,-4,-3,"[88,5,87,46,20,20,39,93,72,78]",-18,23,1,0,0,1,35,116,26,1,DarkGreen,DarkGreen.jpg,LightBlue,LightBlue.jpg,,
,,,,,,,,,,,,,,,,,,-4,,,,,,,,,,,,,,,,,,,,,,,,,,,,,,RETHA 616b4a94951835aed0530a7c,001,2021-12-06_04h18.33.315,jm_natural_scene_simialrity_2-12-2021,2021.2.3,Win32,60.69434329,616b4a94951835aed0530a7c,61ad71e11ddd29ccf7a27d5b,61ad72ae92cbf3629b3b838f,,,-61,108,1,0,0,response7disk,0.8369,20,2,1,0,0,rectangle,20,2,1,0,0,-4,-4,"[88,5,87,46,20,20,39,93,72,78]",20,2,1,0,0,1,36,117,33,1,Turquiose,Turquiose.jpg,Pink,Pink.jpg,,
,,,,,,,,,,,,,,,,,,-4,,,,,,,,,,,,,,,,,,,,,,,,,,,,,,RETHA 616b4a94951835aed0530a7c,001,2021-12-06_04h18.33.315,jm_natural_scene_simialrity_2-12-2021,2021.2.3,Win32,60.69434329,616b4a94951835aed0530a7c,61ad71e11ddd29ccf7a27d5b,61ad72ae92cbf3629b3b838f,,,-39,68,1,0,0,response7disk,0.7193,3,5,1,0,0,rectangle,3,5,1,0,0,-4,-2,"[88,5,87,46,20,20,39,93,72,78]",3,5,1,0,0,1,37,118,69,1,Pink,Pink.jpg,DarkGreen,DarkGreen.jpg,,
,,,,,,,,,,,,,,,,,,-4,,,,,,,,,,,,,,,,,,,,,,,,,,,,,,RETHA 616b4a94951835aed0530a7c,001,2021-12-06_04h18.33.315,jm_natural_scene_simialrity_2-12-2021,2021.2.3,Win32,60.69434329,616b4a94951835aed0530a7c,61ad71e11ddd29ccf7a27d5b,61ad72ae92cbf3629b3b838f,,,-44,66,1,0,0,response7disk,0.6694,13,-13,1,0,0,rectangle,13,-13,1,0,0,-4,3,"[88,5,87,46,20,20,39,93,72,78]",13,-13,1,0,0,1,38,119,65,1,Purple,Purple.jpg,LightGreen,LightGreen.jpg,,
,,,,,,,,,,,,,,,,,,-4,,,,,,,,,,,,,,,,,,,,,,,,,,,,,,RETHA 616b4a94951835aed0530a7c,001,2021-12-06_04h18.33.315,jm_natural_scene_simialrity_2-12-2021,2021.2.3,Win32,60.69434329,616b4a94951835aed0530a7c,61ad71e11ddd29ccf7a27d5b,61ad72ae92cbf3629b3b838f,,,-52,104,1,0,0,response7disk,0.7853,18,-3,1,0,0,rectangle,18,-3,1,0,0,-4,2,"[88,5,87,46,20,20,39,93,72,78]",18,-3,1,0,0,1,39,120,28,1,DarkGreen,DarkGreen.jpg,Pink,Pink.jpg,,
,,,,,,,,,,,,,,,,,,-4,,,,,,,,,,,,,,,,,,,,,,,,,,,,,,RETHA 616b4a94951835aed0530a7c,001,2021-12-06_04h18.33.315,jm_natural_scene_simialrity_2-12-2021,2021.2.3,Win32,60.69434329,616b4a94951835aed0530a7c,61ad71e11ddd29ccf7a27d5b,61ad72ae92cbf3629b3b838f,,,-75,130,1,0,0,response7disk,0.9687,15,4,1,0,0,rectangle,15,4,1,0,0,-4,-4,"[88,5,87,46,20,20,39,93,72,78]",15,4,1,0,0,1,40,121,55,1,Turquiose,Turquiose.jpg,Yellow,Yellow.jpg,,
,,,,,,,,,,,,,,,,,,-4,,,,,,,,,,,,,,,,,,,,,,,,,,,,,,RETHA 616b4a94951835aed0530a7c,001,2021-12-06_04h18.33.315,jm_natural_scene_simialrity_2-12-2021,2021.2.3,Win32,60.69434329,616b4a94951835aed0530a7c,61ad71e11ddd29ccf7a27d5b,61ad72ae92cbf3629b3b838f,,,-41,87,1,0,0,response7disk,0.8183,21,-6,1,0,0,rectangle,21,-6,1,0,0,-4,-1,"[88,5,87,46,20,20,39,93,72,78]",21,-6,1,0,0,1,41,122,61,1,Turquiose,Turquiose.jpg,LightGreen,LightGreen.jpg,,
,,,,,,,,,,,,,,,,,,-4,,,,,,,,,,,,,,,,,,,,,,,,,,,,,,RETHA 616b4a94951835aed0530a7c,001,2021-12-06_04h18.33.315,jm_natural_scene_simialrity_2-12-2021,2021.2.3,Win32,60.69434329,616b4a94951835aed0530a7c,61ad71e11ddd29ccf7a27d5b,61ad72ae92cbf3629b3b838f,,,-50,102,1,0,0,response7disk,0.7186,-4,-7,1,0,0,rectangle,-4,-7,1,0,0,-4,-2,"[88,5,87,46,20,20,39,93,72,78]",-4,-7,1,0,0,1,42,123,11,1,Yellow,Yellow.jpg,DarkGreen,DarkGreen.jpg,,
,,,,,,,,,,,,,,,,,,-4,,,,,,,,,,,,,,,,,,,,,,,,,,,,,,RETHA 616b4a94951835aed0530a7c,001,2021-12-06_04h18.33.315,jm_natural_scene_simialrity_2-12-2021,2021.2.3,Win32,60.69434329,616b4a94951835aed0530a7c,61ad71e11ddd29ccf7a27d5b,61ad72ae92cbf3629b3b838f,,,-47,107,1,0,0,response7disk,1.0356,3,18,1,0,0,rectangle,3,18,1,0,0,-4,-1,"[88,5,87,46,20,20,39,93,72,78]",3,18,1,0,0,1,43,124,32,1,Turquiose,Turquiose.jpg,DarkBlue,DarkBlue.jpg,,
,,,,,,,,,,,,,,,,,,3,,,,,,,,,,,,,,,,,,,,,,,,,,,,,,RETHA 616b4a94951835aed0530a7c,001,2021-12-06_04h18.33.315,jm_natural_scene_simialrity_2-12-2021,2021.2.3,Win32,60.69434329,616b4a94951835aed0530a7c,61ad71e11ddd29ccf7a27d5b,61ad72ae92cbf3629b3b838f,,,87,42,1,0,0,response1disk,1.8045,18,6,1,0,0,rectangle,18,6,1,0,0,-4,-1,"[88,5,87,46,20,20,39,93,72,78]",18,6,1,0,0,1,44,125,18,1,LightGreen,LightGreen.jpg,DarkGreen,DarkGreen.jpg,,
,,,,,,,,,,,,,,,,,,-4,,,,,,,,,,,,,,,,,,,,,,,,,,,,,,RETHA 616b4a94951835aed0530a7c,001,2021-12-06_04h18.33.315,jm_natural_scene_simialrity_2-12-2021,2021.2.3,Win32,60.69434329,616b4a94951835aed0530a7c,61ad71e11ddd29ccf7a27d5b,61ad72ae92cbf3629b3b838f,,,-45,94,1,0,0,response7disk,0.8192,17,-16,1,0,0,rectangle,17,-16,1,0,0,-4,1,"[88,5,87,46,20,20,39,93,72,78]",17,-16,1,0,0,1,45,126,59,1,Purple,Purple.jpg,Yellow,Yellow.jpg,,
,,,,,,,,,,,,,,,,,,-4,,,,,,,,,,,,,,,,,,,,,,,,,,,,,,RETHA 616b4a94951835aed0530a7c,001,2021-12-06_04h18.33.315,jm_natural_scene_simialrity_2-12-2021,2021.2.3,Win32,60.69434329,616b4a94951835aed0530a7c,61ad71e11ddd29ccf7a27d5b,61ad72ae92cbf3629b3b838f,,,-21,86,1,0,0,response7disk,0.9356,14,4,1,0,0,rectangle,14,4,1,0,0,-4,-4,"[88,5,87,46,20,20,39,93,72,78]",14,4,1,0,0,1,46,127,41,1,DarkBlue,DarkBlue.jpg,Purple,Purple.jpg,,
,,,,,,,,,,,,,,,,,,4,,,,,,,,,,,,,,,,,,,,,,,,,,,,,,RETHA 616b4a94951835aed0530a7c,001,2021-12-06_04h18.33.315,jm_natural_scene_simialrity_2-12-2021,2021.2.3,Win32,60.69434329,616b4a94951835aed0530a7c,61ad71e11ddd29ccf7a27d5b,61ad72ae92cbf3629b3b838f,,,44,97,1,0,0,response1disk,1.0526,-4,-2,1,0,0,rectangle,-4,-2,1,0,0,-4,2,"[88,5,87,46,20,20,39,93,72,78]",-4,-2,1,0,0,1,47,128,71,1,LightBlue,LightBlue.jpg,Turquiose,Turquiose.jpg,,
,,,,,,,,,,,,,,,,,,-4,,,,,,,,,,,,,,,,,,,,,,,,,,,,,,RETHA 616b4a94951835aed0530a7c,001,2021-12-06_04h18.33.315,jm_natural_scene_simialrity_2-12-2021,2021.2.3,Win32,60.69434329,616b4a94951835aed0530a7c,61ad71e11ddd29ccf7a27d5b,61ad72ae92cbf3629b3b838f,,,-48,87,1,0,0,response7disk,0.8688,-14,-5,1,0,0,rectangle,-14,-5,1,0,0,-4,1,"[88,5,87,46,20,20,39,93,72,78]",-14,-5,1,0,0,1,48,129,13,1,Yellow,Yellow.jpg,LightBlue,LightBlue.jpg,,
,,,,,,,,,,,,,,,,,,-4,,,,,,,,,,,,,,,,,,,,,,,,,,,,,,RETHA 616b4a94951835aed0530a7c,001,2021-12-06_04h18.33.315,jm_natural_scene_simialrity_2-12-2021,2021.2.3,Win32,60.69434329,616b4a94951835aed0530a7c,61ad71e11ddd29ccf7a27d5b,61ad72ae92cbf3629b3b838f,,,-32,81,1,0,0,response7disk,39.3735,18,-14,1,0,0,rectangle,18,-14,1,0,0,-4,1,"[88,5,87,46,20,20,39,93,72,78]",18,-14,1,0,0,1,49,130,57,1,DarkBlue,DarkBlue.jpg,Yellow,Yellow.jpg,,
,,,,,,,,,,,,,,,,,,-4,,,,,,,,,,,,,,,,,,,,,,,,,,,,,,RETHA 616b4a94951835aed0530a7c,001,2021-12-06_04h18.33.315,jm_natural_scene_simialrity_2-12-2021,2021.2.3,Win32,60.69434329,616b4a94951835aed0530a7c,61ad71e11ddd29ccf7a27d5b,61ad72ae92cbf3629b3b838f,,,-43,97,1,0,0,response7disk,0.8702,2,-18,1,0,0,rectangle,2,-18,1,0,0,-4,-1,"[88,5,87,46,20,20,39,93,72,78]",2,-18,1,0,0,1,50,131,6,1,Red,Red.jpg,DarkBlue,DarkBlue.jpg,,
,,,,,,,,,,,,,,,,,,-4,,,,,,,,,,,,,,,,,,,,,,,,,,,,,,RETHA 616b4a94951835aed0530a7c,001,2021-12-06_04h18.33.315,jm_natural_scene_simialrity_2-12-2021,2021.2.3,Win32,60.69434329,616b4a94951835aed0530a7c,61ad71e11ddd29ccf7a27d5b,61ad72ae92cbf3629b3b838f,,,-42,113,1,0,0,response7disk,0.8191,10,11,1,0,0,rectangle,10,11,1,0,0,-4,-3,"[88,5,87,46,20,20,39,93,72,78]",10,11,1,0,0,1,51,132,66,1,Turquiose,Turquiose.jpg,DarkGreen,DarkGreen.jpg,,
,,,,,,,,,,,,,,,,,,-4,,,,,,,,,,,,,,,,,,,,,,,,,,,,,,RETHA 616b4a94951835aed0530a7c,001,2021-12-06_04h18.33.315,jm_natural_scene_simialrity_2-12-2021,2021.2.3,Win32,60.69434329,616b4a94951835aed0530a7c,61ad71e11ddd29ccf7a27d5b,61ad72ae92cbf3629b3b838f,,,-35,103,1,0,0,response7disk,0.7385,-6,15,1,0,0,rectangle,-6,15,1,0,0,-4,-1,"[88,5,87,46,20,20,39,93,72,78]",-6,15,1,0,0,1,52,133,3,1,Red,Red.jpg,DarkGreen,DarkGreen.jpg,,
,,,,,,,,,,,,,,,,,,4,,,,,,,,,,,,,,,,,,,,,,,,,,,,,,RETHA 616b4a94951835aed0530a7c,001,2021-12-06_04h18.33.315,jm_natural_scene_simialrity_2-12-2021,2021.2.3,Win32,60.69434329,616b4a94951835aed0530a7c,61ad71e11ddd29ccf7a27d5b,61ad72ae92cbf3629b3b838f,,,87,137,1,0,0,response1disk,0.9047,14,5,1,0,0,rectangle,14,5,1,0,0,-4,-3,"[88,5,87,46,20,20,39,93,72,78]",14,5,1,0,0,1,53,134,9,1,Yellow,Yellow.jpg,Yellow,Yellow.jpg,,
,,,,,,,,,,,,,,,,,,4,,,,,,,,,,,,,,,,,,,,,,,,,,,,,,RETHA 616b4a94951835aed0530a7c,001,2021-12-06_04h18.33.315,jm_natural_scene_simialrity_2-12-2021,2021.2.3,Win32,60.69434329,616b4a94951835aed0530a7c,61ad71e11ddd29ccf7a27d5b,61ad72ae92cbf3629b3b838f,,,41,86,1,0,0,response1disk,0.9028,5,-6,1,0,0,rectangle,5,-6,1,0,0,-4,-3,"[88,5,87,46,20,20,39,93,72,78]",5,-6,1,0,0,1,54,135,30,1,Turquiose,Turquiose.jpg,Turquiose,Turquiose.jpg,,
,,,,,,,,,,,,,,,,,,4,,,,,,,,,,,,,,,,,,,,,,,,,,,,,,RETHA 616b4a94951835aed0530a7c,001,2021-12-06_04h18.33.315,jm_natural_scene_simialrity_2-12-2021,2021.2.3,Win32,60.69434329,616b4a94951835aed0530a7c,61ad71e11ddd29ccf7a27d5b,61ad72ae92cbf3629b3b838f,,,23,69,1,0,0,response1disk,1.4025,10,-2,1,0,0,rectangle,10,-2,1,0,0,-4,3,"[88,5,87,46,20,20,39,93,72,78]",10,-2,1,0,0,1,55,136,51,1,Pink,Pink.jpg,Red,Red.jpg,,
,,,,,,,,,,,,,,,,,,-4,,,,,,,,,,,,,,,,,,,,,,,,,,,,,,RETHA 616b4a94951835aed0530a7c,001,2021-12-06_04h18.33.315,jm_natural_scene_simialrity_2-12-2021,2021.2.3,Win32,60.69434329,616b4a94951835aed0530a7c,61ad71e11ddd29ccf7a27d5b,61ad72ae92cbf3629b3b838f,,,-42,104,1,0,0,response7disk,1.0336,0,6,1,0,0,rectangle,0,6,1,0,0,-4,-1,"[88,5,87,46,20,20,39,93,72,78]",0,6,1,0,0,1,56,137,5,1,Red,Red.jpg,LightBlue,LightBlue.jpg,,
,,,,,,,,,,,,,,,,,,3,,,,,,,,,,,,,,,,,,,,,,,,,,,,,,RETHA 616b4a94951835aed0530a7c,001,2021-12-06_04h18.33.315,jm_natural_scene_simialrity_2-12-2021,2021.2.3,Win32,60.69434329,616b4a94951835aed0530a7c,61ad71e11ddd29ccf7a27d5b,61ad72ae92cbf3629b3b838f,,,93,40,1,0,0,response1disk,1.7348,3,7,1,0,0,rectangle,3,7,1,0,0,-4,-1,"[88,5,87,46,20,20,39,93,72,78]",3,7,1,0,0,1,57,138,36,1,LightBlue,LightBlue.jpg,DarkBlue,DarkBlue.jpg,,
,,,,,,,,,,,,,,,,,,-4,,,,,,,,,,,,,,,,,,,,,,,,,,,,,,RETHA 616b4a94951835aed0530a7c,001,2021-12-06_04h18.33.315,jm_natural_scene_simialrity_2-12-2021,2021.2.3,Win32,60.69434329,616b4a94951835aed0530a7c,61ad71e11ddd29ccf7a27d5b,61ad72ae92cbf3629b3b838f,,,-47,113,1,0,0,response7disk,0.8709,-3,11,1,0,0,rectangle,-3,11,1,0,0,-4,-3,"[88,5,87,46,20,20,39,93,72,78]",-3,11,1,0,0,1,58,139,80,1,Purple,Purple.jpg,Pink,Pink.jpg,,
,,,,,,,,,,,,,,,,,,-4,,,,,,,,,,,,,,,,,,,,,,,,,,,,,,RETHA 616b4a94951835aed0530a7c,001,2021-12-06_04h18.33.315,jm_natural_scene_simialrity_2-12-2021,2021.2.3,Win32,60.69434329,616b4a94951835aed0530a7c,61ad71e11ddd29ccf7a27d5b,61ad72ae92cbf3629b3b838f,,,-36,70,1,0,0,response7disk,2.0862,1,-3,1,0,0,rectangle,1,-3,1,0,0,-4,1,"[88,5,87,46,20,20,39,93,72,78]",1,-3,1,0,0,1,59,140,43,1,Pink,Pink.jpg,Purple,Purple.jpg,,
,,,,,,,,,,,,,,,,,,-4,,,,,,,,,,,,,,,,,,,,,,,,,,,,,,RETHA 616b4a94951835aed0530a7c,001,2021-12-06_04h18.33.315,jm_natural_scene_simialrity_2-12-2021,2021.2.3,Win32,60.69434329,616b4a94951835aed0530a7c,61ad71e11ddd29ccf7a27d5b,61ad72ae92cbf3629b3b838f,,,-36,118,1,0,0,response7disk,1.7855,-2,10,1,0,0,rectangle,-2,10,1,0,0,-4,-4,"[88,5,87,46,20,20,39,93,72,78]",-2,10,1,0,0,1,60,141,74,1,Purple,Purple.jpg,Turquiose,Turquiose.jpg,,
,,,,,,,,,,,,,,,,,,-4,,,,,,,,,,,,,,,,,,,,,,,,,,,,,,RETHA 616b4a94951835aed0530a7c,001,2021-12-06_04h18.33.315,jm_natural_scene_simialrity_2-12-2021,2021.2.3,Win32,60.69434329,616b4a94951835aed0530a7c,61ad71e11ddd29ccf7a27d5b,61ad72ae92cbf3629b3b838f,,,-72,128,1,0,0,response7disk,0.8886,-12,-1,1,0,0,rectangle,-12,-1,1,0,0,-4,2,"[88,5,87,46,20,20,39,93,72,78]",-12,-1,1,0,0,1,61,142,62,1,LightBlue,LightBlue.jpg,LightGreen,LightGreen.jpg,,
,,,,,,,,,,,,,,,,,,4,,,,,,,,,,,,,,,,,,,,,,,,,,,,,,RETHA 616b4a94951835aed0530a7c,001,2021-12-06_04h18.33.315,jm_natural_scene_simialrity_2-12-2021,2021.2.3,Win32,60.69434329,616b4a94951835aed0530a7c,61ad71e11ddd29ccf7a27d5b,61ad72ae92cbf3629b3b838f,,,45,74,1,0,0,response1disk,1.0028,4,-10,1,0,0,rectangle,4,-10,1,0,0,-4,3,"[88,5,87,46,20,20,39,93,72,78]",4,-10,1,0,0,1,62,143,44,1,Purple,Purple.jpg,Purple,Purple.jpg,,
,,,,,,,,,,,,,,,,,,-4,,,,,,,,,,,,,,,,,,,,,,,,,,,,,,RETHA 616b4a94951835aed0530a7c,001,2021-12-06_04h18.33.315,jm_natural_scene_simialrity_2-12-2021,2021.2.3,Win32,60.69434329,616b4a94951835aed0530a7c,61ad71e11ddd29ccf7a27d5b,61ad72ae92cbf3629b3b838f,,,-56,110,1,0,0,response7disk,1.0353,10,0,1,0,0,rectangle,10,0,1,0,0,-4,-3,"[88,5,87,46,20,20,39,93,72,78]",10,0,1,0,0,1,63,144,19,1,LightGreen,LightGreen.jpg,Turquiose,Turquiose.jpg,,
,,,,,,,,,,,,,,,,,,-4,,,,,,,,,,,,,,,,,,,,,,,,,,,,,,RETHA 616b4a94951835aed0530a7c,001,2021-12-06_04h18.33.315,jm_natural_scene_simialrity_2-12-2021,2021.2.3,Win32,60.69434329,616b4a94951835aed0530a7c,61ad71e11ddd29ccf7a27d5b,61ad72ae92cbf3629b3b838f,,,-57,122,1,0,0,response7disk,1.0039,9,8,1,0,0,rectangle,9,8,1,0,0,-4,3,"[88,5,87,46,20,20,39,93,72,78]",9,8,1,0,0,1,64,145,31,1,Turquiose,Turquiose.jpg,LightBlue,LightBlue.jpg,,
,,,,,,,,,,,,,,,,,,-4,,,,,,,,,,,,,,,,,,,,,,,,,,,,,,RETHA 616b4a94951835aed0530a7c,001,2021-12-06_04h18.33.315,jm_natural_scene_simialrity_2-12-2021,2021.2.3,Win32,60.69434329,616b4a94951835aed0530a7c,61ad71e11ddd29ccf7a27d5b,61ad72ae92cbf3629b3b838f,,,-21,92,1,0,0,response7disk,1.0471,-5,-1,1,0,0,rectangle,-5,-1,1,0,0,-4,-1,"[88,5,87,46,20,20,39,93,72,78]",-5,-1,1,0,0,1,65,146,8,1,Red,Red.jpg,Purple,Purple.jpg,,
,,,,,,,,,,,,,,,,,,-4,,,,,,,,,,,,,,,,,,,,,,,,,,,,,,RETHA 616b4a94951835aed0530a7c,001,2021-12-06_04h18.33.315,jm_natural_scene_simialrity_2-12-2021,2021.2.3,Win32,60.69434329,616b4a94951835aed0530a7c,61ad71e11ddd29ccf7a27d5b,61ad72ae92cbf3629b3b838f,,,-34,72,1,0,0,response7disk,1.0822,10,-8,1,0,0,rectangle,10,-8,1,0,0,-4,-2,"[88,5,87,46,20,20,39,93,72,78]",10,-8,1,0,0,1,66,147,38,1,LightBlue,LightBlue.jpg,Purple,Purple.jpg,,
,,,,,,,,,,,,,,,,,,-4,,,,,,,,,,,,,,,,,,,,,,,,,,,,,,RETHA 616b4a94951835aed0530a7c,001,2021-12-06_04h18.33.315,jm_natural_scene_simialrity_2-12-2021,2021.2.3,Win32,60.69434329,616b4a94951835aed0530a7c,61ad71e11ddd29ccf7a27d5b,61ad72ae92cbf3629b3b838f,,,-23,61,1,0,0,response7disk,0.9186,22,-19,1,0,0,rectangle,22,-19,1,0,0,2,-1,"[88,5,87,46,20,20,39,93,72,78]",22,-19,1,0,0,1,67,148,29,1,DarkGreen,DarkGreen.jpg,Purple,Purple.jpg,,
,,,,,,,,,,,,,,,,,,4,,,,,,,,,,,,,,,,,,,,,,,,,,,,,,RETHA 616b4a94951835aed0530a7c,001,2021-12-06_04h18.33.315,jm_natural_scene_simialrity_2-12-2021,2021.2.3,Win32,60.69434329,616b4a94951835aed0530a7c,61ad71e11ddd29ccf7a27d5b,61ad72ae92cbf3629b3b838f,,,42,114,1,0,0,response1disk,0.9687,-9,-21,1,0,0,rectangle,-9,-21,1,0,0,2,-1,"[88,5,87,46,20,20,39,93,72,78]",-9,-21,1,0,0,1,68,149,17,1,LightGreen,LightGreen.jpg,LightGreen,LightGreen.jpg,,
,,,,,,,,,,,,,,,,,,-4,,,,,,,,,,,,,,,,,,,,,,,,,,,,,,RETHA 616b4a94951835aed0530a7c,001,2021-12-06_04h18.33.315,jm_natural_scene_simialrity_2-12-2021,2021.2.3,Win32,60.69434329,616b4a94951835aed0530a7c,61ad71e11ddd29ccf7a27d5b,61ad72ae92cbf3629b3b838f,,,-49,69,1,0,0,response7disk,0.8521,-24,10,1,0,0,rectangle,-24,10,1,0,0,2,-3,"[88,5,87,46,20,20,39,93,72,78]",-24,10,1,0,0,1,69,150,79,1,Purple,Purple.jpg,DarkBlue,DarkBlue.jpg,,
,,,,,,,,,,,,,,,,,,-4,,,,,,,,,,,,,,,,,,,,,,,,,,,,,,RETHA 616b4a94951835aed0530a7c,001,2021-12-06_04h18.33.315,jm_natural_scene_simialrity_2-12-2021,2021.2.3,Win32,60.69434329,616b4a94951835aed0530a7c,61ad71e11ddd29ccf7a27d5b,61ad72ae92cbf3629b3b838f,,,-65,97,1,0,0,response7disk,0.8682,-12,-19,1,0,0,rectangle,-12,-19,1,0,0,2,1,"[88,5,87,46,20,20,39,93,72,78]",-12,-19,1,0,0,1,70,151,12,1,Yellow,Yellow.jpg,Turquiose,Turquiose.jpg,,
,,,,,,,,,,,,,,,,,,-4,,,,,,,,,,,,,,,,,,,,,,,,,,,,,,RETHA 616b4a94951835aed0530a7c,001,2021-12-06_04h18.33.315,jm_natural_scene_simialrity_2-12-2021,2021.2.3,Win32,60.69434329,616b4a94951835aed0530a7c,61ad71e11ddd29ccf7a27d5b,61ad72ae92cbf3629b3b838f,,,-64,93,1,0,0,response7disk,0.9182,21,12,1,0,0,rectangle,21,12,1,0,0,2,-4,"[88,5,87,46,20,20,39,93,72,78]",21,12,1,0,0,1,71,152,27,1,DarkGreen,DarkGreen.jpg,DarkBlue,DarkBlue.jpg,,
,,,,,,,,,,,,,,,,,,-4,,,,,,,,,,,,,,,,,,,,,,,,,,,,,,RETHA 616b4a94951835aed0530a7c,001,2021-12-06_04h18.33.315,jm_natural_scene_simialrity_2-12-2021,2021.2.3,Win32,60.69434329,616b4a94951835aed0530a7c,61ad71e11ddd29ccf7a27d5b,61ad72ae92cbf3629b3b838f,,,-36,105,1,0,0,response7disk,0.8856,-5,-4,1,0,0,rectangle,-5,-4,1,0,0,2,-3,"[88,5,87,46,20,20,39,93,72,78]",-5,-4,1,0,0,1,72,153,25,1,DarkGreen,DarkGreen.jpg,Turquiose,Turquiose.jpg,,
,,,,,,,,,,,,,,,,,,-4,,,,,,,,,,,,,,,,,,,,,,,,,,,,,,RETHA 616b4a94951835aed0530a7c,001,2021-12-06_04h18.33.315,jm_natural_scene_simialrity_2-12-2021,2021.2.3,Win32,60.69434329,616b4a94951835aed0530a7c,61ad71e11ddd29ccf7a27d5b,61ad72ae92cbf3629b3b838f,,,-32,64,1,0,0,response7disk,2.3514,18,-8,1,0,0,rectangle,18,-8,1,0,0,2,1,"[88,5,87,46,20,20,39,93,72,78]",18,-8,1,0,0,1,73,154,56,1,LightBlue,LightBlue.jpg,Yellow,Yellow.jpg,,
,,,,,,,,,,,,,,,,,,-4,,,,,,,,,,,,,,,,,,,,,,,,,,,,,,RETHA 616b4a94951835aed0530a7c,001,2021-12-06_04h18.33.315,jm_natural_scene_simialrity_2-12-2021,2021.2.3,Win32,60.69434329,616b4a94951835aed0530a7c,61ad71e11ddd29ccf7a27d5b,61ad72ae92cbf3629b3b838f,,,-31,80,1,0,0,response7disk,0.9018,4,1,1,0,0,rectangle,4,1,1,0,0,2,-3,"[88,5,87,46,20,20,39,93,72,78]",4,1,1,0,0,1,74,155,22,1,LightGreen,LightGreen.jpg,Pink,Pink.jpg,,
,,,,,,,,,,,,,,,,,,4,,,,,,,,,,,,,,,,,,,,,,,,,,,,,,RETHA 616b4a94951835aed0530a7c,001,2021-12-06_04h18.33.315,jm_natural_scene_simialrity_2-12-2021,2021.2.3,Win32,60.69434329,616b4a94951835aed0530a7c,61ad71e11ddd29ccf7a27d5b,61ad72ae92cbf3629b3b838f,,,78,78,1,0,0,response1disk,1.0847,9,11,1,0,0,rectangle,9,11,1,0,0,2,-1,"[88,5,87,46,20,20,39,93,72,78]",9,11,1,0,0,1,75,156,72,1,DarkBlue,DarkBlue.jpg,Turquiose,Turquiose.jpg,,
,,,,,,,,,,,,,,,,,,-4,,,,,,,,,,,,,,,,,,,,,,,,,,,,,,RETHA 616b4a94951835aed0530a7c,001,2021-12-06_04h18.33.315,jm_natural_scene_simialrity_2-12-2021,2021.2.3,Win32,60.69434329,616b4a94951835aed0530a7c,61ad71e11ddd29ccf7a27d5b,61ad72ae92cbf3629b3b838f,,,-28,82,1,0,0,response7disk,1.0028,-12,-10,1,0,0,rectangle,-12,-10,1,0,0,2,-3,"[88,5,87,46,20,20,39,93,72,78]",-12,-10,1,0,0,1,76,157,46,1,LightGreen,LightGreen.jpg,Red,Red.jpg,,
,,,,,,,,,,,,,,,,,,-4,,,,,,,,,,,,,,,,,,,,,,,,,,,,,,RETHA 616b4a94951835aed0530a7c,001,2021-12-06_04h18.33.315,jm_natural_scene_simialrity_2-12-2021,2021.2.3,Win32,60.69434329,616b4a94951835aed0530a7c,61ad71e11ddd29ccf7a27d5b,61ad72ae92cbf3629b3b838f,,,-57,87,1,0,0,response7disk,0.9339,-7,8,1,0,0,rectangle,-7,8,1,0,0,2,3,"[88,5,87,46,20,20,39,93,72,78]",-7,8,1,0,0,1,77,158,73,1,Pink,Pink.jpg,Turquiose,Turquiose.jpg,,
,,,,,,,,,,,,,,,,,,-4,,,,,,,,,,,,,,,,,,,,,,,,,,,,,,RETHA 616b4a94951835aed0530a7c,001,2021-12-06_04h18.33.315,jm_natural_scene_simialrity_2-12-2021,2021.2.3,Win32,60.69434329,616b4a94951835aed0530a7c,61ad71e11ddd29ccf7a27d5b,61ad72ae92cbf3629b3b838f,,,-46,108,1,0,0,response7disk,0.9889,-19,4,1,0,0,rectangle,-19,4,1,0,0,2,3,"[88,5,87,46,20,20,39,93,72,78]",-19,4,1,0,0,1,78,159,2,1,Red,Red.jpg,LightGreen,LightGreen.jpg,,
,,,,,,,,,,,,,,,,,,-4,,,,,,,,,,,,,,,,,,,,,,,,,,,,,,RETHA 616b4a94951835aed0530a7c,001,2021-12-06_04h18.33.315,jm_natural_scene_simialrity_2-12-2021,2021.2.3,Win32,60.69434329,616b4a94951835aed0530a7c,61ad71e11ddd29ccf7a27d5b,61ad72ae92cbf3629b3b838f,,,-38,104,1,0,0,response7disk,0.8192,0,-3,1,0,0,rectangle,0,-3,1,0,0,2,2,"[88,5,87,46,20,20,39,93,72,78]",0,-3,1,0,0,1,79,160,52,1,Purple,Purple.jpg,Red,Red.jpg,,
,,,,,,,,,,,,,,,,,,-4,,,,,,,,,,,,,,,,,,,,,,,,,,,,,,RETHA 616b4a94951835aed0530a7c,001,2021-12-06_04h18.33.315,jm_natural_scene_simialrity_2-12-2021,2021.2.3,Win32,60.69434329,616b4a94951835aed0530a7c,61ad71e11ddd29ccf7a27d5b,61ad72ae92cbf3629b3b838f,,,-34,83,1,0,0,response7disk,0.8687,3,-13,1,0,0,rectangle,3,-13,1,0,0,2,-1,"[88,5,87,46,20,20,39,93,72,78]",3,-13,1,0,0,1,80,161,40,1,DarkBlue,DarkBlue.jpg,Pink,Pink.jpg,,
