key_resp.keys,key_resp.rt,key_resp_16.keys,key_resp_16.rt,key_resp_2.keys,key_resp_2.rt,key_resp_3.keys,key_resp_3.rt,key_resp_19.keys,key_resp_19.rt,key_resp_10.keys,key_resp_10.rt,mouse_prac.x,mouse_prac.y,mouse_prac.leftButton,mouse_prac.midButton,mouse_prac.rightButton,mouse_prac.clicked_name,similarity,mouse_10.x,mouse_10.y,mouse_10.leftButton,mouse_10.midButton,mouse_10.rightButton,mouse_10.clicked_name,mouse_catch_prac.x,mouse_catch_prac.y,mouse_catch_prac.leftButton,mouse_catch_prac.midButton,mouse_catch_prac.rightButton,catchnumberprac,mouse_6.x,mouse_6.y,mouse_6.leftButton,mouse_6.midButton,mouse_6.rightButton,during_prac.thisRepN,during_prac.thisTrialN,during_prac.thisN,during_prac.thisIndex,during_prac.ran,trailimage1,trial1adress,trailimage2,trial2adress,participant,session,date,expName,psychopyVersion,OS,frameRate,PROLIFIC_PID,STUDY_ID,SESSION_ID,mouse_catch_prac.clicked_name,catchprac,mouse_6.clicked_name,key_resp_22.keys,key_resp_22.rt,mouse.x,mouse.y,mouse.leftButton,mouse.midButton,mouse.rightButton,mouse.clicked_name,response_time,mouse_2.x,mouse_2.y,mouse_2.leftButton,mouse_2.midButton,mouse_2.rightButton,mouse_2.clicked_name,mouse_3.x,mouse_3.y,mouse_3.leftButton,mouse_3.midButton,mouse_3.rightButton,catchresponse,catchnumber,catchtrialorder,mouse_11.x,mouse_11.y,mouse_11.leftButton,mouse_11.midButton,mouse_11.rightButton,trials_2.thisRepN,trials_2.thisTrialN,trials_2.thisN,trials_2.thisIndex,trials_2.ran,image1,image1adress,image2,image2adress,mouse_3.clicked_name,mouse_11.clicked_name
space,1.8711,space,2.8152,space,2.018,space,27.0397,space,9.8852,space,2.3522,-99,-57.5,1,0,0,response5disk_5,-2,-8,-3.5,1,0,0,rectangle_8,-8,-3.5,1,0,0,3,-8,-3.5,1,0,0,0,0,0,3,1,trail2,trail2.jpg,trail2,trail2.jpg,5c0e94f62932300001e2e0d3,001,2021-12-17_24h08.55.352,jm_natural_scene_simialrity_2-12-2021_version2,2021.2.3,Win32,59.78358343,5c0e94f62932300001e2e0d3,61bbc5c79a1c66460f44041e,61bbc604840f93381668c987,,,,,,,,,,,,,,,,,,,,,,,,,,,,,,,,,,,,,,,,,,
,,,,,,,,,,,,85,31.5,1,0,0,response1disk_5,3,3,-2.5,1,0,0,rectangle_8,3,-2.5,1,0,0,3,3,-2.5,1,0,0,0,1,1,5,1,trail3,trail3.jpg,trail3,trail3.jpg,5c0e94f62932300001e2e0d3,001,2021-12-17_24h08.55.352,jm_natural_scene_simialrity_2-12-2021_version2,2021.2.3,Win32,59.78358343,5c0e94f62932300001e2e0d3,61bbc5c79a1c66460f44041e,61bbc604840f93381668c987,,,,,,,,,,,,,,,,,,,,,,,,,,,,,,,,,,,,,,,,,,
,,,,,,,,,,,,-83,-43.5,1,0,0,response5disk_5,-2,-7,-3.5,1,0,0,rectangle_8,94,35.5,1,0,0,3,2,-7.5,1,0,0,0,2,2,4,1,trail2,trail2.jpg,trail3,trail3.jpg,5c0e94f62932300001e2e0d3,001,2021-12-17_24h08.55.352,jm_natural_scene_simialrity_2-12-2021_version2,2021.2.3,Win32,59.78358343,5c0e94f62932300001e2e0d3,61bbc5c79a1c66460f44041e,61bbc604840f93381668c987,response1disk_7,3,rectangle_4,,,,,,,,,,,,,,,,,,,,,,,,,,,,,,,,,,,,,,,
,,,,,,,,,,,,-64,-43.5,1,0,0,response5disk_5,-2,-1,1.5,1,0,0,rectangle_8,-1,1.5,1,0,0,3,-1,1.5,1,0,0,0,3,3,2,1,trail1,trail1.jpg,trail3,trail3.jpg,5c0e94f62932300001e2e0d3,001,2021-12-17_24h08.55.352,jm_natural_scene_simialrity_2-12-2021_version2,2021.2.3,Win32,59.78358343,5c0e94f62932300001e2e0d3,61bbc5c79a1c66460f44041e,61bbc604840f93381668c987,,,,,,,,,,,,,,,,,,,,,,,,,,,,,,,,,,,,,,,,,,
,,,,,,,,,,,,-69,46.5,1,0,0,response7disk_5,-3,0,1.5,1,0,0,rectangle_8,111,37.5,1,0,0,3,7,-1.5,1,0,0,0,4,4,1,1,trail1,trail1.jpg,trail2,trail2.jpg,5c0e94f62932300001e2e0d3,001,2021-12-17_24h08.55.352,jm_natural_scene_simialrity_2-12-2021_version2,2021.2.3,Win32,59.78358343,5c0e94f62932300001e2e0d3,61bbc5c79a1c66460f44041e,61bbc604840f93381668c987,response1disk_7,3,rectangle_4,,,,,,,,,,,,,,,,,,,,,,,,,,,,,,,,,,,,,,,
,,,,,,,,,,,,40,96.5,1,0,0,response1disk_5,4,-6,9.5,1,0,0,rectangle_8,-6,9.5,1,0,0,3,-6,9.5,1,0,0,0,5,5,0,1,trail1,trail1.jpg,trail1,trail1.jpg,5c0e94f62932300001e2e0d3,001,2021-12-17_24h08.55.352,jm_natural_scene_simialrity_2-12-2021_version2,2021.2.3,Win32,59.78358343,5c0e94f62932300001e2e0d3,61bbc5c79a1c66460f44041e,61bbc604840f93381668c987,,,,,,,,,,,,,,,,,,,,,,,,,,,,,,,,,,,,,,,,,,
,,,,,,,,,,,,,,,,,,-3,,,,,,,,,,,,,,,,,,,,,,,,,,,5c0e94f62932300001e2e0d3,001,2021-12-17_24h08.55.352,jm_natural_scene_simialrity_2-12-2021_version2,2021.2.3,Win32,59.78358343,5c0e94f62932300001e2e0d3,61bbc5c79a1c66460f44041e,61bbc604840f93381668c987,,,,space,2.2024,-56,42.5,1,0,0,response7disk,2.8502,-6,-0.5,1,0,0,rectangle,-6,-0.5,1,0,0,,3,"[63,6,48,16,68,9,68,66,47,64]",-6,-0.5,1,0,0,0,0,0,61,1,Turquiose,Turquiose.jpg,LightGreen,LightGreen.jpg,,
,,,,,,,,,,,,,,,,,,-4,,,,,,,,,,,,,,,,,,,,,,,,,,,5c0e94f62932300001e2e0d3,001,2021-12-17_24h08.55.352,jm_natural_scene_simialrity_2-12-2021_version2,2021.2.3,Win32,59.78358343,5c0e94f62932300001e2e0d3,61bbc5c79a1c66460f44041e,61bbc604840f93381668c987,,,,,,-44,87.5,1,0,0,response7disk,1.4821,-4,-15.5,1,0,0,rectangle,-4,-15.5,1,0,0,,1,"[63,6,48,16,68,9,68,66,47,64]",-4,-15.5,1,0,0,0,1,1,54,1,DarkGreen,DarkGreen.jpg,Yellow,Yellow.jpg,,
,,,,,,,,,,,,,,,,,,-3,,,,,,,,,,,,,,,,,,,,,,,,,,,5c0e94f62932300001e2e0d3,001,2021-12-17_24h08.55.352,jm_natural_scene_simialrity_2-12-2021_version2,2021.2.3,Win32,59.78358343,5c0e94f62932300001e2e0d3,61bbc5c79a1c66460f44041e,61bbc604840f93381668c987,,,,,,-91,47.5,1,0,0,response7disk,1.5008,-15,-9.5,1,0,0,rectangle,-15,-9.5,1,0,0,,-1,"[63,6,48,16,68,9,68,66,47,64]",-15,-9.5,1,0,0,0,2,2,16,1,Yellow,Yellow.jpg,Purple,Purple.jpg,,
,,,,,,,,,,,,,,,,,,-2,,,,,,,,,,,,,,,,,,,,,,,,,,,5c0e94f62932300001e2e0d3,001,2021-12-17_24h08.55.352,jm_natural_scene_simialrity_2-12-2021_version2,2021.2.3,Win32,59.78358343,5c0e94f62932300001e2e0d3,61bbc5c79a1c66460f44041e,61bbc604840f93381668c987,,,,,,-69,-46.5,1,0,0,response5disk,1.0502,-9,-13.5,1,0,0,rectangle,-9,-13.5,1,0,0,,-4,"[63,6,48,16,68,9,68,66,47,64]",-9,-13.5,1,0,0,0,3,3,77,1,Purple,Purple.jpg,LightBlue,LightBlue.jpg,,
,,,,,,,,,,,,,,,,,,-3,,,,,,,,,,,,,,,,,,,,,,,,,,,5c0e94f62932300001e2e0d3,001,2021-12-17_24h08.55.352,jm_natural_scene_simialrity_2-12-2021_version2,2021.2.3,Win32,59.78358343,5c0e94f62932300001e2e0d3,61bbc5c79a1c66460f44041e,61bbc604840f93381668c987,,,,,,-63,44.5,1,0,0,response7disk,1.0001,-1,5.5,1,0,0,rectangle,-1,5.5,1,0,0,,-3,"[63,6,48,16,68,9,68,66,47,64]",-1,5.5,1,0,0,0,4,4,26,1,DarkGreen,DarkGreen.jpg,LightBlue,LightBlue.jpg,,
,,,,,,,,,,,,,,,,,,-3,,,,,,,,,,,,,,,,,,,,,,,,,,,5c0e94f62932300001e2e0d3,001,2021-12-17_24h08.55.352,jm_natural_scene_simialrity_2-12-2021_version2,2021.2.3,Win32,59.78358343,5c0e94f62932300001e2e0d3,61bbc5c79a1c66460f44041e,61bbc604840f93381668c987,,,,,,-70,42.5,1,0,0,response7disk,1.0171,-9,7.5,1,0,0,rectangle,-74,33.5,1,0,0,-3,-3,"[63,6,48,16,68,9,68,66,47,64]",-1,-2.5,1,0,0,0,5,5,69,1,Pink,Pink.jpg,DarkGreen,DarkGreen.jpg,response7disk_3,rectangle
,,,,,,,,,,,,,,,,,,-3,,,,,,,,,,,,,,,,,,,,,,,,,,,5c0e94f62932300001e2e0d3,001,2021-12-17_24h08.55.352,jm_natural_scene_simialrity_2-12-2021_version2,2021.2.3,Win32,59.78358343,5c0e94f62932300001e2e0d3,61bbc5c79a1c66460f44041e,61bbc604840f93381668c987,,,,,,-72,46.5,1,0,0,response7disk,1.3989,-14,-4.5,1,0,0,rectangle,-14,-4.5,1,0,0,-3,2,"[63,6,48,16,68,9,68,66,47,64]",-14,-4.5,1,0,0,0,6,6,5,1,Red,Red.jpg,LightBlue,LightBlue.jpg,,
,,,,,,,,,,,,,,,,,,-4,,,,,,,,,,,,,,,,,,,,,,,,,,,5c0e94f62932300001e2e0d3,001,2021-12-17_24h08.55.352,jm_natural_scene_simialrity_2-12-2021_version2,2021.2.3,Win32,59.78358343,5c0e94f62932300001e2e0d3,61bbc5c79a1c66460f44041e,61bbc604840f93381668c987,,,,,,-29,62.5,1,0,0,response7disk,0.8172,-8,-1.5,1,0,0,rectangle,-8,-1.5,1,0,0,-3,3,"[63,6,48,16,68,9,68,66,47,64]",-8,-1.5,1,0,0,0,7,7,43,1,Pink,Pink.jpg,Purple,Purple.jpg,,
,,,,,,,,,,,,,,,,,,4,,,,,,,,,,,,,,,,,,,,,,,,,,,5c0e94f62932300001e2e0d3,001,2021-12-17_24h08.55.352,jm_natural_scene_simialrity_2-12-2021_version2,2021.2.3,Win32,59.78358343,5c0e94f62932300001e2e0d3,61bbc5c79a1c66460f44041e,61bbc604840f93381668c987,,,,,,53,102.5,1,0,0,response1disk,0.8354,-6,5.5,1,0,0,rectangle,-45,-98.5,1,0,0,-1,-1,"[63,6,48,16,68,9,68,66,47,64]",-10,-0.5,1,0,0,0,8,8,0,1,Red,Red.jpg,Red,Red.jpg,response5disk_3,rectangle
,,,,,,,,,,,,,,,,,,-3,,,,,,,,,,,,,,,,,,,,,,,,,,,5c0e94f62932300001e2e0d3,001,2021-12-17_24h08.55.352,jm_natural_scene_simialrity_2-12-2021_version2,2021.2.3,Win32,59.78358343,5c0e94f62932300001e2e0d3,61bbc5c79a1c66460f44041e,61bbc604840f93381668c987,,,,,,-80,45.5,1,0,0,response7disk,1.4002,-13,-1.5,1,0,0,rectangle,-13,-1.5,1,0,0,-1,-2,"[63,6,48,16,68,9,68,66,47,64]",-13,-1.5,1,0,0,0,9,9,28,1,DarkGreen,DarkGreen.jpg,Pink,Pink.jpg,,
,,,,,,,,,,,,,,,,,,-4,,,,,,,,,,,,,,,,,,,,,,,,,,,5c0e94f62932300001e2e0d3,001,2021-12-17_24h08.55.352,jm_natural_scene_simialrity_2-12-2021_version2,2021.2.3,Win32,59.78358343,5c0e94f62932300001e2e0d3,61bbc5c79a1c66460f44041e,61bbc604840f93381668c987,,,,,,-29,67.5,1,0,0,response7disk,0.7182,-2,-11.5,1,0,0,rectangle,-2,-11.5,1,0,0,-1,-2,"[63,6,48,16,68,9,68,66,47,64]",-2,-11.5,1,0,0,0,10,10,32,1,Turquiose,Turquiose.jpg,DarkBlue,DarkBlue.jpg,,
,,,,,,,,,,,,,,,,,,-3,,,,,,,,,,,,,,,,,,,,,,,,,,,5c0e94f62932300001e2e0d3,001,2021-12-17_24h08.55.352,jm_natural_scene_simialrity_2-12-2021_version2,2021.2.3,Win32,59.78358343,5c0e94f62932300001e2e0d3,61bbc5c79a1c66460f44041e,61bbc604840f93381668c987,,,,,,-81,28.5,1,0,0,response7disk,0.8519,-3,-13.5,1,0,0,rectangle,-3,-13.5,1,0,0,-1,-2,"[63,6,48,16,68,9,68,66,47,64]",-3,-13.5,1,0,0,0,11,11,33,1,Turquiose,Turquiose.jpg,Pink,Pink.jpg,,
,,,,,,,,,,,,,,,,,,-2,,,,,,,,,,,,,,,,,,,,,,,,,,,5c0e94f62932300001e2e0d3,001,2021-12-17_24h08.55.352,jm_natural_scene_simialrity_2-12-2021_version2,2021.2.3,Win32,59.78358343,5c0e94f62932300001e2e0d3,61bbc5c79a1c66460f44041e,61bbc604840f93381668c987,,,,,,-76,-60.5,1,0,0,response5disk,1.0992,-3,-10.5,1,0,0,rectangle,-3,-10.5,1,0,0,-1,-3,"[63,6,48,16,68,9,68,66,47,64]",-3,-10.5,1,0,0,0,12,12,52,1,Purple,Purple.jpg,Red,Red.jpg,,
,,,,,,,,,,,,,,,,,,-1,,,,,,,,,,,,,,,,,,,,,,,,,,,5c0e94f62932300001e2e0d3,001,2021-12-17_24h08.55.352,jm_natural_scene_simialrity_2-12-2021_version2,2021.2.3,Win32,59.78358343,5c0e94f62932300001e2e0d3,61bbc5c79a1c66460f44041e,61bbc604840f93381668c987,,,,,,-18,-89.5,1,0,0,response5disk,1.8499,5,-1.5,1,0,0,rectangle,5,-1.5,1,0,0,-1,-2,"[63,6,48,16,68,9,68,66,47,64]",5,-1.5,1,0,0,0,13,13,76,1,Pink,Pink.jpg,LightBlue,LightBlue.jpg,,
,,,,,,,,,,,,,,,,,,-3,,,,,,,,,,,,,,,,,,,,,,,,,,,5c0e94f62932300001e2e0d3,001,2021-12-17_24h08.55.352,jm_natural_scene_simialrity_2-12-2021_version2,2021.2.3,Win32,59.78358343,5c0e94f62932300001e2e0d3,61bbc5c79a1c66460f44041e,61bbc604840f93381668c987,,,,,,-85,58.5,1,0,0,response7disk,0.9691,5,9.5,1,0,0,rectangle,5,9.5,1,0,0,-1,-1,"[63,6,48,16,68,9,68,66,47,64]",5,9.5,1,0,0,0,14,14,71,1,LightBlue,LightBlue.jpg,Turquiose,Turquiose.jpg,,
,,,,,,,,,,,,,,,,,,-4,,,,,,,,,,,,,,,,,,,,,,,,,,,5c0e94f62932300001e2e0d3,001,2021-12-17_24h08.55.352,jm_natural_scene_simialrity_2-12-2021_version2,2021.2.3,Win32,59.78358343,5c0e94f62932300001e2e0d3,61bbc5c79a1c66460f44041e,61bbc604840f93381668c987,,,,,,-31,75.5,1,0,0,response7disk,0.8495,-4,0.5,1,0,0,rectangle,-91,33.5,1,0,0,-3,-3,"[63,6,48,16,68,9,68,66,47,64]",-10,-0.5,1,0,0,0,15,15,59,1,Purple,Purple.jpg,Yellow,Yellow.jpg,response7disk_3,rectangle
,,,,,,,,,,,,,,,,,,4,,,,,,,,,,,,,,,,,,,,,,,,,,,5c0e94f62932300001e2e0d3,001,2021-12-17_24h08.55.352,jm_natural_scene_simialrity_2-12-2021_version2,2021.2.3,Win32,59.78358343,5c0e94f62932300001e2e0d3,61bbc5c79a1c66460f44041e,61bbc604840f93381668c987,,,,,,38,100.5,1,0,0,response1disk,0.9676,-3,7.5,1,0,0,rectangle,-3,7.5,1,0,0,-3,-2,"[63,6,48,16,68,9,68,66,47,64]",-3,7.5,1,0,0,0,16,16,24,1,DarkGreen,DarkGreen.jpg,DarkGreen,DarkGreen.jpg,,
,,,,,,,,,,,,,,,,,,-2,,,,,,,,,,,,,,,,,,,,,,,,,,,5c0e94f62932300001e2e0d3,001,2021-12-17_24h08.55.352,jm_natural_scene_simialrity_2-12-2021_version2,2021.2.3,Win32,59.78358343,5c0e94f62932300001e2e0d3,61bbc5c79a1c66460f44041e,61bbc604840f93381668c987,,,,,,-70,-52.5,1,0,0,response5disk,1.767,-6,-5.5,1,0,0,rectangle,-6,-5.5,1,0,0,-3,-3,"[63,6,48,16,68,9,68,66,47,64]",-6,-5.5,1,0,0,0,17,17,38,1,LightBlue,LightBlue.jpg,Purple,Purple.jpg,,
,,,,,,,,,,,,,,,,,,-3,,,,,,,,,,,,,,,,,,,,,,,,,,,5c0e94f62932300001e2e0d3,001,2021-12-17_24h08.55.352,jm_natural_scene_simialrity_2-12-2021_version2,2021.2.3,Win32,59.78358343,5c0e94f62932300001e2e0d3,61bbc5c79a1c66460f44041e,61bbc604840f93381668c987,,,,,,-71,39.5,1,0,0,response7disk,1.2007,1,-19.5,1,0,0,rectangle,1,-19.5,1,0,0,-3,-4,"[63,6,48,16,68,9,68,66,47,64]",1,-19.5,1,0,0,0,18,18,55,1,Turquiose,Turquiose.jpg,Yellow,Yellow.jpg,,
,,,,,,,,,,,,,,,,,,-2,,,,,,,,,,,,,,,,,,,,,,,,,,,5c0e94f62932300001e2e0d3,001,2021-12-17_24h08.55.352,jm_natural_scene_simialrity_2-12-2021_version2,2021.2.3,Win32,59.78358343,5c0e94f62932300001e2e0d3,61bbc5c79a1c66460f44041e,61bbc604840f93381668c987,,,,,,-56,-35.5,1,0,0,response5disk,1.3493,-11,-3.5,1,0,0,rectangle,-11,-3.5,1,0,0,-3,1,"[63,6,48,16,68,9,68,66,47,64]",-11,-3.5,1,0,0,0,19,19,64,1,Pink,Pink.jpg,LightGreen,LightGreen.jpg,,
,,,,,,,,,,,,,,,,,,-3,,,,,,,,,,,,,,,,,,,,,,,,,,,5c0e94f62932300001e2e0d3,001,2021-12-17_24h08.55.352,jm_natural_scene_simialrity_2-12-2021_version2,2021.2.3,Win32,59.78358343,5c0e94f62932300001e2e0d3,61bbc5c79a1c66460f44041e,61bbc604840f93381668c987,,,,,,-101,45.5,1,0,0,response7disk,1.14,-23,7.5,1,0,0,rectangle,-23,7.5,1,0,0,-3,2,"[63,6,48,16,68,9,68,66,47,64]",-23,7.5,1,0,0,0,20,20,8,1,Red,Red.jpg,Purple,Purple.jpg,,
,,,,,,,,,,,,,,,,,,-4,,,,,,,,,,,,,,,,,,,,,,,,,,,5c0e94f62932300001e2e0d3,001,2021-12-17_24h08.55.352,jm_natural_scene_simialrity_2-12-2021_version2,2021.2.3,Win32,59.78358343,5c0e94f62932300001e2e0d3,61bbc5c79a1c66460f44041e,61bbc604840f93381668c987,,,,,,-23,71.5,1,0,0,response7disk,0.9666,-17,20.5,1,0,0,rectangle,-17,20.5,1,0,0,-4,-2,"[63,6,48,16,68,9,68,66,47,64]",-17,20.5,1,0,0,0,21,21,36,1,LightBlue,LightBlue.jpg,DarkBlue,DarkBlue.jpg,,
,,,,,,,,,,,,,,,,,,2,,,,,,,,,,,,,,,,,,,,,,,,,,,5c0e94f62932300001e2e0d3,001,2021-12-17_24h08.55.352,jm_natural_scene_simialrity_2-12-2021_version2,2021.2.3,Win32,59.78358343,5c0e94f62932300001e2e0d3,61bbc5c79a1c66460f44041e,61bbc604840f93381668c987,,,,,,76,-48.5,1,0,0,response3disk,1.0663,-13,-1.5,1,0,0,rectangle,-13,-1.5,1,0,0,-4,-2,"[63,6,48,16,68,9,68,66,47,64]",-13,-1.5,1,0,0,0,22,22,60,1,DarkGreen,DarkGreen.jpg,LightGreen,LightGreen.jpg,,
,,,,,,,,,,,,,,,,,,-1,,,,,,,,,,,,,,,,,,,,,,,,,,,5c0e94f62932300001e2e0d3,001,2021-12-17_24h08.55.352,jm_natural_scene_simialrity_2-12-2021_version2,2021.2.3,Win32,59.78358343,5c0e94f62932300001e2e0d3,61bbc5c79a1c66460f44041e,61bbc604840f93381668c987,,,,,,-36,-68.5,1,0,0,response5disk,1.3833,-11,20.5,1,0,0,rectangle,-11,20.5,1,0,0,-4,-2,"[63,6,48,16,68,9,68,66,47,64]",-11,20.5,1,0,0,0,23,23,29,1,DarkGreen,DarkGreen.jpg,Purple,Purple.jpg,,
,,,,,,,,,,,,,,,,,,2,,,,,,,,,,,,,,,,,,,,,,,,,,,5c0e94f62932300001e2e0d3,001,2021-12-17_24h08.55.352,jm_natural_scene_simialrity_2-12-2021_version2,2021.2.3,Win32,59.78358343,5c0e94f62932300001e2e0d3,61bbc5c79a1c66460f44041e,61bbc604840f93381668c987,,,,,,53,-33.5,1,0,0,response3disk,1.1329,-7,-5.5,1,0,0,rectangle,-7,-5.5,1,0,0,-4,3,"[63,6,48,16,68,9,68,66,47,64]",-7,-5.5,1,0,0,0,24,24,15,1,Yellow,Yellow.jpg,Pink,Pink.jpg,,
,,,,,,,,,,,,,,,,,,-2,,,,,,,,,,,,,,,,,,,,,,,,,,,5c0e94f62932300001e2e0d3,001,2021-12-17_24h08.55.352,jm_natural_scene_simialrity_2-12-2021_version2,2021.2.3,Win32,59.78358343,5c0e94f62932300001e2e0d3,61bbc5c79a1c66460f44041e,61bbc604840f93381668c987,,,,,,-60,-55.5,1,0,0,response5disk,1.316,-16,-2.5,1,0,0,rectangle,-16,-2.5,1,0,0,-4,1,"[63,6,48,16,68,9,68,66,47,64]",-16,-2.5,1,0,0,0,25,25,74,1,Purple,Purple.jpg,Turquiose,Turquiose.jpg,,
,,,,,,,,,,,,,,,,,,4,,,,,,,,,,,,,,,,,,,,,,,,,,,5c0e94f62932300001e2e0d3,001,2021-12-17_24h08.55.352,jm_natural_scene_simialrity_2-12-2021_version2,2021.2.3,Win32,59.78358343,5c0e94f62932300001e2e0d3,61bbc5c79a1c66460f44041e,61bbc604840f93381668c987,,,,,,28,65.5,1,0,0,response1disk,0.7661,-15,0.5,1,0,0,rectangle,-15,0.5,1,0,0,-4,3,"[63,6,48,16,68,9,68,66,47,64]",-15,0.5,1,0,0,0,26,26,44,1,Purple,Purple.jpg,Purple,Purple.jpg,,
,,,,,,,,,,,,,,,,,,-2,,,,,,,,,,,,,,,,,,,,,,,,,,,5c0e94f62932300001e2e0d3,001,2021-12-17_24h08.55.352,jm_natural_scene_simialrity_2-12-2021_version2,2021.2.3,Win32,59.78358343,5c0e94f62932300001e2e0d3,61bbc5c79a1c66460f44041e,61bbc604840f93381668c987,,,,,,-53,-31.5,1,0,0,response5disk,0.984,-11,9.5,1,0,0,rectangle,-11,9.5,1,0,0,-4,2,"[63,6,48,16,68,9,68,66,47,64]",-11,9.5,1,0,0,0,27,27,37,1,LightBlue,LightBlue.jpg,Pink,Pink.jpg,,
,,,,,,,,,,,,,,,,,,-1,,,,,,,,,,,,,,,,,,,,,,,,,,,5c0e94f62932300001e2e0d3,001,2021-12-17_24h08.55.352,jm_natural_scene_simialrity_2-12-2021_version2,2021.2.3,Win32,59.78358343,5c0e94f62932300001e2e0d3,61bbc5c79a1c66460f44041e,61bbc604840f93381668c987,,,,,,-48,-65.5,1,0,0,response5disk,1.1501,-2,4.5,1,0,0,rectangle,-2,4.5,1,0,0,-4,-2,"[63,6,48,16,68,9,68,66,47,64]",-2,4.5,1,0,0,0,28,28,31,1,Turquiose,Turquiose.jpg,LightBlue,LightBlue.jpg,,
,,,,,,,,,,,,,,,,,,-3,,,,,,,,,,,,,,,,,,,,,,,,,,,5c0e94f62932300001e2e0d3,001,2021-12-17_24h08.55.352,jm_natural_scene_simialrity_2-12-2021_version2,2021.2.3,Win32,59.78358343,5c0e94f62932300001e2e0d3,61bbc5c79a1c66460f44041e,61bbc604840f93381668c987,,,,,,-67,34.5,1,0,0,response7disk,1.2338,-3,5.5,1,0,0,rectangle,-3,5.5,1,0,0,-4,-4,"[63,6,48,16,68,9,68,66,47,64]",-3,5.5,1,0,0,0,29,29,75,1,DarkBlue,DarkBlue.jpg,LightBlue,LightBlue.jpg,,
,,,,,,,,,,,,,,,,,,2,,,,,,,,,,,,,,,,,,,,,,,,,,,5c0e94f62932300001e2e0d3,001,2021-12-17_24h08.55.352,jm_natural_scene_simialrity_2-12-2021_version2,2021.2.3,Win32,59.78358343,5c0e94f62932300001e2e0d3,61bbc5c79a1c66460f44041e,61bbc604840f93381668c987,,,,,,66,-54.5,1,0,0,response3disk,2.0327,5,-5.5,1,0,0,rectangle,5,-5.5,1,0,0,-4,-4,"[63,6,48,16,68,9,68,66,47,64]",5,-5.5,1,0,0,0,30,30,58,1,Pink,Pink.jpg,Yellow,Yellow.jpg,,
,,,,,,,,,,,,,,,,,,-1,,,,,,,,,,,,,,,,,,,,,,,,,,,5c0e94f62932300001e2e0d3,001,2021-12-17_24h08.55.352,jm_natural_scene_simialrity_2-12-2021_version2,2021.2.3,Win32,59.78358343,5c0e94f62932300001e2e0d3,61bbc5c79a1c66460f44041e,61bbc604840f93381668c987,,,,,,-43,-83.5,1,0,0,response5disk,0.9835,-4,2.5,1,0,0,rectangle,-4,2.5,1,0,0,-4,3,"[63,6,48,16,68,9,68,66,47,64]",-4,2.5,1,0,0,0,31,31,57,1,DarkBlue,DarkBlue.jpg,Yellow,Yellow.jpg,,
,,,,,,,,,,,,,,,,,,-3,,,,,,,,,,,,,,,,,,,,,,,,,,,5c0e94f62932300001e2e0d3,001,2021-12-17_24h08.55.352,jm_natural_scene_simialrity_2-12-2021_version2,2021.2.3,Win32,59.78358343,5c0e94f62932300001e2e0d3,61bbc5c79a1c66460f44041e,61bbc604840f93381668c987,,,,,,-59,36.5,1,0,0,response7disk,0.7335,3,18.5,1,0,0,rectangle,3,18.5,1,0,0,-4,3,"[63,6,48,16,68,9,68,66,47,64]",3,18.5,1,0,0,0,32,32,34,1,Turquiose,Turquiose.jpg,Purple,Purple.jpg,,
,,,,,,,,,,,,,,,,,,-4,,,,,,,,,,,,,,,,,,,,,,,,,,,5c0e94f62932300001e2e0d3,001,2021-12-17_24h08.55.352,jm_natural_scene_simialrity_2-12-2021_version2,2021.2.3,Win32,59.78358343,5c0e94f62932300001e2e0d3,61bbc5c79a1c66460f44041e,61bbc604840f93381668c987,,,,,,-48,73.5,1,0,0,response7disk,0.8,-21,-5.5,1,0,0,rectangle,-21,-5.5,1,0,0,-4,-1,"[63,6,48,16,68,9,68,66,47,64]",-21,-5.5,1,0,0,0,33,33,63,1,DarkBlue,DarkBlue.jpg,LightGreen,LightGreen.jpg,,
,,,,,,,,,,,,,,,,,,-2,,,,,,,,,,,,,,,,,,,,,,,,,,,5c0e94f62932300001e2e0d3,001,2021-12-17_24h08.55.352,jm_natural_scene_simialrity_2-12-2021_version2,2021.2.3,Win32,59.78358343,5c0e94f62932300001e2e0d3,61bbc5c79a1c66460f44041e,61bbc604840f93381668c987,,,,,,-63,-38.5,1,0,0,response5disk,0.9178,-9,4.5,1,0,0,rectangle,-9,4.5,1,0,0,-4,-3,"[63,6,48,16,68,9,68,66,47,64]",-9,4.5,1,0,0,0,34,34,73,1,Pink,Pink.jpg,Turquiose,Turquiose.jpg,,
,,,,,,,,,,,,,,,,,,-1,,,,,,,,,,,,,,,,,,,,,,,,,,,5c0e94f62932300001e2e0d3,001,2021-12-17_24h08.55.352,jm_natural_scene_simialrity_2-12-2021_version2,2021.2.3,Win32,59.78358343,5c0e94f62932300001e2e0d3,61bbc5c79a1c66460f44041e,61bbc604840f93381668c987,,,,,,-43,-74.5,1,0,0,response5disk,1.0843,3,-6.5,1,0,0,rectangle,3,-6.5,1,0,0,-4,-2,"[63,6,48,16,68,9,68,66,47,64]",3,-6.5,1,0,0,0,35,35,70,1,Purple,Purple.jpg,DarkGreen,DarkGreen.jpg,,
,,,,,,,,,,,,,,,,,,-3,,,,,,,,,,,,,,,,,,,,,,,,,,,5c0e94f62932300001e2e0d3,001,2021-12-17_24h08.55.352,jm_natural_scene_simialrity_2-12-2021_version2,2021.2.3,Win32,59.78358343,5c0e94f62932300001e2e0d3,61bbc5c79a1c66460f44041e,61bbc604840f93381668c987,,,,,,-52,38.5,1,0,0,response7disk,0.8669,-2,9.5,1,0,0,rectangle,-2,9.5,1,0,0,-4,-3,"[63,6,48,16,68,9,68,66,47,64]",-2,9.5,1,0,0,0,36,36,21,1,LightGreen,LightGreen.jpg,DarkBlue,DarkBlue.jpg,,
,,,,,,,,,,,,,,,,,,2,,,,,,,,,,,,,,,,,,,,,,,,,,,5c0e94f62932300001e2e0d3,001,2021-12-17_24h08.55.352,jm_natural_scene_simialrity_2-12-2021_version2,2021.2.3,Win32,59.78358343,5c0e94f62932300001e2e0d3,61bbc5c79a1c66460f44041e,61bbc604840f93381668c987,,,,,,47,-40.5,1,0,0,response3disk,1.4343,-9,-0.5,1,0,0,rectangle,-9,-0.5,1,0,0,-4,-4,"[63,6,48,16,68,9,68,66,47,64]",-9,-0.5,1,0,0,0,37,37,51,1,Pink,Pink.jpg,Red,Red.jpg,,
,,,,,,,,,,,,,,,,,,-3,,,,,,,,,,,,,,,,,,,,,,,,,,,5c0e94f62932300001e2e0d3,001,2021-12-17_24h08.55.352,jm_natural_scene_simialrity_2-12-2021_version2,2021.2.3,Win32,59.78358343,5c0e94f62932300001e2e0d3,61bbc5c79a1c66460f44041e,61bbc604840f93381668c987,,,,,,-81,25.5,1,0,0,response7disk,1.3337,-18,-9.5,1,0,0,rectangle,-18,-9.5,1,0,0,-4,-1,"[63,6,48,16,68,9,68,66,47,64]",-18,-9.5,1,0,0,0,38,38,2,1,Red,Red.jpg,LightGreen,LightGreen.jpg,,
,,,,,,,,,,,,,,,,,,4,,,,,,,,,,,,,,,,,,,,,,,,,,,5c0e94f62932300001e2e0d3,001,2021-12-17_24h08.55.352,jm_natural_scene_simialrity_2-12-2021_version2,2021.2.3,Win32,59.78358343,5c0e94f62932300001e2e0d3,61bbc5c79a1c66460f44041e,61bbc604840f93381668c987,,,,,,39,73.5,1,0,0,response1disk,0.7677,-5,9.5,1,0,0,rectangle,-5,9.5,1,0,0,-4,-1,"[63,6,48,16,68,9,68,66,47,64]",-5,9.5,1,0,0,0,39,39,35,1,LightBlue,LightBlue.jpg,LightBlue,LightBlue.jpg,,
,,,,,,,,,,,,,,,,,,-3,,,,,,,,,,,,,,,,,,,,,,,,,,,5c0e94f62932300001e2e0d3,001,2021-12-17_24h08.55.352,jm_natural_scene_simialrity_2-12-2021_version2,2021.2.3,Win32,59.78358343,5c0e94f62932300001e2e0d3,61bbc5c79a1c66460f44041e,61bbc604840f93381668c987,,,,,,-71,34.5,1,0,0,response7disk,0.9324,-9,-0.5,1,0,0,rectangle,-9,-0.5,1,0,0,-4,1,"[63,6,48,16,68,9,68,66,47,64]",-9,-0.5,1,0,0,0,40,40,10,1,Yellow,Yellow.jpg,LightGreen,LightGreen.jpg,,
,,,,,,,,,,,,,,,,,,-4,,,,,,,,,,,,,,,,,,,,,,,,,,,5c0e94f62932300001e2e0d3,001,2021-12-17_24h08.55.352,jm_natural_scene_simialrity_2-12-2021_version2,2021.2.3,Win32,59.78358343,5c0e94f62932300001e2e0d3,61bbc5c79a1c66460f44041e,61bbc604840f93381668c987,,,,,,-46,52.5,1,0,0,response7disk,1.2703,-17,0.5,1,0,0,rectangle,-17,0.5,1,0,0,-4,-1,"[63,6,48,16,68,9,68,66,47,64]",-17,0.5,1,0,0,0,41,41,40,1,DarkBlue,DarkBlue.jpg,Pink,Pink.jpg,,
,,,,,,,,,,,,,,,,,,-2,,,,,,,,,,,,,,,,,,,,,,,,,,,5c0e94f62932300001e2e0d3,001,2021-12-17_24h08.55.352,jm_natural_scene_simialrity_2-12-2021_version2,2021.2.3,Win32,59.78358343,5c0e94f62932300001e2e0d3,61bbc5c79a1c66460f44041e,61bbc604840f93381668c987,,,,,,-54,-35.5,1,0,0,response5disk,0.8665,-9,-10.5,1,0,0,rectangle,-9,-10.5,1,0,0,-4,1,"[63,6,48,16,68,9,68,66,47,64]",-9,-10.5,1,0,0,0,42,42,4,1,Red,Red.jpg,Turquiose,Turquiose.jpg,,
,,,,,,,,,,,,,,,,,,-3,,,,,,,,,,,,,,,,,,,,,,,,,,,5c0e94f62932300001e2e0d3,001,2021-12-17_24h08.55.352,jm_natural_scene_simialrity_2-12-2021_version2,2021.2.3,Win32,59.78358343,5c0e94f62932300001e2e0d3,61bbc5c79a1c66460f44041e,61bbc604840f93381668c987,,,,,,-71,45.5,1,0,0,response7disk,1.3504,-3,13.5,1,0,0,rectangle,-3,13.5,1,0,0,-4,-3,"[63,6,48,16,68,9,68,66,47,64]",-3,13.5,1,0,0,0,43,43,11,1,Yellow,Yellow.jpg,DarkGreen,DarkGreen.jpg,,
,,,,,,,,,,,,,,,,,,2,,,,,,,,,,,,,,,,,,,,,,,,,,,5c0e94f62932300001e2e0d3,001,2021-12-17_24h08.55.352,jm_natural_scene_simialrity_2-12-2021_version2,2021.2.3,Win32,59.78358343,5c0e94f62932300001e2e0d3,61bbc5c79a1c66460f44041e,61bbc604840f93381668c987,,,,,,53,-30.5,1,0,0,response3disk,0.917,-12,0.5,1,0,0,rectangle,-12,0.5,1,0,0,-4,-2,"[63,6,48,16,68,9,68,66,47,64]",-12,0.5,1,0,0,0,44,44,1,1,Red,Red.jpg,Yellow,Yellow.jpg,,
,,,,,,,,,,,,,,,,,,-3,,,,,,,,,,,,,,,,,,,,,,,,,,,5c0e94f62932300001e2e0d3,001,2021-12-17_24h08.55.352,jm_natural_scene_simialrity_2-12-2021_version2,2021.2.3,Win32,59.78358343,5c0e94f62932300001e2e0d3,61bbc5c79a1c66460f44041e,61bbc604840f93381668c987,,,,,,-59,29.5,1,0,0,response7disk,0.7847,-11,4.5,1,0,0,rectangle,-11,4.5,1,0,0,-4,-1,"[63,6,48,16,68,9,68,66,47,64]",-11,4.5,1,0,0,0,45,45,19,1,LightGreen,LightGreen.jpg,Turquiose,Turquiose.jpg,,
,,,,,,,,,,,,,,,,,,-4,,,,,,,,,,,,,,,,,,,,,,,,,,,5c0e94f62932300001e2e0d3,001,2021-12-17_24h08.55.352,jm_natural_scene_simialrity_2-12-2021_version2,2021.2.3,Win32,59.78358343,5c0e94f62932300001e2e0d3,61bbc5c79a1c66460f44041e,61bbc604840f93381668c987,,,,,,-56,67.5,1,0,0,response7disk,1.2156,-5,-11.5,1,0,0,rectangle,-39,80.5,1,0,0,-4,-4,"[63,6,48,16,68,9,68,66,47,64]",-13,-13.5,1,0,0,0,46,46,56,1,LightBlue,LightBlue.jpg,Yellow,Yellow.jpg,response7disk_3,rectangle
,,,,,,,,,,,,,,,,,,-2,,,,,,,,,,,,,,,,,,,,,,,,,,,5c0e94f62932300001e2e0d3,001,2021-12-17_24h08.55.352,jm_natural_scene_simialrity_2-12-2021_version2,2021.2.3,Win32,59.78358343,5c0e94f62932300001e2e0d3,61bbc5c79a1c66460f44041e,61bbc604840f93381668c987,,,,,,-60,-24.5,1,0,0,response5disk,1.5163,-8,7.5,1,0,0,rectangle,-28,-95.5,1,0,0,-1,-1,"[63,6,48,16,68,9,68,66,47,64]",1,-8.5,1,0,0,0,47,47,80,1,Purple,Purple.jpg,Pink,Pink.jpg,response5disk_3,rectangle
,,,,,,,,,,,,,,,,,,4,,,,,,,,,,,,,,,,,,,,,,,,,,,5c0e94f62932300001e2e0d3,001,2021-12-17_24h08.55.352,jm_natural_scene_simialrity_2-12-2021_version2,2021.2.3,Win32,59.78358343,5c0e94f62932300001e2e0d3,61bbc5c79a1c66460f44041e,61bbc604840f93381668c987,,,,,,20,109.5,1,0,0,response1disk,0.7509,-8,9.5,1,0,0,rectangle,-8,9.5,1,0,0,-1,1,"[63,6,48,16,68,9,68,66,47,64]",-8,9.5,1,0,0,0,48,48,42,1,Pink,Pink.jpg,Pink,Pink.jpg,,
,,,,,,,,,,,,,,,,,,-3,,,,,,,,,,,,,,,,,,,,,,,,,,,5c0e94f62932300001e2e0d3,001,2021-12-17_24h08.55.352,jm_natural_scene_simialrity_2-12-2021_version2,2021.2.3,Win32,59.78358343,5c0e94f62932300001e2e0d3,61bbc5c79a1c66460f44041e,61bbc604840f93381668c987,,,,,,-78,36.5,1,0,0,response7disk,2.3169,-6,4.5,1,0,0,rectangle,-6,4.5,1,0,0,-1,1,"[63,6,48,16,68,9,68,66,47,64]",-6,4.5,1,0,0,0,49,49,12,1,Yellow,Yellow.jpg,Turquiose,Turquiose.jpg,,
,,,,,,,,,,,,,,,,,,-4,,,,,,,,,,,,,,,,,,,,,,,,,,,5c0e94f62932300001e2e0d3,001,2021-12-17_24h08.55.352,jm_natural_scene_simialrity_2-12-2021_version2,2021.2.3,Win32,59.78358343,5c0e94f62932300001e2e0d3,61bbc5c79a1c66460f44041e,61bbc604840f93381668c987,,,,,,-32,81.5,1,0,0,response7disk,0.8718,-18,-3.5,1,0,0,rectangle,-18,-3.5,1,0,0,-1,2,"[63,6,48,16,68,9,68,66,47,64]",-18,-3.5,1,0,0,0,50,50,66,1,Turquiose,Turquiose.jpg,DarkGreen,DarkGreen.jpg,,
,,,,,,,,,,,,,,,,,,-1,,,,,,,,,,,,,,,,,,,,,,,,,,,5c0e94f62932300001e2e0d3,001,2021-12-17_24h08.55.352,jm_natural_scene_simialrity_2-12-2021_version2,2021.2.3,Win32,59.78358343,5c0e94f62932300001e2e0d3,61bbc5c79a1c66460f44041e,61bbc604840f93381668c987,,,,,,-33,-73.5,1,0,0,response5disk,1.1831,0,-12.5,1,0,0,rectangle,0,-12.5,1,0,0,-1,3,"[63,6,48,16,68,9,68,66,47,64]",0,-12.5,1,0,0,0,51,51,23,1,LightGreen,LightGreen.jpg,Purple,Purple.jpg,,
,,,,,,,,,,,,,,,,,,-4,,,,,,,,,,,,,,,,,,,,,,,,,,,5c0e94f62932300001e2e0d3,001,2021-12-17_24h08.55.352,jm_natural_scene_simialrity_2-12-2021_version2,2021.2.3,Win32,59.78358343,5c0e94f62932300001e2e0d3,61bbc5c79a1c66460f44041e,61bbc604840f93381668c987,,,,,,-39,83.5,1,0,0,response7disk,0.984,-22,0.5,1,0,0,rectangle,-22,0.5,1,0,0,-1,-4,"[63,6,48,16,68,9,68,66,47,64]",-22,0.5,1,0,0,0,52,52,27,1,DarkGreen,DarkGreen.jpg,DarkBlue,DarkBlue.jpg,,
,,,,,,,,,,,,,,,,,,-2,,,,,,,,,,,,,,,,,,,,,,,,,,,5c0e94f62932300001e2e0d3,001,2021-12-17_24h08.55.352,jm_natural_scene_simialrity_2-12-2021_version2,2021.2.3,Win32,59.78358343,5c0e94f62932300001e2e0d3,61bbc5c79a1c66460f44041e,61bbc604840f93381668c987,,,,,,-45,-32.5,1,0,0,response5disk,1.1494,-7,-6.5,1,0,0,rectangle,-7,-6.5,1,0,0,-1,1,"[63,6,48,16,68,9,68,66,47,64]",-7,-6.5,1,0,0,0,53,53,22,1,LightGreen,LightGreen.jpg,Pink,Pink.jpg,,
,,,,,,,,,,,,,,,,,,2,,,,,,,,,,,,,,,,,,,,,,,,,,,5c0e94f62932300001e2e0d3,001,2021-12-17_24h08.55.352,jm_natural_scene_simialrity_2-12-2021_version2,2021.2.3,Win32,59.78358343,5c0e94f62932300001e2e0d3,61bbc5c79a1c66460f44041e,61bbc604840f93381668c987,,,,,,49,-30.5,1,0,0,response3disk,1.2322,-2,-2.5,1,0,0,rectangle,-2,-2.5,1,0,0,-1,2,"[63,6,48,16,68,9,68,66,47,64]",-2,-2.5,1,0,0,0,54,54,18,1,LightGreen,LightGreen.jpg,DarkGreen,DarkGreen.jpg,,
,,,,,,,,,,,,,,,,,,-3,,,,,,,,,,,,,,,,,,,,,,,,,,,5c0e94f62932300001e2e0d3,001,2021-12-17_24h08.55.352,jm_natural_scene_simialrity_2-12-2021_version2,2021.2.3,Win32,59.78358343,5c0e94f62932300001e2e0d3,61bbc5c79a1c66460f44041e,61bbc604840f93381668c987,,,,,,-58,38.5,1,0,0,response7disk,0.7998,3,9.5,1,0,0,rectangle,3,9.5,1,0,0,-1,-4,"[63,6,48,16,68,9,68,66,47,64]",3,9.5,1,0,0,0,55,55,3,1,Red,Red.jpg,DarkGreen,DarkGreen.jpg,,
,,,,,,,,,,,,,,,,,,-4,,,,,,,,,,,,,,,,,,,,,,,,,,,5c0e94f62932300001e2e0d3,001,2021-12-17_24h08.55.352,jm_natural_scene_simialrity_2-12-2021_version2,2021.2.3,Win32,59.78358343,5c0e94f62932300001e2e0d3,61bbc5c79a1c66460f44041e,61bbc604840f93381668c987,,,,,,-27,62.5,1,0,0,response7disk,0.8007,-15,3.5,1,0,0,rectangle,-15,3.5,1,0,0,-1,2,"[63,6,48,16,68,9,68,66,47,64]",-15,3.5,1,0,0,0,56,56,25,1,DarkGreen,DarkGreen.jpg,Turquiose,Turquiose.jpg,,
,,,,,,,,,,,,,,,,,,4,,,,,,,,,,,,,,,,,,,,,,,,,,,5c0e94f62932300001e2e0d3,001,2021-12-17_24h08.55.352,jm_natural_scene_simialrity_2-12-2021_version2,2021.2.3,Win32,59.78358343,5c0e94f62932300001e2e0d3,61bbc5c79a1c66460f44041e,61bbc604840f93381668c987,,,,,,37,62.5,1,0,0,response1disk,0.8674,-10,12.5,1,0,0,rectangle,-10,12.5,1,0,0,-1,-4,"[63,6,48,16,68,9,68,66,47,64]",-10,12.5,1,0,0,0,57,57,39,1,DarkBlue,DarkBlue.jpg,DarkBlue,DarkBlue.jpg,,
,,,,,,,,,,,,,,,,,,2,,,,,,,,,,,,,,,,,,,,,,,,,,,5c0e94f62932300001e2e0d3,001,2021-12-17_24h08.55.352,jm_natural_scene_simialrity_2-12-2021_version2,2021.2.3,Win32,59.78358343,5c0e94f62932300001e2e0d3,61bbc5c79a1c66460f44041e,61bbc604840f93381668c987,,,,,,43,-39.5,1,0,0,response3disk,1.1502,3,-0.5,1,0,0,rectangle,3,-0.5,1,0,0,-1,3,"[63,6,48,16,68,9,68,66,47,64]",3,-0.5,1,0,0,0,58,58,7,1,Red,Red.jpg,Pink,Pink.jpg,,
,,,,,,,,,,,,,,,,,,-2,,,,,,,,,,,,,,,,,,,,,,,,,,,5c0e94f62932300001e2e0d3,001,2021-12-17_24h08.55.352,jm_natural_scene_simialrity_2-12-2021_version2,2021.2.3,Win32,59.78358343,5c0e94f62932300001e2e0d3,61bbc5c79a1c66460f44041e,61bbc604840f93381668c987,,,,,,-61,-35.5,1,0,0,response5disk,1.5006,-9,-2.5,1,0,0,rectangle,-9,-2.5,1,0,0,-1,-3,"[63,6,48,16,68,9,68,66,47,64]",-9,-2.5,1,0,0,0,59,59,49,1,LightBlue,LightBlue.jpg,Red,Red.jpg,,
,,,,,,,,,,,,,,,,,,-3,,,,,,,,,,,,,,,,,,,,,,,,,,,5c0e94f62932300001e2e0d3,001,2021-12-17_24h08.55.352,jm_natural_scene_simialrity_2-12-2021_version2,2021.2.3,Win32,59.78358343,5c0e94f62932300001e2e0d3,61bbc5c79a1c66460f44041e,61bbc604840f93381668c987,,,,,,-73,54.5,1,0,0,response7disk,0.767,-10,-1.5,1,0,0,rectangle,-10,-1.5,1,0,0,-1,2,"[63,6,48,16,68,9,68,66,47,64]",-10,-1.5,1,0,0,0,60,60,6,1,Red,Red.jpg,DarkBlue,DarkBlue.jpg,,
,,,,,,,,,,,,,,,,,,-4,,,,,,,,,,,,,,,,,,,,,,,,,,,5c0e94f62932300001e2e0d3,001,2021-12-17_24h08.55.352,jm_natural_scene_simialrity_2-12-2021_version2,2021.2.3,Win32,59.78358343,5c0e94f62932300001e2e0d3,61bbc5c79a1c66460f44041e,61bbc604840f93381668c987,,,,,,-42,53.5,1,0,0,response7disk,0.6994,-4,-10.5,1,0,0,rectangle,-4,-10.5,1,0,0,-1,2,"[63,6,48,16,68,9,68,66,47,64]",-4,-10.5,1,0,0,0,61,61,53,1,LightGreen,LightGreen.jpg,Yellow,Yellow.jpg,,
,,,,,,,,,,,,,,,,,,-3,,,,,,,,,,,,,,,,,,,,,,,,,,,5c0e94f62932300001e2e0d3,001,2021-12-17_24h08.55.352,jm_natural_scene_simialrity_2-12-2021_version2,2021.2.3,Win32,59.78358343,5c0e94f62932300001e2e0d3,61bbc5c79a1c66460f44041e,61bbc604840f93381668c987,,,,,,-81,33.5,1,0,0,response7disk,1.6329,-20,-2.5,1,0,0,rectangle,89,-40.5,1,0,0,2,2,"[63,6,48,16,68,9,68,66,47,64]",0,-4.5,1,0,0,0,62,62,62,1,LightBlue,LightBlue.jpg,LightGreen,LightGreen.jpg,response3disk_3,rectangle
,,,,,,,,,,,,,,,,,,-3,,,,,,,,,,,,,,,,,,,,,,,,,,,5c0e94f62932300001e2e0d3,001,2021-12-17_24h08.55.352,jm_natural_scene_simialrity_2-12-2021_version2,2021.2.3,Win32,59.78358343,5c0e94f62932300001e2e0d3,61bbc5c79a1c66460f44041e,61bbc604840f93381668c987,,,,,,-60,31.5,1,0,0,response7disk,1.0507,4,-1.5,1,0,0,rectangle,47,-90.5,1,0,0,1,1,"[63,6,48,16,68,9,68,66,47,64]",3,3.5,1,0,0,0,63,63,72,1,DarkBlue,DarkBlue.jpg,Turquiose,Turquiose.jpg,response3disk_3,rectangle
,,,,,,,,,,,,,,,,,,-2,,,,,,,,,,,,,,,,,,,,,,,,,,,5c0e94f62932300001e2e0d3,001,2021-12-17_24h08.55.352,jm_natural_scene_simialrity_2-12-2021_version2,2021.2.3,Win32,59.78358343,5c0e94f62932300001e2e0d3,61bbc5c79a1c66460f44041e,61bbc604840f93381668c987,,,,,,-65,-36.5,1,0,0,response5disk,3.917,-4,-1.5,1,0,0,rectangle,-4,-1.5,1,0,0,1,-2,"[63,6,48,16,68,9,68,66,47,64]",-4,-1.5,1,0,0,0,64,64,67,1,LightBlue,LightBlue.jpg,DarkGreen,DarkGreen.jpg,,
,,,,,,,,,,,,,,,,,,4,,,,,,,,,,,,,,,,,,,,,,,,,,,5c0e94f62932300001e2e0d3,001,2021-12-17_24h08.55.352,jm_natural_scene_simialrity_2-12-2021_version2,2021.2.3,Win32,59.78358343,5c0e94f62932300001e2e0d3,61bbc5c79a1c66460f44041e,61bbc604840f93381668c987,,,,,,30,85.5,1,0,0,response1disk,0.7434,-12,6.5,1,0,0,rectangle,98,32.5,1,0,0,3,3,"[63,6,48,16,68,9,68,66,47,64]",1,-6.5,1,0,0,0,65,65,9,1,Yellow,Yellow.jpg,Yellow,Yellow.jpg,response1disk_3,rectangle
,,,,,,,,,,,,,,,,,,-2,,,,,,,,,,,,,,,,,,,,,,,,,,,5c0e94f62932300001e2e0d3,001,2021-12-17_24h08.55.352,jm_natural_scene_simialrity_2-12-2021_version2,2021.2.3,Win32,59.78358343,5c0e94f62932300001e2e0d3,61bbc5c79a1c66460f44041e,61bbc604840f93381668c987,,,,,,-53,-29.5,1,0,0,response5disk,1.0666,-2,-12.5,1,0,0,rectangle,-2,-12.5,1,0,0,3,1,"[63,6,48,16,68,9,68,66,47,64]",-2,-12.5,1,0,0,0,66,66,68,1,DarkBlue,DarkBlue.jpg,DarkGreen,DarkGreen.jpg,,
,,,,,,,,,,,,,,,,,,1,,,,,,,,,,,,,,,,,,,,,,,,,,,5c0e94f62932300001e2e0d3,001,2021-12-17_24h08.55.352,jm_natural_scene_simialrity_2-12-2021_version2,2021.2.3,Win32,59.78358343,5c0e94f62932300001e2e0d3,61bbc5c79a1c66460f44041e,61bbc604840f93381668c987,,,,,,27,-56.5,1,0,0,response3disk,0.9175,10,-7.5,1,0,0,rectangle,92,-45.5,1,0,0,2,2,"[63,6,48,16,68,9,68,66,47,64]",-3,-5.5,1,0,0,0,67,67,65,1,Purple,Purple.jpg,LightGreen,LightGreen.jpg,response3disk_3,rectangle
,,,,,,,,,,,,,,,,,,-3,,,,,,,,,,,,,,,,,,,,,,,,,,,5c0e94f62932300001e2e0d3,001,2021-12-17_24h08.55.352,jm_natural_scene_simialrity_2-12-2021_version2,2021.2.3,Win32,59.78358343,5c0e94f62932300001e2e0d3,61bbc5c79a1c66460f44041e,61bbc604840f93381668c987,,,,,,-54,29.5,1,0,0,response7disk,0.8997,7,-3.5,1,0,0,rectangle,7,-3.5,1,0,0,2,2,"[63,6,48,16,68,9,68,66,47,64]",7,-3.5,1,0,0,0,68,68,79,1,Purple,Purple.jpg,DarkBlue,DarkBlue.jpg,,
,,,,,,,,,,,,,,,,,,-4,,,,,,,,,,,,,,,,,,,,,,,,,,,5c0e94f62932300001e2e0d3,001,2021-12-17_24h08.55.352,jm_natural_scene_simialrity_2-12-2021_version2,2021.2.3,Win32,59.78358343,5c0e94f62932300001e2e0d3,61bbc5c79a1c66460f44041e,61bbc604840f93381668c987,,,,,,-48,63.5,1,0,0,response7disk,1.4678,-12,8.5,1,0,0,rectangle,-12,8.5,1,0,0,2,-2,"[63,6,48,16,68,9,68,66,47,64]",-12,8.5,1,0,0,0,69,69,46,1,LightGreen,LightGreen.jpg,Red,Red.jpg,,
,,,,,,,,,,,,,,,,,,4,,,,,,,,,,,,,,,,,,,,,,,,,,,5c0e94f62932300001e2e0d3,001,2021-12-17_24h08.55.352,jm_natural_scene_simialrity_2-12-2021_version2,2021.2.3,Win32,59.78358343,5c0e94f62932300001e2e0d3,61bbc5c79a1c66460f44041e,61bbc604840f93381668c987,,,,,,18,70.5,1,0,0,response1disk,0.7882,-16,3.5,1,0,0,rectangle,-16,3.5,1,0,0,2,3,"[63,6,48,16,68,9,68,66,47,64]",-16,3.5,1,0,0,0,70,70,30,1,Turquiose,Turquiose.jpg,Turquiose,Turquiose.jpg,,
,,,,,,,,,,,,,,,,,,-2,,,,,,,,,,,,,,,,,,,,,,,,,,,5c0e94f62932300001e2e0d3,001,2021-12-17_24h08.55.352,jm_natural_scene_simialrity_2-12-2021_version2,2021.2.3,Win32,59.78358343,5c0e94f62932300001e2e0d3,61bbc5c79a1c66460f44041e,61bbc604840f93381668c987,,,,,,-57,-26.5,1,0,0,response5disk,1.0666,-3,3.5,1,0,0,rectangle,-3,3.5,1,0,0,2,-4,"[63,6,48,16,68,9,68,66,47,64]",-3,3.5,1,0,0,0,71,71,20,1,LightGreen,LightGreen.jpg,LightBlue,LightBlue.jpg,,
,,,,,,,,,,,,,,,,,,-3,,,,,,,,,,,,,,,,,,,,,,,,,,,5c0e94f62932300001e2e0d3,001,2021-12-17_24h08.55.352,jm_natural_scene_simialrity_2-12-2021_version2,2021.2.3,Win32,59.78358343,5c0e94f62932300001e2e0d3,61bbc5c79a1c66460f44041e,61bbc604840f93381668c987,,,,,,-78,37.5,1,0,0,response7disk,0.866,-7,9.5,1,0,0,rectangle,-7,9.5,1,0,0,2,2,"[63,6,48,16,68,9,68,66,47,64]",-7,9.5,1,0,0,0,72,72,50,1,DarkBlue,DarkBlue.jpg,Red,Red.jpg,,
,,,,,,,,,,,,,,,,,,2,,,,,,,,,,,,,,,,,,,,,,,,,,,5c0e94f62932300001e2e0d3,001,2021-12-17_24h08.55.352,jm_natural_scene_simialrity_2-12-2021_version2,2021.2.3,Win32,59.78358343,5c0e94f62932300001e2e0d3,61bbc5c79a1c66460f44041e,61bbc604840f93381668c987,,,,,,52,-19.5,1,0,0,response3disk,0.7684,0,-4.5,1,0,0,rectangle,0,-4.5,1,0,0,2,1,"[63,6,48,16,68,9,68,66,47,64]",0,-4.5,1,0,0,0,73,73,45,1,Yellow,Yellow.jpg,Red,Red.jpg,,
,,,,,,,,,,,,,,,,,,-3,,,,,,,,,,,,,,,,,,,,,,,,,,,5c0e94f62932300001e2e0d3,001,2021-12-17_24h08.55.352,jm_natural_scene_simialrity_2-12-2021_version2,2021.2.3,Win32,59.78358343,5c0e94f62932300001e2e0d3,61bbc5c79a1c66460f44041e,61bbc604840f93381668c987,,,,,,-73,30.5,1,0,0,response7disk,0.8346,-8,-4.5,1,0,0,rectangle,-8,-4.5,1,0,0,2,-1,"[63,6,48,16,68,9,68,66,47,64]",-8,-4.5,1,0,0,0,74,74,48,1,Turquiose,Turquiose.jpg,Red,Red.jpg,,
,,,,,,,,,,,,,,,,,,-4,,,,,,,,,,,,,,,,,,,,,,,,,,,5c0e94f62932300001e2e0d3,001,2021-12-17_24h08.55.352,jm_natural_scene_simialrity_2-12-2021_version2,2021.2.3,Win32,59.78358343,5c0e94f62932300001e2e0d3,61bbc5c79a1c66460f44041e,61bbc604840f93381668c987,,,,,,-33,52.5,1,0,0,response7disk,0.7837,-16,0.5,1,0,0,rectangle,-16,0.5,1,0,0,2,2,"[63,6,48,16,68,9,68,66,47,64]",-16,0.5,1,0,0,0,75,75,78,1,Pink,Pink.jpg,DarkBlue,DarkBlue.jpg,,
,,,,,,,,,,,,,,,,,,-3,,,,,,,,,,,,,,,,,,,,,,,,,,,5c0e94f62932300001e2e0d3,001,2021-12-17_24h08.55.352,jm_natural_scene_simialrity_2-12-2021_version2,2021.2.3,Win32,59.78358343,5c0e94f62932300001e2e0d3,61bbc5c79a1c66460f44041e,61bbc604840f93381668c987,,,,,,-77,23.5,1,0,0,response7disk,0.7155,-21,-7.5,1,0,0,rectangle,-21,-7.5,1,0,0,2,-3,"[63,6,48,16,68,9,68,66,47,64]",-21,-7.5,1,0,0,0,76,76,13,1,Yellow,Yellow.jpg,LightBlue,LightBlue.jpg,,
,,,,,,,,,,,,,,,,,,-2,,,,,,,,,,,,,,,,,,,,,,,,,,,5c0e94f62932300001e2e0d3,001,2021-12-17_24h08.55.352,jm_natural_scene_simialrity_2-12-2021_version2,2021.2.3,Win32,59.78358343,5c0e94f62932300001e2e0d3,61bbc5c79a1c66460f44041e,61bbc604840f93381668c987,,,,,,-55,-31.5,1,0,0,response5disk,1.333,1,-22.5,1,0,0,rectangle,1,-22.5,1,0,0,2,-2,"[63,6,48,16,68,9,68,66,47,64]",1,-22.5,1,0,0,0,77,77,47,1,DarkGreen,DarkGreen.jpg,Red,Red.jpg,,
,,,,,,,,,,,,,,,,,,-3,,,,,,,,,,,,,,,,,,,,,,,,,,,5c0e94f62932300001e2e0d3,001,2021-12-17_24h08.55.352,jm_natural_scene_simialrity_2-12-2021_version2,2021.2.3,Win32,59.78358343,5c0e94f62932300001e2e0d3,61bbc5c79a1c66460f44041e,61bbc604840f93381668c987,,,,,,-80,35.5,1,0,0,response7disk,0.583,-9,-3.5,1,0,0,rectangle,-9,-3.5,1,0,0,2,3,"[63,6,48,16,68,9,68,66,47,64]",-9,-3.5,1,0,0,0,78,78,41,1,DarkBlue,DarkBlue.jpg,Purple,Purple.jpg,,
,,,,,,,,,,,,,,,,,,4,,,,,,,,,,,,,,,,,,,,,,,,,,,5c0e94f62932300001e2e0d3,001,2021-12-17_24h08.55.352,jm_natural_scene_simialrity_2-12-2021_version2,2021.2.3,Win32,59.78358343,5c0e94f62932300001e2e0d3,61bbc5c79a1c66460f44041e,61bbc604840f93381668c987,,,,,,28,60.5,1,0,0,response1disk,0.8177,-20,7.5,1,0,0,rectangle,-20,7.5,1,0,0,2,2,"[63,6,48,16,68,9,68,66,47,64]",-20,7.5,1,0,0,0,79,79,17,1,LightGreen,LightGreen.jpg,LightGreen,LightGreen.jpg,,
,,,,,,,,,,,,,,,,,,-3,,,,,,,,,,,,,,,,,,,,,,,,,,,5c0e94f62932300001e2e0d3,001,2021-12-17_24h08.55.352,jm_natural_scene_simialrity_2-12-2021_version2,2021.2.3,Win32,59.78358343,5c0e94f62932300001e2e0d3,61bbc5c79a1c66460f44041e,61bbc604840f93381668c987,,,,,,-65,20.5,1,0,0,response7disk,0.8668,-8,-10.5,1,0,0,rectangle,-8,-10.5,1,0,0,2,-3,"[63,6,48,16,68,9,68,66,47,64]",-8,-10.5,1,0,0,0,80,80,14,1,Yellow,Yellow.jpg,DarkBlue,DarkBlue.jpg,,
,,,,,,,,,,,,,,,,,,4,,,,,,,,,,,,,,,,,,,,,,,,,,,5c0e94f62932300001e2e0d3,001,2021-12-17_24h08.55.352,jm_natural_scene_simialrity_2-12-2021_version2,2021.2.3,Win32,59.78358343,5c0e94f62932300001e2e0d3,61bbc5c79a1c66460f44041e,61bbc604840f93381668c987,,,,,,48,65.5,1,0,0,response1disk,0.6994,2,9.5,1,0,0,rectangle,2,9.5,1,0,0,2,-4,"[63,6,48,16,68,9,68,66,47,64]",2,9.5,1,0,0,1,0,81,44,1,Purple,Purple.jpg,Purple,Purple.jpg,,
,,,,,,,,,,,,,,,,,,-3,,,,,,,,,,,,,,,,,,,,,,,,,,,5c0e94f62932300001e2e0d3,001,2021-12-17_24h08.55.352,jm_natural_scene_simialrity_2-12-2021_version2,2021.2.3,Win32,59.78358343,5c0e94f62932300001e2e0d3,61bbc5c79a1c66460f44041e,61bbc604840f93381668c987,,,,,,-67,23.5,1,0,0,response7disk,0.6657,-4,-12.5,1,0,0,rectangle,-4,-12.5,1,0,0,2,1,"[63,6,48,16,68,9,68,66,47,64]",-4,-12.5,1,0,0,1,1,82,55,1,Turquiose,Turquiose.jpg,Yellow,Yellow.jpg,,
,,,,,,,,,,,,,,,,,,-4,,,,,,,,,,,,,,,,,,,,,,,,,,,5c0e94f62932300001e2e0d3,001,2021-12-17_24h08.55.352,jm_natural_scene_simialrity_2-12-2021_version2,2021.2.3,Win32,59.78358343,5c0e94f62932300001e2e0d3,61bbc5c79a1c66460f44041e,61bbc604840f93381668c987,,,,,,-39,61.5,1,0,0,response7disk,0.7829,-21,6.5,1,0,0,rectangle,-21,6.5,1,0,0,2,-1,"[63,6,48,16,68,9,68,66,47,64]",-21,6.5,1,0,0,1,2,83,12,1,Yellow,Yellow.jpg,Turquiose,Turquiose.jpg,,
,,,,,,,,,,,,,,,,,,-3,,,,,,,,,,,,,,,,,,,,,,,,,,,5c0e94f62932300001e2e0d3,001,2021-12-17_24h08.55.352,jm_natural_scene_simialrity_2-12-2021_version2,2021.2.3,Win32,59.78358343,5c0e94f62932300001e2e0d3,61bbc5c79a1c66460f44041e,61bbc604840f93381668c987,,,,,,-74,30.5,1,0,0,response7disk,0.7325,-9,-4.5,1,0,0,rectangle,-9,-4.5,1,0,0,2,-4,"[63,6,48,16,68,9,68,66,47,64]",-9,-4.5,1,0,0,1,3,84,20,1,LightGreen,LightGreen.jpg,LightBlue,LightBlue.jpg,,
,,,,,,,,,,,,,,,,,,-2,,,,,,,,,,,,,,,,,,,,,,,,,,,5c0e94f62932300001e2e0d3,001,2021-12-17_24h08.55.352,jm_natural_scene_simialrity_2-12-2021_version2,2021.2.3,Win32,59.78358343,5c0e94f62932300001e2e0d3,61bbc5c79a1c66460f44041e,61bbc604840f93381668c987,,,,,,-58,-27.5,1,0,0,response5disk,0.6721,10,-19.5,1,0,0,rectangle,10,-19.5,1,0,0,2,-3,"[63,6,48,16,68,9,68,66,47,64]",10,-19.5,1,0,0,1,4,85,21,1,LightGreen,LightGreen.jpg,DarkBlue,DarkBlue.jpg,,
,,,,,,,,,,,,,,,,,,-3,,,,,,,,,,,,,,,,,,,,,,,,,,,5c0e94f62932300001e2e0d3,001,2021-12-17_24h08.55.352,jm_natural_scene_simialrity_2-12-2021_version2,2021.2.3,Win32,59.78358343,5c0e94f62932300001e2e0d3,61bbc5c79a1c66460f44041e,61bbc604840f93381668c987,,,,,,-58,42.5,1,0,0,response7disk,0.6331,1,12.5,1,0,0,rectangle,1,12.5,1,0,0,2,1,"[63,6,48,16,68,9,68,66,47,64]",1,12.5,1,0,0,1,5,86,5,1,Red,Red.jpg,LightBlue,LightBlue.jpg,,
,,,,,,,,,,,,,,,,,,-4,,,,,,,,,,,,,,,,,,,,,,,,,,,5c0e94f62932300001e2e0d3,001,2021-12-17_24h08.55.352,jm_natural_scene_simialrity_2-12-2021_version2,2021.2.3,Win32,59.78358343,5c0e94f62932300001e2e0d3,61bbc5c79a1c66460f44041e,61bbc604840f93381668c987,,,,,,-46,63.5,1,0,0,response7disk,0.9503,-23,11.5,1,0,0,rectangle,-23,11.5,1,0,0,2,3,"[63,6,48,16,68,9,68,66,47,64]",-23,11.5,1,0,0,1,6,87,19,1,LightGreen,LightGreen.jpg,Turquiose,Turquiose.jpg,,
,,,,,,,,,,,,,,,,,,2,,,,,,,,,,,,,,,,,,,,,,,,,,,5c0e94f62932300001e2e0d3,001,2021-12-17_24h08.55.352,jm_natural_scene_simialrity_2-12-2021_version2,2021.2.3,Win32,59.78358343,5c0e94f62932300001e2e0d3,61bbc5c79a1c66460f44041e,61bbc604840f93381668c987,,,,,,43,-30.5,1,0,0,response3disk,2.468,-2,-13.5,1,0,0,rectangle,-2,-13.5,1,0,0,2,-3,"[63,6,48,16,68,9,68,66,47,64]",-2,-13.5,1,0,0,1,7,88,43,1,Pink,Pink.jpg,Purple,Purple.jpg,,
,,,,,,,,,,,,,,,,,,-3,,,,,,,,,,,,,,,,,,,,,,,,,,,5c0e94f62932300001e2e0d3,001,2021-12-17_24h08.55.352,jm_natural_scene_simialrity_2-12-2021_version2,2021.2.3,Win32,59.78358343,5c0e94f62932300001e2e0d3,61bbc5c79a1c66460f44041e,61bbc604840f93381668c987,,,,,,-55,28.5,1,0,0,response7disk,0.9661,-4,3.5,1,0,0,rectangle,-4,3.5,1,0,0,2,1,"[63,6,48,16,68,9,68,66,47,64]",-4,3.5,1,0,0,1,8,89,47,1,DarkGreen,DarkGreen.jpg,Red,Red.jpg,,
,,,,,,,,,,,,,,,,,,-4,,,,,,,,,,,,,,,,,,,,,,,,,,,5c0e94f62932300001e2e0d3,001,2021-12-17_24h08.55.352,jm_natural_scene_simialrity_2-12-2021_version2,2021.2.3,Win32,59.78358343,5c0e94f62932300001e2e0d3,61bbc5c79a1c66460f44041e,61bbc604840f93381668c987,,,,,,-43,63.5,1,0,0,response7disk,0.8502,-19,4.5,1,0,0,rectangle,-19,4.5,1,0,0,2,2,"[63,6,48,16,68,9,68,66,47,64]",-19,4.5,1,0,0,1,9,90,26,1,DarkGreen,DarkGreen.jpg,LightBlue,LightBlue.jpg,,
,,,,,,,,,,,,,,,,,,-2,,,,,,,,,,,,,,,,,,,,,,,,,,,5c0e94f62932300001e2e0d3,001,2021-12-17_24h08.55.352,jm_natural_scene_simialrity_2-12-2021_version2,2021.2.3,Win32,59.78358343,5c0e94f62932300001e2e0d3,61bbc5c79a1c66460f44041e,61bbc604840f93381668c987,,,,,,-74,-39.5,1,0,0,response5disk,0.8829,-6,-17.5,1,0,0,rectangle,-6,-17.5,1,0,0,2,2,"[63,6,48,16,68,9,68,66,47,64]",-6,-17.5,1,0,0,1,10,91,38,1,LightBlue,LightBlue.jpg,Purple,Purple.jpg,,
,,,,,,,,,,,,,,,,,,1,,,,,,,,,,,,,,,,,,,,,,,,,,,5c0e94f62932300001e2e0d3,001,2021-12-17_24h08.55.352,jm_natural_scene_simialrity_2-12-2021_version2,2021.2.3,Win32,59.78358343,5c0e94f62932300001e2e0d3,61bbc5c79a1c66460f44041e,61bbc604840f93381668c987,,,,,,33,-33.5,1,0,0,response3disk,0.9004,-5,-21.5,1,0,0,rectangle,-5,-21.5,1,0,0,2,-2,"[63,6,48,16,68,9,68,66,47,64]",-5,-21.5,1,0,0,1,11,92,76,1,Pink,Pink.jpg,LightBlue,LightBlue.jpg,,
,,,,,,,,,,,,,,,,,,-2,,,,,,,,,,,,,,,,,,,,,,,,,,,5c0e94f62932300001e2e0d3,001,2021-12-17_24h08.55.352,jm_natural_scene_simialrity_2-12-2021_version2,2021.2.3,Win32,59.78358343,5c0e94f62932300001e2e0d3,61bbc5c79a1c66460f44041e,61bbc604840f93381668c987,,,,,,-57,-19.5,1,0,0,response5disk,0.851,-8,-16.5,1,0,0,rectangle,-8,-16.5,1,0,0,2,1,"[63,6,48,16,68,9,68,66,47,64]",-8,-16.5,1,0,0,1,12,93,70,1,Purple,Purple.jpg,DarkGreen,DarkGreen.jpg,,
,,,,,,,,,,,,,,,,,,-3,,,,,,,,,,,,,,,,,,,,,,,,,,,5c0e94f62932300001e2e0d3,001,2021-12-17_24h08.55.352,jm_natural_scene_simialrity_2-12-2021_version2,2021.2.3,Win32,59.78358343,5c0e94f62932300001e2e0d3,61bbc5c79a1c66460f44041e,61bbc604840f93381668c987,,,,,,-61,21.5,1,0,0,response7disk,0.6677,2,-11.5,1,0,0,rectangle,2,-11.5,1,0,0,2,-1,"[63,6,48,16,68,9,68,66,47,64]",2,-11.5,1,0,0,1,13,94,4,1,Red,Red.jpg,Turquiose,Turquiose.jpg,,
,,,,,,,,,,,,,,,,,,1,,,,,,,,,,,,,,,,,,,,,,,,,,,5c0e94f62932300001e2e0d3,001,2021-12-17_24h08.55.352,jm_natural_scene_simialrity_2-12-2021_version2,2021.2.3,Win32,59.78358343,5c0e94f62932300001e2e0d3,61bbc5c79a1c66460f44041e,61bbc604840f93381668c987,,,,,,42,-42.5,1,0,0,response3disk,1.2511,-5,-7.5,1,0,0,rectangle,-5,-7.5,1,0,0,2,1,"[63,6,48,16,68,9,68,66,47,64]",-5,-7.5,1,0,0,1,14,95,1,1,Red,Red.jpg,Yellow,Yellow.jpg,,
,,,,,,,,,,,,,,,,,,-3,,,,,,,,,,,,,,,,,,,,,,,,,,,5c0e94f62932300001e2e0d3,001,2021-12-17_24h08.55.352,jm_natural_scene_simialrity_2-12-2021_version2,2021.2.3,Win32,59.78358343,5c0e94f62932300001e2e0d3,61bbc5c79a1c66460f44041e,61bbc604840f93381668c987,,,,,,-81,33.5,1,0,0,response7disk,0.6502,-1,-9.5,1,0,0,rectangle,-1,-9.5,1,0,0,2,2,"[63,6,48,16,68,9,68,66,47,64]",-1,-9.5,1,0,0,1,15,96,41,1,DarkBlue,DarkBlue.jpg,Purple,Purple.jpg,,
,,,,,,,,,,,,,,,,,,4,,,,,,,,,,,,,,,,,,,,,,,,,,,5c0e94f62932300001e2e0d3,001,2021-12-17_24h08.55.352,jm_natural_scene_simialrity_2-12-2021_version2,2021.2.3,Win32,59.78358343,5c0e94f62932300001e2e0d3,61bbc5c79a1c66460f44041e,61bbc604840f93381668c987,,,,,,56,81.5,1,0,0,response1disk,0.8655,24,16.5,1,0,0,rectangle,24,16.5,1,0,0,2,1,"[63,6,48,16,68,9,68,66,47,64]",24,16.5,1,0,0,1,16,97,39,1,DarkBlue,DarkBlue.jpg,DarkBlue,DarkBlue.jpg,,
,,,,,,,,,,,,,,,,,,-3,,,,,,,,,,,,,,,,,,,,,,,,,,,5c0e94f62932300001e2e0d3,001,2021-12-17_24h08.55.352,jm_natural_scene_simialrity_2-12-2021_version2,2021.2.3,Win32,59.78358343,5c0e94f62932300001e2e0d3,61bbc5c79a1c66460f44041e,61bbc604840f93381668c987,,,,,,-53,19.5,1,0,0,response7disk,0.7702,-6,-4.5,1,0,0,rectangle,-6,-4.5,1,0,0,2,2,"[63,6,48,16,68,9,68,66,47,64]",-6,-4.5,1,0,0,1,17,98,53,1,LightGreen,LightGreen.jpg,Yellow,Yellow.jpg,,
,,,,,,,,,,,,,,,,,,1,,,,,,,,,,,,,,,,,,,,,,,,,,,5c0e94f62932300001e2e0d3,001,2021-12-17_24h08.55.352,jm_natural_scene_simialrity_2-12-2021_version2,2021.2.3,Win32,59.78358343,5c0e94f62932300001e2e0d3,61bbc5c79a1c66460f44041e,61bbc604840f93381668c987,,,,,,35,-49.5,1,0,0,response3disk,1.3637,3,-2.5,1,0,0,rectangle,3,-2.5,1,0,0,2,1,"[63,6,48,16,68,9,68,66,47,64]",3,-2.5,1,0,0,1,18,99,74,1,Purple,Purple.jpg,Turquiose,Turquiose.jpg,,
,,,,,,,,,,,,,,,,,,-3,,,,,,,,,,,,,,,,,,,,,,,,,,,5c0e94f62932300001e2e0d3,001,2021-12-17_24h08.55.352,jm_natural_scene_simialrity_2-12-2021_version2,2021.2.3,Win32,59.78358343,5c0e94f62932300001e2e0d3,61bbc5c79a1c66460f44041e,61bbc604840f93381668c987,,,,,,-94,49.5,1,0,0,response7disk,0.706,-22,8.5,1,0,0,rectangle,-22,8.5,1,0,0,2,2,"[63,6,48,16,68,9,68,66,47,64]",-22,8.5,1,0,0,1,19,100,49,1,LightBlue,LightBlue.jpg,Red,Red.jpg,,
,,,,,,,,,,,,,,,,,,2,,,,,,,,,,,,,,,,,,,,,,,,,,,5c0e94f62932300001e2e0d3,001,2021-12-17_24h08.55.352,jm_natural_scene_simialrity_2-12-2021_version2,2021.2.3,Win32,59.78358343,5c0e94f62932300001e2e0d3,61bbc5c79a1c66460f44041e,61bbc604840f93381668c987,,,,,,46,-40.5,1,0,0,response3disk,0.9998,2,-4.5,1,0,0,rectangle,2,-4.5,1,0,0,2,1,"[63,6,48,16,68,9,68,66,47,64]",2,-4.5,1,0,0,1,20,101,45,1,Yellow,Yellow.jpg,Red,Red.jpg,,
,,,,,,,,,,,,,,,,,,-2,,,,,,,,,,,,,,,,,,,,,,,,,,,5c0e94f62932300001e2e0d3,001,2021-12-17_24h08.55.352,jm_natural_scene_simialrity_2-12-2021_version2,2021.2.3,Win32,59.78358343,5c0e94f62932300001e2e0d3,61bbc5c79a1c66460f44041e,61bbc604840f93381668c987,,,,,,-45,-32.5,1,0,0,response5disk,0.7832,5,-17.5,1,0,0,rectangle,5,-17.5,1,0,0,2,1,"[63,6,48,16,68,9,68,66,47,64]",5,-17.5,1,0,0,1,21,102,56,1,LightBlue,LightBlue.jpg,Yellow,Yellow.jpg,,
,,,,,,,,,,,,,,,,,,4,,,,,,,,,,,,,,,,,,,,,,,,,,,5c0e94f62932300001e2e0d3,001,2021-12-17_24h08.55.352,jm_natural_scene_simialrity_2-12-2021_version2,2021.2.3,Win32,59.78358343,5c0e94f62932300001e2e0d3,61bbc5c79a1c66460f44041e,61bbc604840f93381668c987,,,,,,30,55.5,1,0,0,response1disk,0.6665,5,4.5,1,0,0,rectangle,5,4.5,1,0,0,2,2,"[63,6,48,16,68,9,68,66,47,64]",5,4.5,1,0,0,1,22,103,42,1,Pink,Pink.jpg,Pink,Pink.jpg,,
,,,,,,,,,,,,,,,,,,-3,,,,,,,,,,,,,,,,,,,,,,,,,,,5c0e94f62932300001e2e0d3,001,2021-12-17_24h08.55.352,jm_natural_scene_simialrity_2-12-2021_version2,2021.2.3,Win32,59.78358343,5c0e94f62932300001e2e0d3,61bbc5c79a1c66460f44041e,61bbc604840f93381668c987,,,,,,-65,30.5,1,0,0,response7disk,0.8328,-11,-14.5,1,0,0,rectangle,-11,-14.5,1,0,0,2,-4,"[63,6,48,16,68,9,68,66,47,64]",-11,-14.5,1,0,0,1,23,104,13,1,Yellow,Yellow.jpg,LightBlue,LightBlue.jpg,,
,,,,,,,,,,,,,,,,,,4,,,,,,,,,,,,,,,,,,,,,,,,,,,5c0e94f62932300001e2e0d3,001,2021-12-17_24h08.55.352,jm_natural_scene_simialrity_2-12-2021_version2,2021.2.3,Win32,59.78358343,5c0e94f62932300001e2e0d3,61bbc5c79a1c66460f44041e,61bbc604840f93381668c987,,,,,,22,73.5,1,0,0,response1disk,0.6666,-19,5.5,1,0,0,rectangle,-19,5.5,1,0,0,2,1,"[63,6,48,16,68,9,68,66,47,64]",-19,5.5,1,0,0,1,24,105,35,1,LightBlue,LightBlue.jpg,LightBlue,LightBlue.jpg,,
,,,,,,,,,,,,,,,,,,2,,,,,,,,,,,,,,,,,,,,,,,,,,,5c0e94f62932300001e2e0d3,001,2021-12-17_24h08.55.352,jm_natural_scene_simialrity_2-12-2021_version2,2021.2.3,Win32,59.78358343,5c0e94f62932300001e2e0d3,61bbc5c79a1c66460f44041e,61bbc604840f93381668c987,,,,,,90,-48.5,1,0,0,response3disk,1.4844,5,-19.5,1,0,0,rectangle,5,-19.5,1,0,0,2,2,"[63,6,48,16,68,9,68,66,47,64]",5,-19.5,1,0,0,1,25,106,18,1,LightGreen,LightGreen.jpg,DarkGreen,DarkGreen.jpg,,
,,,,,,,,,,,,,,,,,,-3,,,,,,,,,,,,,,,,,,,,,,,,,,,5c0e94f62932300001e2e0d3,001,2021-12-17_24h08.55.352,jm_natural_scene_simialrity_2-12-2021_version2,2021.2.3,Win32,59.78358343,5c0e94f62932300001e2e0d3,61bbc5c79a1c66460f44041e,61bbc604840f93381668c987,,,,,,-70,43.5,1,0,0,response7disk,0.7336,-4,3.5,1,0,0,rectangle,-4,3.5,1,0,0,2,3,"[63,6,48,16,68,9,68,66,47,64]",-4,3.5,1,0,0,1,26,107,27,1,DarkGreen,DarkGreen.jpg,DarkBlue,DarkBlue.jpg,,
,,,,,,,,,,,,,,,,,,-4,,,,,,,,,,,,,,,,,,,,,,,,,,,5c0e94f62932300001e2e0d3,001,2021-12-17_24h08.55.352,jm_natural_scene_simialrity_2-12-2021_version2,2021.2.3,Win32,59.78358343,5c0e94f62932300001e2e0d3,61bbc5c79a1c66460f44041e,61bbc604840f93381668c987,,,,,,-31,78.5,1,0,0,response7disk,0.7406,-18,4.5,1,0,0,rectangle,-18,4.5,1,0,0,2,1,"[63,6,48,16,68,9,68,66,47,64]",-18,4.5,1,0,0,1,27,108,57,1,DarkBlue,DarkBlue.jpg,Yellow,Yellow.jpg,,
,,,,,,,,,,,,,,,,,,-3,,,,,,,,,,,,,,,,,,,,,,,,,,,5c0e94f62932300001e2e0d3,001,2021-12-17_24h08.55.352,jm_natural_scene_simialrity_2-12-2021_version2,2021.2.3,Win32,59.78358343,5c0e94f62932300001e2e0d3,61bbc5c79a1c66460f44041e,61bbc604840f93381668c987,,,,,,-100,42.5,1,0,0,response7disk,0.5997,-20,-7.5,1,0,0,rectangle,-20,-7.5,1,0,0,2,-4,"[63,6,48,16,68,9,68,66,47,64]",-20,-7.5,1,0,0,1,28,109,28,1,DarkGreen,DarkGreen.jpg,Pink,Pink.jpg,,
,,,,,,,,,,,,,,,,,,2,,,,,,,,,,,,,,,,,,,,,,,,,,,5c0e94f62932300001e2e0d3,001,2021-12-17_24h08.55.352,jm_natural_scene_simialrity_2-12-2021_version2,2021.2.3,Win32,59.78358343,5c0e94f62932300001e2e0d3,61bbc5c79a1c66460f44041e,61bbc604840f93381668c987,,,,,,51,-31.5,1,0,0,response3disk,0.7665,6,-13.5,1,0,0,rectangle,6,-13.5,1,0,0,2,-4,"[63,6,48,16,68,9,68,66,47,64]",6,-13.5,1,0,0,1,29,110,51,1,Pink,Pink.jpg,Red,Red.jpg,,
,,,,,,,,,,,,,,,,,,1,,,,,,,,,,,,,,,,,,,,,,,,,,,5c0e94f62932300001e2e0d3,001,2021-12-17_24h08.55.352,jm_natural_scene_simialrity_2-12-2021_version2,2021.2.3,Win32,59.78358343,5c0e94f62932300001e2e0d3,61bbc5c79a1c66460f44041e,61bbc604840f93381668c987,,,,,,45,-91.5,1,0,0,response3disk,0.9028,-1,-11.5,1,0,0,rectangle,-1,-11.5,1,0,0,2,-4,"[63,6,48,16,68,9,68,66,47,64]",-1,-11.5,1,0,0,1,30,111,80,1,Purple,Purple.jpg,Pink,Pink.jpg,,
,,,,,,,,,,,,,,,,,,-2,,,,,,,,,,,,,,,,,,,,,,,,,,,5c0e94f62932300001e2e0d3,001,2021-12-17_24h08.55.352,jm_natural_scene_simialrity_2-12-2021_version2,2021.2.3,Win32,59.78358343,5c0e94f62932300001e2e0d3,61bbc5c79a1c66460f44041e,61bbc604840f93381668c987,,,,,,-60,-47.5,1,0,0,response5disk,0.7163,-17,-7.5,1,0,0,rectangle,-17,-7.5,1,0,0,2,-2,"[63,6,48,16,68,9,68,66,47,64]",-17,-7.5,1,0,0,1,31,112,34,1,Turquiose,Turquiose.jpg,Purple,Purple.jpg,,
,,,,,,,,,,,,,,,,,,-3,,,,,,,,,,,,,,,,,,,,,,,,,,,5c0e94f62932300001e2e0d3,001,2021-12-17_24h08.55.352,jm_natural_scene_simialrity_2-12-2021_version2,2021.2.3,Win32,59.78358343,5c0e94f62932300001e2e0d3,61bbc5c79a1c66460f44041e,61bbc604840f93381668c987,,,,,,-84,34.5,1,0,0,response7disk,0.6829,-9,-2.5,1,0,0,rectangle,-9,-2.5,1,0,0,2,3,"[63,6,48,16,68,9,68,66,47,64]",-9,-2.5,1,0,0,1,32,113,36,1,LightBlue,LightBlue.jpg,DarkBlue,DarkBlue.jpg,,
,,,,,,,,,,,,,,,,,,-4,,,,,,,,,,,,,,,,,,,,,,,,,,,5c0e94f62932300001e2e0d3,001,2021-12-17_24h08.55.352,jm_natural_scene_simialrity_2-12-2021_version2,2021.2.3,Win32,59.78358343,5c0e94f62932300001e2e0d3,61bbc5c79a1c66460f44041e,61bbc604840f93381668c987,,,,,,-24,61.5,1,0,0,response7disk,0.6509,-13,9.5,1,0,0,rectangle,-13,9.5,1,0,0,2,-1,"[63,6,48,16,68,9,68,66,47,64]",-13,9.5,1,0,0,1,33,114,32,1,Turquiose,Turquiose.jpg,DarkBlue,DarkBlue.jpg,,
,,,,,,,,,,,,,,,,,,4,,,,,,,,,,,,,,,,,,,,,,,,,,,5c0e94f62932300001e2e0d3,001,2021-12-17_24h08.55.352,jm_natural_scene_simialrity_2-12-2021_version2,2021.2.3,Win32,59.78358343,5c0e94f62932300001e2e0d3,61bbc5c79a1c66460f44041e,61bbc604840f93381668c987,,,,,,52,81.5,1,0,0,response1disk,0.7901,13,-0.5,1,0,0,rectangle,13,-0.5,1,0,0,2,-4,"[63,6,48,16,68,9,68,66,47,64]",13,-0.5,1,0,0,1,34,115,9,1,Yellow,Yellow.jpg,Yellow,Yellow.jpg,,
,,,,,,,,,,,,,,,,,,-3,,,,,,,,,,,,,,,,,,,,,,,,,,,5c0e94f62932300001e2e0d3,001,2021-12-17_24h08.55.352,jm_natural_scene_simialrity_2-12-2021_version2,2021.2.3,Win32,59.78358343,5c0e94f62932300001e2e0d3,61bbc5c79a1c66460f44041e,61bbc604840f93381668c987,,,,,,-59,30.5,1,0,0,response7disk,1.7002,-9,2.5,1,0,0,rectangle,-9,2.5,1,0,0,2,-1,"[63,6,48,16,68,9,68,66,47,64]",-9,2.5,1,0,0,1,35,116,2,1,Red,Red.jpg,LightGreen,LightGreen.jpg,,
,,,,,,,,,,,,,,,,,,-3,,,,,,,,,,,,,,,,,,,,,,,,,,,5c0e94f62932300001e2e0d3,001,2021-12-17_24h08.55.352,jm_natural_scene_simialrity_2-12-2021_version2,2021.2.3,Win32,59.78358343,5c0e94f62932300001e2e0d3,61bbc5c79a1c66460f44041e,61bbc604840f93381668c987,,,,,,-85,38.5,1,0,0,response7disk,0.7167,-13,5.5,1,0,0,rectangle,-13,5.5,1,0,0,2,-3,"[63,6,48,16,68,9,68,66,47,64]",-13,5.5,1,0,0,1,36,117,14,1,Yellow,Yellow.jpg,DarkBlue,DarkBlue.jpg,,
,,,,,,,,,,,,,,,,,,-4,,,,,,,,,,,,,,,,,,,,,,,,,,,5c0e94f62932300001e2e0d3,001,2021-12-17_24h08.55.352,jm_natural_scene_simialrity_2-12-2021_version2,2021.2.3,Win32,59.78358343,5c0e94f62932300001e2e0d3,61bbc5c79a1c66460f44041e,61bbc604840f93381668c987,,,,,,-51,82.5,1,0,0,response7disk,0.7337,-23,12.5,1,0,0,rectangle,-23,12.5,1,0,0,2,-4,"[63,6,48,16,68,9,68,66,47,64]",-23,12.5,1,0,0,1,37,118,78,1,Pink,Pink.jpg,DarkBlue,DarkBlue.jpg,,
,,,,,,,,,,,,,,,,,,-3,,,,,,,,,,,,,,,,,,,,,,,,,,,5c0e94f62932300001e2e0d3,001,2021-12-17_24h08.55.352,jm_natural_scene_simialrity_2-12-2021_version2,2021.2.3,Win32,59.78358343,5c0e94f62932300001e2e0d3,61bbc5c79a1c66460f44041e,61bbc604840f93381668c987,,,,,,-71,29.5,1,0,0,response7disk,0.7012,-12,-11.5,1,0,0,rectangle,-12,-11.5,1,0,0,2,2,"[63,6,48,16,68,9,68,66,47,64]",-12,-11.5,1,0,0,1,38,119,68,1,DarkBlue,DarkBlue.jpg,DarkGreen,DarkGreen.jpg,,
,,,,,,,,,,,,,,,,,,-2,,,,,,,,,,,,,,,,,,,,,,,,,,,5c0e94f62932300001e2e0d3,001,2021-12-17_24h08.55.352,jm_natural_scene_simialrity_2-12-2021_version2,2021.2.3,Win32,59.78358343,5c0e94f62932300001e2e0d3,61bbc5c79a1c66460f44041e,61bbc604840f93381668c987,,,,,,-55,-54.5,1,0,0,response5disk,0.8839,-1,-14.5,1,0,0,rectangle,-1,-14.5,1,0,0,2,-1,"[63,6,48,16,68,9,68,66,47,64]",-1,-14.5,1,0,0,1,39,120,22,1,LightGreen,LightGreen.jpg,Pink,Pink.jpg,,
,,,,,,,,,,,,,,,,,,2,,,,,,,,,,,,,,,,,,,,,,,,,,,5c0e94f62932300001e2e0d3,001,2021-12-17_24h08.55.352,jm_natural_scene_simialrity_2-12-2021_version2,2021.2.3,Win32,59.78358343,5c0e94f62932300001e2e0d3,61bbc5c79a1c66460f44041e,61bbc604840f93381668c987,,,,,,49,-30.5,1,0,0,response3disk,1.049,-15,5.5,1,0,0,rectangle,-15,5.5,1,0,0,2,-4,"[63,6,48,16,68,9,68,66,47,64]",-15,5.5,1,0,0,1,40,121,58,1,Pink,Pink.jpg,Yellow,Yellow.jpg,,
,,,,,,,,,,,,,,,,,,-2,,,,,,,,,,,,,,,,,,,,,,,,,,,5c0e94f62932300001e2e0d3,001,2021-12-17_24h08.55.352,jm_natural_scene_simialrity_2-12-2021_version2,2021.2.3,Win32,59.78358343,5c0e94f62932300001e2e0d3,61bbc5c79a1c66460f44041e,61bbc604840f93381668c987,,,,,,-49,-23.5,1,0,0,response5disk,0.7739,-20,11.5,1,0,0,rectangle,-20,11.5,1,0,0,2,-2,"[63,6,48,16,68,9,68,66,47,64]",-20,11.5,1,0,0,1,41,122,10,1,Yellow,Yellow.jpg,LightGreen,LightGreen.jpg,,
,,,,,,,,,,,,,,,,,,-3,,,,,,,,,,,,,,,,,,,,,,,,,,,5c0e94f62932300001e2e0d3,001,2021-12-17_24h08.55.352,jm_natural_scene_simialrity_2-12-2021_version2,2021.2.3,Win32,59.78358343,5c0e94f62932300001e2e0d3,61bbc5c79a1c66460f44041e,61bbc604840f93381668c987,,,,,,-63,35.5,1,0,0,response7disk,2.0008,-5,7.5,1,0,0,rectangle,-5,7.5,1,0,0,2,-4,"[63,6,48,16,68,9,68,66,47,64]",-5,7.5,1,0,0,1,42,123,67,1,LightBlue,LightBlue.jpg,DarkGreen,DarkGreen.jpg,,
,,,,,,,,,,,,,,,,,,3,,,,,,,,,,,,,,,,,,,,,,,,,,,5c0e94f62932300001e2e0d3,001,2021-12-17_24h08.55.352,jm_natural_scene_simialrity_2-12-2021_version2,2021.2.3,Win32,59.78358343,5c0e94f62932300001e2e0d3,61bbc5c79a1c66460f44041e,61bbc604840f93381668c987,,,,,,74,31.5,1,0,0,response1disk,1.0171,-1,11.5,1,0,0,rectangle,-1,11.5,1,0,0,2,-2,"[63,6,48,16,68,9,68,66,47,64]",-1,11.5,1,0,0,1,43,124,15,1,Yellow,Yellow.jpg,Pink,Pink.jpg,,
,,,,,,,,,,,,,,,,,,-3,,,,,,,,,,,,,,,,,,,,,,,,,,,5c0e94f62932300001e2e0d3,001,2021-12-17_24h08.55.352,jm_natural_scene_simialrity_2-12-2021_version2,2021.2.3,Win32,59.78358343,5c0e94f62932300001e2e0d3,61bbc5c79a1c66460f44041e,61bbc604840f93381668c987,,,,,,-74,37.5,1,0,0,response7disk,0.9994,-7,2.5,1,0,0,rectangle,-7,2.5,1,0,0,2,-4,"[63,6,48,16,68,9,68,66,47,64]",-7,2.5,1,0,0,1,44,125,25,1,DarkGreen,DarkGreen.jpg,Turquiose,Turquiose.jpg,,
,,,,,,,,,,,,,,,,,,-4,,,,,,,,,,,,,,,,,,,,,,,,,,,5c0e94f62932300001e2e0d3,001,2021-12-17_24h08.55.352,jm_natural_scene_simialrity_2-12-2021_version2,2021.2.3,Win32,59.78358343,5c0e94f62932300001e2e0d3,61bbc5c79a1c66460f44041e,61bbc604840f93381668c987,,,,,,-31,77.5,1,0,0,response7disk,0.8724,2,16.5,1,0,0,rectangle,2,16.5,1,0,0,2,-3,"[63,6,48,16,68,9,68,66,47,64]",2,16.5,1,0,0,1,45,126,66,1,Turquiose,Turquiose.jpg,DarkGreen,DarkGreen.jpg,,
,,,,,,,,,,,,,,,,,,-2,,,,,,,,,,,,,,,,,,,,,,,,,,,5c0e94f62932300001e2e0d3,001,2021-12-17_24h08.55.352,jm_natural_scene_simialrity_2-12-2021_version2,2021.2.3,Win32,59.78358343,5c0e94f62932300001e2e0d3,61bbc5c79a1c66460f44041e,61bbc604840f93381668c987,,,,,,-64,-33.5,1,0,0,response5disk,1.0982,-8,-4.5,1,0,0,rectangle,-8,-4.5,1,0,0,2,-1,"[63,6,48,16,68,9,68,66,47,64]",-8,-4.5,1,0,0,1,46,127,31,1,Turquiose,Turquiose.jpg,LightBlue,LightBlue.jpg,,
,,,,,,,,,,,,,,,,,,1,,,,,,,,,,,,,,,,,,,,,,,,,,,5c0e94f62932300001e2e0d3,001,2021-12-17_24h08.55.352,jm_natural_scene_simialrity_2-12-2021_version2,2021.2.3,Win32,59.78358343,5c0e94f62932300001e2e0d3,61bbc5c79a1c66460f44041e,61bbc604840f93381668c987,,,,,,43,-84.5,1,0,0,response3disk,1.766,4,-4.5,1,0,0,rectangle,4,-4.5,1,0,0,2,2,"[63,6,48,16,68,9,68,66,47,64]",4,-4.5,1,0,0,1,47,128,37,1,LightBlue,LightBlue.jpg,Pink,Pink.jpg,,
,,,,,,,,,,,,,,,,,,-2,,,,,,,,,,,,,,,,,,,,,,,,,,,5c0e94f62932300001e2e0d3,001,2021-12-17_24h08.55.352,jm_natural_scene_simialrity_2-12-2021_version2,2021.2.3,Win32,59.78358343,5c0e94f62932300001e2e0d3,61bbc5c79a1c66460f44041e,61bbc604840f93381668c987,,,,,,-52,-27.5,1,0,0,response5disk,0.8846,-10,-9.5,1,0,0,rectangle,-10,-9.5,1,0,0,2,2,"[63,6,48,16,68,9,68,66,47,64]",-10,-9.5,1,0,0,1,48,129,64,1,Pink,Pink.jpg,LightGreen,LightGreen.jpg,,
,,,,,,,,,,,,,,,,,,-3,,,,,,,,,,,,,,,,,,,,,,,,,,,5c0e94f62932300001e2e0d3,001,2021-12-17_24h08.55.352,jm_natural_scene_simialrity_2-12-2021_version2,2021.2.3,Win32,59.78358343,5c0e94f62932300001e2e0d3,61bbc5c79a1c66460f44041e,61bbc604840f93381668c987,,,,,,-65,29.5,1,0,0,response7disk,0.9659,-16,11.5,1,0,0,rectangle,-16,11.5,1,0,0,2,-4,"[63,6,48,16,68,9,68,66,47,64]",-16,11.5,1,0,0,1,49,130,46,1,LightGreen,LightGreen.jpg,Red,Red.jpg,,
,,,,,,,,,,,,,,,,,,4,,,,,,,,,,,,,,,,,,,,,,,,,,,5c0e94f62932300001e2e0d3,001,2021-12-17_24h08.55.352,jm_natural_scene_simialrity_2-12-2021_version2,2021.2.3,Win32,59.78358343,5c0e94f62932300001e2e0d3,61bbc5c79a1c66460f44041e,61bbc604840f93381668c987,,,,,,23,69.5,1,0,0,response1disk,0.6835,-11,22.5,1,0,0,rectangle,-11,22.5,1,0,0,2,-2,"[63,6,48,16,68,9,68,66,47,64]",-11,22.5,1,0,0,1,50,131,30,1,Turquiose,Turquiose.jpg,Turquiose,Turquiose.jpg,,
,,,,,,,,,,,,,,,,,,4,,,,,,,,,,,,,,,,,,,,,,,,,,,5c0e94f62932300001e2e0d3,001,2021-12-17_24h08.55.352,jm_natural_scene_simialrity_2-12-2021_version2,2021.2.3,Win32,59.78358343,5c0e94f62932300001e2e0d3,61bbc5c79a1c66460f44041e,61bbc604840f93381668c987,,,,,,38,76.5,1,0,0,response1disk,0.6479,11,11.5,1,0,0,rectangle,11,11.5,1,0,0,2,-3,"[63,6,48,16,68,9,68,66,47,64]",11,11.5,1,0,0,1,51,132,24,1,DarkGreen,DarkGreen.jpg,DarkGreen,DarkGreen.jpg,,
,,,,,,,,,,,,,,,,,,-3,,,,,,,,,,,,,,,,,,,,,,,,,,,5c0e94f62932300001e2e0d3,001,2021-12-17_24h08.55.352,jm_natural_scene_simialrity_2-12-2021_version2,2021.2.3,Win32,59.78358343,5c0e94f62932300001e2e0d3,61bbc5c79a1c66460f44041e,61bbc604840f93381668c987,,,,,,-56,30.5,1,0,0,response7disk,0.6335,-10,2.5,1,0,0,rectangle,-10,2.5,1,0,0,2,-1,"[63,6,48,16,68,9,68,66,47,64]",-10,2.5,1,0,0,1,52,133,79,1,Purple,Purple.jpg,DarkBlue,DarkBlue.jpg,,
,,,,,,,,,,,,,,,,,,-2,,,,,,,,,,,,,,,,,,,,,,,,,,,5c0e94f62932300001e2e0d3,001,2021-12-17_24h08.55.352,jm_natural_scene_simialrity_2-12-2021_version2,2021.2.3,Win32,59.78358343,5c0e94f62932300001e2e0d3,61bbc5c79a1c66460f44041e,61bbc604840f93381668c987,,,,,,-62,-34.5,1,0,0,response5disk,0.7671,0,-15.5,1,0,0,rectangle,0,-15.5,1,0,0,2,1,"[63,6,48,16,68,9,68,66,47,64]",0,-15.5,1,0,0,1,53,134,54,1,DarkGreen,DarkGreen.jpg,Yellow,Yellow.jpg,,
,,,,,,,,,,,,,,,,,,-4,,,,,,,,,,,,,,,,,,,,,,,,,,,5c0e94f62932300001e2e0d3,001,2021-12-17_24h08.55.352,jm_natural_scene_simialrity_2-12-2021_version2,2021.2.3,Win32,59.78358343,5c0e94f62932300001e2e0d3,61bbc5c79a1c66460f44041e,61bbc604840f93381668c987,,,,,,-34,80.5,1,0,0,response7disk,1.0002,-16,3.5,1,0,0,rectangle,-16,3.5,1,0,0,2,2,"[63,6,48,16,68,9,68,66,47,64]",-16,3.5,1,0,0,1,54,135,3,1,Red,Red.jpg,DarkGreen,DarkGreen.jpg,,
,,,,,,,,,,,,,,,,,,-2,,,,,,,,,,,,,,,,,,,,,,,,,,,5c0e94f62932300001e2e0d3,001,2021-12-17_24h08.55.352,jm_natural_scene_simialrity_2-12-2021_version2,2021.2.3,Win32,59.78358343,5c0e94f62932300001e2e0d3,61bbc5c79a1c66460f44041e,61bbc604840f93381668c987,,,,,,-58,-28.5,1,0,0,response5disk,0.6498,9,-6.5,1,0,0,rectangle,9,-6.5,1,0,0,2,-3,"[63,6,48,16,68,9,68,66,47,64]",9,-6.5,1,0,0,1,55,136,73,1,Pink,Pink.jpg,Turquiose,Turquiose.jpg,,
,,,,,,,,,,,,,,,,,,-3,,,,,,,,,,,,,,,,,,,,,,,,,,,5c0e94f62932300001e2e0d3,001,2021-12-17_24h08.55.352,jm_natural_scene_simialrity_2-12-2021_version2,2021.2.3,Win32,59.78358343,5c0e94f62932300001e2e0d3,61bbc5c79a1c66460f44041e,61bbc604840f93381668c987,,,,,,-58,34.5,1,0,0,response7disk,0.8344,-14,5.5,1,0,0,rectangle,-14,5.5,1,0,0,2,-2,"[63,6,48,16,68,9,68,66,47,64]",-14,5.5,1,0,0,1,56,137,29,1,DarkGreen,DarkGreen.jpg,Purple,Purple.jpg,,
,,,,,,,,,,,,,,,,,,-4,,,,,,,,,,,,,,,,,,,,,,,,,,,5c0e94f62932300001e2e0d3,001,2021-12-17_24h08.55.352,jm_natural_scene_simialrity_2-12-2021_version2,2021.2.3,Win32,59.78358343,5c0e94f62932300001e2e0d3,61bbc5c79a1c66460f44041e,61bbc604840f93381668c987,,,,,,-49,63.5,1,0,0,response7disk,1.223,-21,2.5,1,0,0,rectangle,-21,2.5,1,0,0,2,-4,"[63,6,48,16,68,9,68,66,47,64]",-21,2.5,1,0,0,1,57,138,69,1,Pink,Pink.jpg,DarkGreen,DarkGreen.jpg,,
,,,,,,,,,,,,,,,,,,4,,,,,,,,,,,,,,,,,,,,,,,,,,,5c0e94f62932300001e2e0d3,001,2021-12-17_24h08.55.352,jm_natural_scene_simialrity_2-12-2021_version2,2021.2.3,Win32,59.78358343,5c0e94f62932300001e2e0d3,61bbc5c79a1c66460f44041e,61bbc604840f93381668c987,,,,,,37,76.5,1,0,0,response1disk,0.8999,7,8.5,1,0,0,rectangle,7,8.5,1,0,0,2,1,"[63,6,48,16,68,9,68,66,47,64]",7,8.5,1,0,0,1,58,139,17,1,LightGreen,LightGreen.jpg,LightGreen,LightGreen.jpg,,
,,,,,,,,,,,,,,,,,,1,,,,,,,,,,,,,,,,,,,,,,,,,,,5c0e94f62932300001e2e0d3,001,2021-12-17_24h08.55.352,jm_natural_scene_simialrity_2-12-2021_version2,2021.2.3,Win32,59.78358343,5c0e94f62932300001e2e0d3,61bbc5c79a1c66460f44041e,61bbc604840f93381668c987,,,,,,33,-55.5,1,0,0,response3disk,1.6162,-3,-10.5,1,0,0,rectangle,-3,-10.5,1,0,0,2,-1,"[63,6,48,16,68,9,68,66,47,64]",-3,-10.5,1,0,0,1,59,140,59,1,Purple,Purple.jpg,Yellow,Yellow.jpg,,
,,,,,,,,,,,,,,,,,,-3,,,,,,,,,,,,,,,,,,,,,,,,,,,5c0e94f62932300001e2e0d3,001,2021-12-17_24h08.55.352,jm_natural_scene_simialrity_2-12-2021_version2,2021.2.3,Win32,59.78358343,5c0e94f62932300001e2e0d3,61bbc5c79a1c66460f44041e,61bbc604840f93381668c987,,,,,,-74,31.5,1,0,0,response7disk,0.822,-22,-5.5,1,0,0,rectangle,-22,-5.5,1,0,0,2,3,"[63,6,48,16,68,9,68,66,47,64]",-22,-5.5,1,0,0,1,60,141,65,1,Purple,Purple.jpg,LightGreen,LightGreen.jpg,,
,,,,,,,,,,,,,,,,,,-4,,,,,,,,,,,,,,,,,,,,,,,,,,,5c0e94f62932300001e2e0d3,001,2021-12-17_24h08.55.352,jm_natural_scene_simialrity_2-12-2021_version2,2021.2.3,Win32,59.78358343,5c0e94f62932300001e2e0d3,61bbc5c79a1c66460f44041e,61bbc604840f93381668c987,,,,,,-28,60.5,1,0,0,response7disk,0.7332,2,-0.5,1,0,0,rectangle,2,-0.5,1,0,0,2,-1,"[63,6,48,16,68,9,68,66,47,64]",2,-0.5,1,0,0,1,61,142,48,1,Turquiose,Turquiose.jpg,Red,Red.jpg,,
,,,,,,,,,,,,,,,,,,-2,,,,,,,,,,,,,,,,,,,,,,,,,,,5c0e94f62932300001e2e0d3,001,2021-12-17_24h08.55.352,jm_natural_scene_simialrity_2-12-2021_version2,2021.2.3,Win32,59.78358343,5c0e94f62932300001e2e0d3,61bbc5c79a1c66460f44041e,61bbc604840f93381668c987,,,,,,-54,-29.5,1,0,0,response5disk,0.702,9,-19.5,1,0,0,rectangle,9,-19.5,1,0,0,2,-3,"[63,6,48,16,68,9,68,66,47,64]",9,-19.5,1,0,0,1,62,143,71,1,LightBlue,LightBlue.jpg,Turquiose,Turquiose.jpg,,
,,,,,,,,,,,,,,,,,,-3,,,,,,,,,,,,,,,,,,,,,,,,,,,5c0e94f62932300001e2e0d3,001,2021-12-17_24h08.55.352,jm_natural_scene_simialrity_2-12-2021_version2,2021.2.3,Win32,59.78358343,5c0e94f62932300001e2e0d3,61bbc5c79a1c66460f44041e,61bbc604840f93381668c987,,,,,,-64,39.5,1,0,0,response7disk,0.7665,2,8.5,1,0,0,rectangle,2,8.5,1,0,0,2,-4,"[63,6,48,16,68,9,68,66,47,64]",2,8.5,1,0,0,1,63,144,72,1,DarkBlue,DarkBlue.jpg,Turquiose,Turquiose.jpg,,
,,,,,,,,,,,,,,,,,,-4,,,,,,,,,,,,,,,,,,,,,,,,,,,5c0e94f62932300001e2e0d3,001,2021-12-17_24h08.55.352,jm_natural_scene_simialrity_2-12-2021_version2,2021.2.3,Win32,59.78358343,5c0e94f62932300001e2e0d3,61bbc5c79a1c66460f44041e,61bbc604840f93381668c987,,,,,,-36,74.5,1,0,0,response7disk,0.9149,-7,24.5,1,0,0,rectangle,-7,24.5,1,0,0,2,1,"[63,6,48,16,68,9,68,66,47,64]",-7,24.5,1,0,0,1,64,145,11,1,Yellow,Yellow.jpg,DarkGreen,DarkGreen.jpg,,
,,,,,,,,,,,,,,,,,,-2,,,,,,,,,,,,,,,,,,,,,,,,,,,5c0e94f62932300001e2e0d3,001,2021-12-17_24h08.55.352,jm_natural_scene_simialrity_2-12-2021_version2,2021.2.3,Win32,59.78358343,5c0e94f62932300001e2e0d3,61bbc5c79a1c66460f44041e,61bbc604840f93381668c987,,,,,,-64,-34.5,1,0,0,response5disk,0.7175,-6,-22.5,1,0,0,rectangle,-6,-22.5,1,0,0,2,3,"[63,6,48,16,68,9,68,66,47,64]",-6,-22.5,1,0,0,1,65,146,6,1,Red,Red.jpg,DarkBlue,DarkBlue.jpg,,
,,,,,,,,,,,,,,,,,,-3,,,,,,,,,,,,,,,,,,,,,,,,,,,5c0e94f62932300001e2e0d3,001,2021-12-17_24h08.55.352,jm_natural_scene_simialrity_2-12-2021_version2,2021.2.3,Win32,59.78358343,5c0e94f62932300001e2e0d3,61bbc5c79a1c66460f44041e,61bbc604840f93381668c987,,,,,,-57,35.5,1,0,0,response7disk,0.6674,8,3.5,1,0,0,rectangle,8,3.5,1,0,0,2,-3,"[63,6,48,16,68,9,68,66,47,64]",8,3.5,1,0,0,1,66,147,33,1,Turquiose,Turquiose.jpg,Pink,Pink.jpg,,
,,,,,,,,,,,,,,,,,,-4,,,,,,,,,,,,,,,,,,,,,,,,,,,5c0e94f62932300001e2e0d3,001,2021-12-17_24h08.55.352,jm_natural_scene_simialrity_2-12-2021_version2,2021.2.3,Win32,59.78358343,5c0e94f62932300001e2e0d3,61bbc5c79a1c66460f44041e,61bbc604840f93381668c987,,,,,,-34,63.5,1,0,0,response7disk,0.6836,1,1.5,1,0,0,rectangle,1,1.5,1,0,0,2,1,"[63,6,48,16,68,9,68,66,47,64]",1,1.5,1,0,0,1,67,148,77,1,Purple,Purple.jpg,LightBlue,LightBlue.jpg,,
,,,,,,,,,,,,,,,,,,4,,,,,,,,,,,,,,,,,,,,,,,,,,,5c0e94f62932300001e2e0d3,001,2021-12-17_24h08.55.352,jm_natural_scene_simialrity_2-12-2021_version2,2021.2.3,Win32,59.78358343,5c0e94f62932300001e2e0d3,61bbc5c79a1c66460f44041e,61bbc604840f93381668c987,,,,,,37,77.5,1,0,0,response1disk,0.8678,17,-2.5,1,0,0,rectangle,17,-2.5,1,0,0,2,-4,"[63,6,48,16,68,9,68,66,47,64]",17,-2.5,1,0,0,1,68,149,0,1,Red,Red.jpg,Red,Red.jpg,,
,,,,,,,,,,,,,,,,,,-3,,,,,,,,,,,,,,,,,,,,,,,,,,,5c0e94f62932300001e2e0d3,001,2021-12-17_24h08.55.352,jm_natural_scene_simialrity_2-12-2021_version2,2021.2.3,Win32,59.78358343,5c0e94f62932300001e2e0d3,61bbc5c79a1c66460f44041e,61bbc604840f93381668c987,,,,,,-64,43.5,1,0,0,response7disk,0.7842,-5,-7.5,1,0,0,rectangle,-5,-7.5,1,0,0,2,1,"[63,6,48,16,68,9,68,66,47,64]",-5,-7.5,1,0,0,1,69,150,50,1,DarkBlue,DarkBlue.jpg,Red,Red.jpg,,
,,,,,,,,,,,,,,,,,,1,,,,,,,,,,,,,,,,,,,,,,,,,,,5c0e94f62932300001e2e0d3,001,2021-12-17_24h08.55.352,jm_natural_scene_simialrity_2-12-2021_version2,2021.2.3,Win32,59.78358343,5c0e94f62932300001e2e0d3,61bbc5c79a1c66460f44041e,61bbc604840f93381668c987,,,,,,57,-60.5,1,0,0,response3disk,1.0672,10,-8.5,1,0,0,rectangle,10,-8.5,1,0,0,2,3,"[63,6,48,16,68,9,68,66,47,64]",10,-8.5,1,0,0,1,70,151,52,1,Purple,Purple.jpg,Red,Red.jpg,,
,,,,,,,,,,,,,,,,,,-3,,,,,,,,,,,,,,,,,,,,,,,,,,,5c0e94f62932300001e2e0d3,001,2021-12-17_24h08.55.352,jm_natural_scene_simialrity_2-12-2021_version2,2021.2.3,Win32,59.78358343,5c0e94f62932300001e2e0d3,61bbc5c79a1c66460f44041e,61bbc604840f93381668c987,,,,,,-70,44.5,1,0,0,response7disk,0.7731,-17,6.5,1,0,0,rectangle,-17,6.5,1,0,0,2,-2,"[63,6,48,16,68,9,68,66,47,64]",-17,6.5,1,0,0,1,71,152,40,1,DarkBlue,DarkBlue.jpg,Pink,Pink.jpg,,
,,,,,,,,,,,,,,,,,,-4,,,,,,,,,,,,,,,,,,,,,,,,,,,5c0e94f62932300001e2e0d3,001,2021-12-17_24h08.55.352,jm_natural_scene_simialrity_2-12-2021_version2,2021.2.3,Win32,59.78358343,5c0e94f62932300001e2e0d3,61bbc5c79a1c66460f44041e,61bbc604840f93381668c987,,,,,,-29,50.5,1,0,0,response7disk,1.0652,4,4.5,1,0,0,rectangle,4,4.5,1,0,0,2,3,"[63,6,48,16,68,9,68,66,47,64]",4,4.5,1,0,0,1,72,153,61,1,Turquiose,Turquiose.jpg,LightGreen,LightGreen.jpg,,
,,,,,,,,,,,,,,,,,,-2,,,,,,,,,,,,,,,,,,,,,,,,,,,5c0e94f62932300001e2e0d3,001,2021-12-17_24h08.55.352,jm_natural_scene_simialrity_2-12-2021_version2,2021.2.3,Win32,59.78358343,5c0e94f62932300001e2e0d3,61bbc5c79a1c66460f44041e,61bbc604840f93381668c987,,,,,,-57,-24.5,1,0,0,response5disk,0.683,13,2.5,1,0,0,rectangle,13,2.5,1,0,0,2,-4,"[63,6,48,16,68,9,68,66,47,64]",13,2.5,1,0,0,1,73,154,62,1,LightBlue,LightBlue.jpg,LightGreen,LightGreen.jpg,,
,,,,,,,,,,,,,,,,,,-3,,,,,,,,,,,,,,,,,,,,,,,,,,,5c0e94f62932300001e2e0d3,001,2021-12-17_24h08.55.352,jm_natural_scene_simialrity_2-12-2021_version2,2021.2.3,Win32,59.78358343,5c0e94f62932300001e2e0d3,61bbc5c79a1c66460f44041e,61bbc604840f93381668c987,,,,,,-51,42.5,1,0,0,response7disk,0.8325,-18,17.5,1,0,0,rectangle,-18,17.5,1,0,0,-3,-2,"[63,6,48,16,68,9,68,66,47,64]",-18,17.5,1,0,0,1,74,155,63,1,DarkBlue,DarkBlue.jpg,LightGreen,LightGreen.jpg,,
,,,,,,,,,,,,,,,,,,-4,,,,,,,,,,,,,,,,,,,,,,,,,,,5c0e94f62932300001e2e0d3,001,2021-12-17_24h08.55.352,jm_natural_scene_simialrity_2-12-2021_version2,2021.2.3,Win32,59.78358343,5c0e94f62932300001e2e0d3,61bbc5c79a1c66460f44041e,61bbc604840f93381668c987,,,,,,-34,51.5,1,0,0,response7disk,0.6504,-19,5.5,1,0,0,rectangle,-19,5.5,1,0,0,-3,-1,"[63,6,48,16,68,9,68,66,47,64]",-19,5.5,1,0,0,1,75,156,8,1,Red,Red.jpg,Purple,Purple.jpg,,
,,,,,,,,,,,,,,,,,,-2,,,,,,,,,,,,,,,,,,,,,,,,,,,5c0e94f62932300001e2e0d3,001,2021-12-17_24h08.55.352,jm_natural_scene_simialrity_2-12-2021_version2,2021.2.3,Win32,59.78358343,5c0e94f62932300001e2e0d3,61bbc5c79a1c66460f44041e,61bbc604840f93381668c987,,,,,,-71,-38.5,1,0,0,response5disk,0.8327,-12,-8.5,1,0,0,rectangle,-12,-8.5,1,0,0,-3,3,"[63,6,48,16,68,9,68,66,47,64]",-12,-8.5,1,0,0,1,76,157,23,1,LightGreen,LightGreen.jpg,Purple,Purple.jpg,,
,,,,,,,,,,,,,,,,,,-3,,,,,,,,,,,,,,,,,,,,,,,,,,,5c0e94f62932300001e2e0d3,001,2021-12-17_24h08.55.352,jm_natural_scene_simialrity_2-12-2021_version2,2021.2.3,Win32,59.78358343,5c0e94f62932300001e2e0d3,61bbc5c79a1c66460f44041e,61bbc604840f93381668c987,,,,,,-62,35.5,1,0,0,response7disk,0.7829,-11,12.5,1,0,0,rectangle,-11,12.5,1,0,0,-3,-3,"[63,6,48,16,68,9,68,66,47,64]",-11,12.5,1,0,0,1,77,158,75,1,DarkBlue,DarkBlue.jpg,LightBlue,LightBlue.jpg,,
,,,,,,,,,,,,,,,,,,4,,,,,,,,,,,,,,,,,,,,,,,,,,,5c0e94f62932300001e2e0d3,001,2021-12-17_24h08.55.352,jm_natural_scene_simialrity_2-12-2021_version2,2021.2.3,Win32,59.78358343,5c0e94f62932300001e2e0d3,61bbc5c79a1c66460f44041e,61bbc604840f93381668c987,,,,,,34,56.5,1,0,0,response1disk,1.2822,-5,-3.5,1,0,0,rectangle,-5,-3.5,1,0,0,-3,-3,"[63,6,48,16,68,9,68,66,47,64]",-5,-3.5,1,0,0,1,78,159,60,1,DarkGreen,DarkGreen.jpg,LightGreen,LightGreen.jpg,,
,,,,,,,,,,,,,,,,,,4,,,,,,,,,,,,,,,,,,,,,,,,,,,5c0e94f62932300001e2e0d3,001,2021-12-17_24h08.55.352,jm_natural_scene_simialrity_2-12-2021_version2,2021.2.3,Win32,59.78358343,5c0e94f62932300001e2e0d3,61bbc5c79a1c66460f44041e,61bbc604840f93381668c987,,,,,,55,57.5,1,0,0,response1disk,1.7515,3,-12.5,1,0,0,rectangle,3,-12.5,1,0,0,-3,-1,"[63,6,48,16,68,9,68,66,47,64]",3,-12.5,1,0,0,1,79,160,7,1,Red,Red.jpg,Pink,Pink.jpg,,
,,,,,,,,,,,,,,,,,,-2,,,,,,,,,,,,,,,,,,,,,,,,,,,5c0e94f62932300001e2e0d3,001,2021-12-17_24h08.55.352,jm_natural_scene_simialrity_2-12-2021_version2,2021.2.3,Win32,59.78358343,5c0e94f62932300001e2e0d3,61bbc5c79a1c66460f44041e,61bbc604840f93381668c987,,,,,,-47,-33.5,1,0,0,response5disk,1.1336,-3,-10.5,1,0,0,rectangle,-3,-10.5,1,0,0,-3,2,"[63,6,48,16,68,9,68,66,47,64]",-3,-10.5,1,0,0,1,80,161,16,1,Yellow,Yellow.jpg,Purple,Purple.jpg,,
