key_resp.keys,key_resp.rt,key_resp_16.keys,key_resp_16.rt,key_resp_2.keys,key_resp_2.rt,key_resp_3.keys,key_resp_3.rt,key_resp_19.keys,key_resp_19.rt,key_resp_10.keys,key_resp_10.rt,mouse_prac.x,mouse_prac.y,mouse_prac.leftButton,mouse_prac.midButton,mouse_prac.rightButton,mouse_prac.clicked_name,similarity,mouse_10.x,mouse_10.y,mouse_10.leftButton,mouse_10.midButton,mouse_10.rightButton,mouse_10.clicked_name,mouse_catch_prac.x,mouse_catch_prac.y,mouse_catch_prac.leftButton,mouse_catch_prac.midButton,mouse_catch_prac.rightButton,catchnumberprac,mouse_6.x,mouse_6.y,mouse_6.leftButton,mouse_6.midButton,mouse_6.rightButton,during_prac.thisRepN,during_prac.thisTrialN,during_prac.thisN,during_prac.thisIndex,during_prac.ran,trailimage1,trial1adress,trailimage2,trial2adress,participant,session,date,expName,psychopyVersion,OS,frameRate,PROLIFIC_PID,STUDY_ID,SESSION_ID,mouse_catch_prac.clicked_name,catchprac,mouse_6.clicked_name,key_resp_22.keys,key_resp_22.rt,mouse.x,mouse.y,mouse.leftButton,mouse.midButton,mouse.rightButton,mouse.clicked_name,response_time,mouse_2.x,mouse_2.y,mouse_2.leftButton,mouse_2.midButton,mouse_2.rightButton,mouse_2.clicked_name,mouse_3.x,mouse_3.y,mouse_3.leftButton,mouse_3.midButton,mouse_3.rightButton,catchresponse,catchnumber,catchtrialorder,mouse_11.x,mouse_11.y,mouse_11.leftButton,mouse_11.midButton,mouse_11.rightButton,trials_2.thisRepN,trials_2.thisTrialN,trials_2.thisN,trials_2.thisIndex,trials_2.ran,image1,image1adress,image2,image2adress,mouse_3.clicked_name,mouse_11.clicked_name
space,2.1716,space,4.483,space,5.9845,space,11.0439,space,20.9326,space,8.1576,51,93,1,0,0,response1disk_5,4,3,-2,1,0,0,rectangle_8,3,-2,1,0,0,-4,3,-2,1,0,0,0,0,0,0,1,trail1,trail1.jpg,trail1,trail1.jpg,5fc6bcbc6da34d0f8dd78a3a,001,2021-12-17_01h15.35.018,jm_natural_scene_simialrity_2-12-2021_version2,2021.2.3,Win32,59.90893841,5fc6bcbc6da34d0f8dd78a3a,61bbc5c79a1c66460f44041e,61bbd68e5cdb9f6c15099ffb,,,,,,,,,,,,,,,,,,,,,,,,,,,,,,,,,,,,,,,,,,
,,,,,,,,,,,,58,101,1,0,0,response1disk_5,4,2,-5,1,0,0,rectangle_8,-42,101,1,0,0,-4,2,7,1,0,0,0,1,1,3,1,trail2,trail2.jpg,trail2,trail2.jpg,5fc6bcbc6da34d0f8dd78a3a,001,2021-12-17_01h15.35.018,jm_natural_scene_simialrity_2-12-2021_version2,2021.2.3,Win32,59.90893841,5fc6bcbc6da34d0f8dd78a3a,61bbc5c79a1c66460f44041e,61bbd68e5cdb9f6c15099ffb,response7disk_7,-4,rectangle_4,,,,,,,,,,,,,,,,,,,,,,,,,,,,,,,,,,,,,,,
,,,,,,,,,,,,-41,88,1,0,0,response7disk_5,-4,2,6,1,0,0,rectangle_8,2,6,1,0,0,-4,2,6,1,0,0,0,2,2,4,1,trail2,trail2.jpg,trail3,trail3.jpg,5fc6bcbc6da34d0f8dd78a3a,001,2021-12-17_01h15.35.018,jm_natural_scene_simialrity_2-12-2021_version2,2021.2.3,Win32,59.90893841,5fc6bcbc6da34d0f8dd78a3a,61bbc5c79a1c66460f44041e,61bbd68e5cdb9f6c15099ffb,,,,,,,,,,,,,,,,,,,,,,,,,,,,,,,,,,,,,,,,,,
,,,,,,,,,,,,58,94,1,0,0,response1disk_5,4,1,-1,1,0,0,rectangle_8,-48,92,1,0,0,-4,-3,2,1,0,0,0,3,3,5,1,trail3,trail3.jpg,trail3,trail3.jpg,5fc6bcbc6da34d0f8dd78a3a,001,2021-12-17_01h15.35.018,jm_natural_scene_simialrity_2-12-2021_version2,2021.2.3,Win32,59.90893841,5fc6bcbc6da34d0f8dd78a3a,61bbc5c79a1c66460f44041e,61bbd68e5cdb9f6c15099ffb,response7disk_7,-4,rectangle_4,,,,,,,,,,,,,,,,,,,,,,,,,,,,,,,,,,,,,,,
,,,,,,,,,,,,-95,-38,1,0,0,response5disk_5,-2,7,-11,1,0,0,rectangle_8,7,-11,1,0,0,-4,7,-11,1,0,0,0,4,4,1,1,trail1,trail1.jpg,trail2,trail2.jpg,5fc6bcbc6da34d0f8dd78a3a,001,2021-12-17_01h15.35.018,jm_natural_scene_simialrity_2-12-2021_version2,2021.2.3,Win32,59.90893841,5fc6bcbc6da34d0f8dd78a3a,61bbc5c79a1c66460f44041e,61bbd68e5cdb9f6c15099ffb,,,,,,,,,,,,,,,,,,,,,,,,,,,,,,,,,,,,,,,,,,
,,,,,,,,,,,,-51,-91,1,0,0,response5disk_5,-1,-2,2,1,0,0,rectangle_8,-2,2,1,0,0,-4,-2,2,1,0,0,0,5,5,2,1,trail1,trail1.jpg,trail3,trail3.jpg,5fc6bcbc6da34d0f8dd78a3a,001,2021-12-17_01h15.35.018,jm_natural_scene_simialrity_2-12-2021_version2,2021.2.3,Win32,59.90893841,5fc6bcbc6da34d0f8dd78a3a,61bbc5c79a1c66460f44041e,61bbd68e5cdb9f6c15099ffb,,,,,,,,,,,,,,,,,,,,,,,,,,,,,,,,,,,,,,,,,,
,,,,,,,,,,,,,,,,,,-4,,,,,,,,,,,,,,,,,,,,,,,,,,,5fc6bcbc6da34d0f8dd78a3a,001,2021-12-17_01h15.35.018,jm_natural_scene_simialrity_2-12-2021_version2,2021.2.3,Win32,59.90893841,5fc6bcbc6da34d0f8dd78a3a,61bbc5c79a1c66460f44041e,61bbd68e5cdb9f6c15099ffb,,,,space,1.8167,-34,94,1,0,0,response7disk,2.1311,7,-5,1,0,0,rectangle,7,-5,1,0,0,,-4,"[34,97,159,134,143,131,13,135,37,108]",7,-5,1,0,0,0,0,0,61,1,Turquiose,Turquiose.jpg,LightGreen,LightGreen.jpg,,
,,,,,,,,,,,,,,,,,,-4,,,,,,,,,,,,,,,,,,,,,,,,,,,5fc6bcbc6da34d0f8dd78a3a,001,2021-12-17_01h15.35.018,jm_natural_scene_simialrity_2-12-2021_version2,2021.2.3,Win32,59.90893841,5fc6bcbc6da34d0f8dd78a3a,61bbc5c79a1c66460f44041e,61bbd68e5cdb9f6c15099ffb,,,,,,-64,108,1,0,0,response7disk,1.3671,3,1,1,0,0,rectangle,3,1,1,0,0,,2,"[34,97,159,134,143,131,13,135,37,108]",3,1,1,0,0,0,1,1,54,1,DarkGreen,DarkGreen.jpg,Yellow,Yellow.jpg,,
,,,,,,,,,,,,,,,,,,-3,,,,,,,,,,,,,,,,,,,,,,,,,,,5fc6bcbc6da34d0f8dd78a3a,001,2021-12-17_01h15.35.018,jm_natural_scene_simialrity_2-12-2021_version2,2021.2.3,Win32,59.90893841,5fc6bcbc6da34d0f8dd78a3a,61bbc5c79a1c66460f44041e,61bbd68e5cdb9f6c15099ffb,,,,,,-74,50,1,0,0,response7disk,2.4332,5,-5,1,0,0,rectangle,5,-5,1,0,0,,-3,"[34,97,159,134,143,131,13,135,37,108]",5,-5,1,0,0,0,2,2,16,1,Yellow,Yellow.jpg,Purple,Purple.jpg,,
,,,,,,,,,,,,,,,,,,2,,,,,,,,,,,,,,,,,,,,,,,,,,,5fc6bcbc6da34d0f8dd78a3a,001,2021-12-17_01h15.35.018,jm_natural_scene_simialrity_2-12-2021_version2,2021.2.3,Win32,59.90893841,5fc6bcbc6da34d0f8dd78a3a,61bbc5c79a1c66460f44041e,61bbd68e5cdb9f6c15099ffb,,,,,,100,-54,1,0,0,response3disk,1.6827,2,-5,1,0,0,rectangle,2,-5,1,0,0,,-2,"[34,97,159,134,143,131,13,135,37,108]",2,-5,1,0,0,0,3,3,77,1,Purple,Purple.jpg,LightBlue,LightBlue.jpg,,
,,,,,,,,,,,,,,,,,,-2,,,,,,,,,,,,,,,,,,,,,,,,,,,5fc6bcbc6da34d0f8dd78a3a,001,2021-12-17_01h15.35.018,jm_natural_scene_simialrity_2-12-2021_version2,2021.2.3,Win32,59.90893841,5fc6bcbc6da34d0f8dd78a3a,61bbc5c79a1c66460f44041e,61bbd68e5cdb9f6c15099ffb,,,,,,-79,-45,1,0,0,response5disk,1.6999,-14,-3,1,0,0,rectangle,-14,-3,1,0,0,,3,"[34,97,159,134,143,131,13,135,37,108]",-14,-3,1,0,0,0,4,4,26,1,DarkGreen,DarkGreen.jpg,LightBlue,LightBlue.jpg,,
,,,,,,,,,,,,,,,,,,-4,,,,,,,,,,,,,,,,,,,,,,,,,,,5fc6bcbc6da34d0f8dd78a3a,001,2021-12-17_01h15.35.018,jm_natural_scene_simialrity_2-12-2021_version2,2021.2.3,Win32,59.90893841,5fc6bcbc6da34d0f8dd78a3a,61bbc5c79a1c66460f44041e,61bbd68e5cdb9f6c15099ffb,,,,,,-41,92,1,0,0,response7disk,2.3171,10,-24,1,0,0,rectangle,10,-24,1,0,0,,2,"[34,97,159,134,143,131,13,135,37,108]",10,-24,1,0,0,0,5,5,69,1,Pink,Pink.jpg,DarkGreen,DarkGreen.jpg,,
,,,,,,,,,,,,,,,,,,-1,,,,,,,,,,,,,,,,,,,,,,,,,,,5fc6bcbc6da34d0f8dd78a3a,001,2021-12-17_01h15.35.018,jm_natural_scene_simialrity_2-12-2021_version2,2021.2.3,Win32,59.90893841,5fc6bcbc6da34d0f8dd78a3a,61bbc5c79a1c66460f44041e,61bbd68e5cdb9f6c15099ffb,,,,,,-42,-91,1,0,0,response5disk,1.4503,6,7,1,0,0,rectangle,6,7,1,0,0,,-4,"[34,97,159,134,143,131,13,135,37,108]",6,7,1,0,0,0,6,6,5,1,Red,Red.jpg,LightBlue,LightBlue.jpg,,
,,,,,,,,,,,,,,,,,,1,,,,,,,,,,,,,,,,,,,,,,,,,,,5fc6bcbc6da34d0f8dd78a3a,001,2021-12-17_01h15.35.018,jm_natural_scene_simialrity_2-12-2021_version2,2021.2.3,Win32,59.90893841,5fc6bcbc6da34d0f8dd78a3a,61bbc5c79a1c66460f44041e,61bbd68e5cdb9f6c15099ffb,,,,,,47,-91,1,0,0,response3disk,1.2667,2,-8,1,0,0,rectangle,2,-8,1,0,0,,3,"[34,97,159,134,143,131,13,135,37,108]",2,-8,1,0,0,0,7,7,43,1,Pink,Pink.jpg,Purple,Purple.jpg,,
,,,,,,,,,,,,,,,,,,4,,,,,,,,,,,,,,,,,,,,,,,,,,,5fc6bcbc6da34d0f8dd78a3a,001,2021-12-17_01h15.35.018,jm_natural_scene_simialrity_2-12-2021_version2,2021.2.3,Win32,59.90893841,5fc6bcbc6da34d0f8dd78a3a,61bbc5c79a1c66460f44041e,61bbd68e5cdb9f6c15099ffb,,,,,,20,107,1,0,0,response1disk,1.4336,-2,-2,1,0,0,rectangle,-2,-2,1,0,0,,-2,"[34,97,159,134,143,131,13,135,37,108]",-2,-2,1,0,0,0,8,8,0,1,Red,Red.jpg,Red,Red.jpg,,
,,,,,,,,,,,,,,,,,,-4,,,,,,,,,,,,,,,,,,,,,,,,,,,5fc6bcbc6da34d0f8dd78a3a,001,2021-12-17_01h15.35.018,jm_natural_scene_simialrity_2-12-2021_version2,2021.2.3,Win32,59.90893841,5fc6bcbc6da34d0f8dd78a3a,61bbc5c79a1c66460f44041e,61bbd68e5cdb9f6c15099ffb,,,,,,-47,72,1,0,0,response7disk,1.9504,3,10,1,0,0,rectangle,3,10,1,0,0,,-2,"[34,97,159,134,143,131,13,135,37,108]",3,10,1,0,0,0,9,9,28,1,DarkGreen,DarkGreen.jpg,Pink,Pink.jpg,,
,,,,,,,,,,,,,,,,,,1,,,,,,,,,,,,,,,,,,,,,,,,,,,5fc6bcbc6da34d0f8dd78a3a,001,2021-12-17_01h15.35.018,jm_natural_scene_simialrity_2-12-2021_version2,2021.2.3,Win32,59.90893841,5fc6bcbc6da34d0f8dd78a3a,61bbc5c79a1c66460f44041e,61bbd68e5cdb9f6c15099ffb,,,,,,52,-91,1,0,0,response3disk,2.7839,3,1,1,0,0,rectangle,3,1,1,0,0,,-1,"[34,97,159,134,143,131,13,135,37,108]",3,1,1,0,0,0,10,10,32,1,Turquiose,Turquiose.jpg,DarkBlue,DarkBlue.jpg,,
,,,,,,,,,,,,,,,,,,-3,,,,,,,,,,,,,,,,,,,,,,,,,,,5fc6bcbc6da34d0f8dd78a3a,001,2021-12-17_01h15.35.018,jm_natural_scene_simialrity_2-12-2021_version2,2021.2.3,Win32,59.90893841,5fc6bcbc6da34d0f8dd78a3a,61bbc5c79a1c66460f44041e,61bbd68e5cdb9f6c15099ffb,,,,,,-72,35,1,0,0,response7disk,1.4167,-4,2,1,0,0,rectangle,-4,2,1,0,0,,-1,"[34,97,159,134,143,131,13,135,37,108]",-4,2,1,0,0,0,11,11,33,1,Turquiose,Turquiose.jpg,Pink,Pink.jpg,,
,,,,,,,,,,,,,,,,,,2,,,,,,,,,,,,,,,,,,,,,,,,,,,5fc6bcbc6da34d0f8dd78a3a,001,2021-12-17_01h15.35.018,jm_natural_scene_simialrity_2-12-2021_version2,2021.2.3,Win32,59.90893841,5fc6bcbc6da34d0f8dd78a3a,61bbc5c79a1c66460f44041e,61bbd68e5cdb9f6c15099ffb,,,,,,85,-40,1,0,0,response3disk,1.1167,18,-2,1,0,0,rectangle,-42,109,1,0,0,-4,-4,"[34,97,159,134,143,131,13,135,37,108]",6,9,1,0,0,0,12,12,52,1,Purple,Purple.jpg,Red,Red.jpg,response7disk_3,rectangle
,,,,,,,,,,,,,,,,,,-1,,,,,,,,,,,,,,,,,,,,,,,,,,,5fc6bcbc6da34d0f8dd78a3a,001,2021-12-17_01h15.35.018,jm_natural_scene_simialrity_2-12-2021_version2,2021.2.3,Win32,59.90893841,5fc6bcbc6da34d0f8dd78a3a,61bbc5c79a1c66460f44041e,61bbd68e5cdb9f6c15099ffb,,,,,,-51,-100,1,0,0,response5disk,1.8168,3,-17,1,0,0,rectangle,3,-17,1,0,0,-4,3,"[34,97,159,134,143,131,13,135,37,108]",3,-17,1,0,0,0,13,13,76,1,Pink,Pink.jpg,LightBlue,LightBlue.jpg,,
,,,,,,,,,,,,,,,,,,2,,,,,,,,,,,,,,,,,,,,,,,,,,,5fc6bcbc6da34d0f8dd78a3a,001,2021-12-17_01h15.35.018,jm_natural_scene_simialrity_2-12-2021_version2,2021.2.3,Win32,59.90893841,5fc6bcbc6da34d0f8dd78a3a,61bbc5c79a1c66460f44041e,61bbd68e5cdb9f6c15099ffb,,,,,,89,-52,1,0,0,response3disk,1.0332,-3,4,1,0,0,rectangle,-3,4,1,0,0,-4,2,"[34,97,159,134,143,131,13,135,37,108]",-3,4,1,0,0,0,14,14,71,1,LightBlue,LightBlue.jpg,Turquiose,Turquiose.jpg,,
,,,,,,,,,,,,,,,,,,-2,,,,,,,,,,,,,,,,,,,,,,,,,,,5fc6bcbc6da34d0f8dd78a3a,001,2021-12-17_01h15.35.018,jm_natural_scene_simialrity_2-12-2021_version2,2021.2.3,Win32,59.90893841,5fc6bcbc6da34d0f8dd78a3a,61bbc5c79a1c66460f44041e,61bbd68e5cdb9f6c15099ffb,,,,,,-78,-32,1,0,0,response5disk,1.1168,-4,0,1,0,0,rectangle,-4,0,1,0,0,-4,2,"[34,97,159,134,143,131,13,135,37,108]",-4,0,1,0,0,0,15,15,59,1,Purple,Purple.jpg,Yellow,Yellow.jpg,,
,,,,,,,,,,,,,,,,,,4,,,,,,,,,,,,,,,,,,,,,,,,,,,5fc6bcbc6da34d0f8dd78a3a,001,2021-12-17_01h15.35.018,jm_natural_scene_simialrity_2-12-2021_version2,2021.2.3,Win32,59.90893841,5fc6bcbc6da34d0f8dd78a3a,61bbc5c79a1c66460f44041e,61bbd68e5cdb9f6c15099ffb,,,,,,42,109,1,0,0,response1disk,0.7335,-7,-7,1,0,0,rectangle,-7,-7,1,0,0,-4,-3,"[34,97,159,134,143,131,13,135,37,108]",-7,-7,1,0,0,0,16,16,24,1,DarkGreen,DarkGreen.jpg,DarkGreen,DarkGreen.jpg,,
,,,,,,,,,,,,,,,,,,3,,,,,,,,,,,,,,,,,,,,,,,,,,,5fc6bcbc6da34d0f8dd78a3a,001,2021-12-17_01h15.35.018,jm_natural_scene_simialrity_2-12-2021_version2,2021.2.3,Win32,59.90893841,5fc6bcbc6da34d0f8dd78a3a,61bbc5c79a1c66460f44041e,61bbd68e5cdb9f6c15099ffb,,,,,,91,46,1,0,0,response1disk,1.1503,-10,-5,1,0,0,rectangle,-10,-5,1,0,0,-4,-2,"[34,97,159,134,143,131,13,135,37,108]",-10,-5,1,0,0,0,17,17,38,1,LightBlue,LightBlue.jpg,Purple,Purple.jpg,,
,,,,,,,,,,,,,,,,,,-3,,,,,,,,,,,,,,,,,,,,,,,,,,,5fc6bcbc6da34d0f8dd78a3a,001,2021-12-17_01h15.35.018,jm_natural_scene_simialrity_2-12-2021_version2,2021.2.3,Win32,59.90893841,5fc6bcbc6da34d0f8dd78a3a,61bbc5c79a1c66460f44041e,61bbd68e5cdb9f6c15099ffb,,,,,,-62,30,1,0,0,response7disk,1.5836,13,6,1,0,0,rectangle,13,6,1,0,0,-4,-2,"[34,97,159,134,143,131,13,135,37,108]",13,6,1,0,0,0,18,18,55,1,Turquiose,Turquiose.jpg,Yellow,Yellow.jpg,,
,,,,,,,,,,,,,,,,,,-3,,,,,,,,,,,,,,,,,,,,,,,,,,,5fc6bcbc6da34d0f8dd78a3a,001,2021-12-17_01h15.35.018,jm_natural_scene_simialrity_2-12-2021_version2,2021.2.3,Win32,59.90893841,5fc6bcbc6da34d0f8dd78a3a,61bbc5c79a1c66460f44041e,61bbd68e5cdb9f6c15099ffb,,,,,,-86,42,1,0,0,response7disk,1.35,-11,1,1,0,0,rectangle,-11,1,1,0,0,-4,2,"[34,97,159,134,143,131,13,135,37,108]",-11,1,1,0,0,0,19,19,64,1,Pink,Pink.jpg,LightGreen,LightGreen.jpg,,
,,,,,,,,,,,,,,,,,,1,,,,,,,,,,,,,,,,,,,,,,,,,,,5fc6bcbc6da34d0f8dd78a3a,001,2021-12-17_01h15.35.018,jm_natural_scene_simialrity_2-12-2021_version2,2021.2.3,Win32,59.90893841,5fc6bcbc6da34d0f8dd78a3a,61bbc5c79a1c66460f44041e,61bbd68e5cdb9f6c15099ffb,,,,,,51,-94,1,0,0,response3disk,1.4503,-10,-8,1,0,0,rectangle,-10,-8,1,0,0,-4,-4,"[34,97,159,134,143,131,13,135,37,108]",-10,-8,1,0,0,0,20,20,8,1,Red,Red.jpg,Purple,Purple.jpg,,
,,,,,,,,,,,,,,,,,,2,,,,,,,,,,,,,,,,,,,,,,,,,,,5fc6bcbc6da34d0f8dd78a3a,001,2021-12-17_01h15.35.018,jm_natural_scene_simialrity_2-12-2021_version2,2021.2.3,Win32,59.90893841,5fc6bcbc6da34d0f8dd78a3a,61bbc5c79a1c66460f44041e,61bbd68e5cdb9f6c15099ffb,,,,,,104,-33,1,0,0,response3disk,1.3166,-1,5,1,0,0,rectangle,-1,5,1,0,0,-4,-4,"[34,97,159,134,143,131,13,135,37,108]",-1,5,1,0,0,0,21,21,36,1,LightBlue,LightBlue.jpg,DarkBlue,DarkBlue.jpg,,
,,,,,,,,,,,,,,,,,,3,,,,,,,,,,,,,,,,,,,,,,,,,,,5fc6bcbc6da34d0f8dd78a3a,001,2021-12-17_01h15.35.018,jm_natural_scene_simialrity_2-12-2021_version2,2021.2.3,Win32,59.90893841,5fc6bcbc6da34d0f8dd78a3a,61bbc5c79a1c66460f44041e,61bbd68e5cdb9f6c15099ffb,,,,,,107,47,1,0,0,response1disk,1.2499,-21,-2,1,0,0,rectangle,-21,-2,1,0,0,-4,-1,"[34,97,159,134,143,131,13,135,37,108]",-21,-2,1,0,0,0,22,22,60,1,DarkGreen,DarkGreen.jpg,LightGreen,LightGreen.jpg,,
,,,,,,,,,,,,,,,,,,1,,,,,,,,,,,,,,,,,,,,,,,,,,,5fc6bcbc6da34d0f8dd78a3a,001,2021-12-17_01h15.35.018,jm_natural_scene_simialrity_2-12-2021_version2,2021.2.3,Win32,59.90893841,5fc6bcbc6da34d0f8dd78a3a,61bbc5c79a1c66460f44041e,61bbd68e5cdb9f6c15099ffb,,,,,,54,-83,1,0,0,response3disk,1.8837,7,-18,1,0,0,rectangle,7,-18,1,0,0,-4,-1,"[34,97,159,134,143,131,13,135,37,108]",7,-18,1,0,0,0,23,23,29,1,DarkGreen,DarkGreen.jpg,Purple,Purple.jpg,,
,,,,,,,,,,,,,,,,,,1,,,,,,,,,,,,,,,,,,,,,,,,,,,5fc6bcbc6da34d0f8dd78a3a,001,2021-12-17_01h15.35.018,jm_natural_scene_simialrity_2-12-2021_version2,2021.2.3,Win32,59.90893841,5fc6bcbc6da34d0f8dd78a3a,61bbc5c79a1c66460f44041e,61bbd68e5cdb9f6c15099ffb,,,,,,48,-93,1,0,0,response3disk,1.5666,-7,-7,1,0,0,rectangle,-7,-7,1,0,0,-4,3,"[34,97,159,134,143,131,13,135,37,108]",-7,-7,1,0,0,0,24,24,15,1,Yellow,Yellow.jpg,Pink,Pink.jpg,,
,,,,,,,,,,,,,,,,,,2,,,,,,,,,,,,,,,,,,,,,,,,,,,5fc6bcbc6da34d0f8dd78a3a,001,2021-12-17_01h15.35.018,jm_natural_scene_simialrity_2-12-2021_version2,2021.2.3,Win32,59.90893841,5fc6bcbc6da34d0f8dd78a3a,61bbc5c79a1c66460f44041e,61bbd68e5cdb9f6c15099ffb,,,,,,99,-52,1,0,0,response3disk,1.1169,-1,2,1,0,0,rectangle,-1,2,1,0,0,-4,-4,"[34,97,159,134,143,131,13,135,37,108]",-1,2,1,0,0,0,25,25,74,1,Purple,Purple.jpg,Turquiose,Turquiose.jpg,,
,,,,,,,,,,,,,,,,,,4,,,,,,,,,,,,,,,,,,,,,,,,,,,5fc6bcbc6da34d0f8dd78a3a,001,2021-12-17_01h15.35.018,jm_natural_scene_simialrity_2-12-2021_version2,2021.2.3,Win32,59.90893841,5fc6bcbc6da34d0f8dd78a3a,61bbc5c79a1c66460f44041e,61bbd68e5cdb9f6c15099ffb,,,,,,73,94,1,0,0,response1disk,0.8335,5,-21,1,0,0,rectangle,5,-21,1,0,0,-4,-3,"[34,97,159,134,143,131,13,135,37,108]",5,-21,1,0,0,0,26,26,44,1,Purple,Purple.jpg,Purple,Purple.jpg,,
,,,,,,,,,,,,,,,,,,-1,,,,,,,,,,,,,,,,,,,,,,,,,,,5fc6bcbc6da34d0f8dd78a3a,001,2021-12-17_01h15.35.018,jm_natural_scene_simialrity_2-12-2021_version2,2021.2.3,Win32,59.90893841,5fc6bcbc6da34d0f8dd78a3a,61bbc5c79a1c66460f44041e,61bbd68e5cdb9f6c15099ffb,,,,,,-35,-78,1,0,0,response5disk,3.8002,1,-9,1,0,0,rectangle,1,-9,1,0,0,-4,-2,"[34,97,159,134,143,131,13,135,37,108]",1,-9,1,0,0,0,27,27,37,1,LightBlue,LightBlue.jpg,Pink,Pink.jpg,,
,,,,,,,,,,,,,,,,,,2,,,,,,,,,,,,,,,,,,,,,,,,,,,5fc6bcbc6da34d0f8dd78a3a,001,2021-12-17_01h15.35.018,jm_natural_scene_simialrity_2-12-2021_version2,2021.2.3,Win32,59.90893841,5fc6bcbc6da34d0f8dd78a3a,61bbc5c79a1c66460f44041e,61bbd68e5cdb9f6c15099ffb,,,,,,87,-68,1,0,0,response3disk,1.7336,-4,1,1,0,0,rectangle,-4,1,1,0,0,-4,-2,"[34,97,159,134,143,131,13,135,37,108]",-4,1,1,0,0,0,28,28,31,1,Turquiose,Turquiose.jpg,LightBlue,LightBlue.jpg,,
,,,,,,,,,,,,,,,,,,3,,,,,,,,,,,,,,,,,,,,,,,,,,,5fc6bcbc6da34d0f8dd78a3a,001,2021-12-17_01h15.35.018,jm_natural_scene_simialrity_2-12-2021_version2,2021.2.3,Win32,59.90893841,5fc6bcbc6da34d0f8dd78a3a,61bbc5c79a1c66460f44041e,61bbd68e5cdb9f6c15099ffb,,,,,,79,35,1,0,0,response1disk,0.8503,-3,2,1,0,0,rectangle,-3,2,1,0,0,-4,-2,"[34,97,159,134,143,131,13,135,37,108]",-3,2,1,0,0,0,29,29,75,1,DarkBlue,DarkBlue.jpg,LightBlue,LightBlue.jpg,,
,,,,,,,,,,,,,,,,,,2,,,,,,,,,,,,,,,,,,,,,,,,,,,5fc6bcbc6da34d0f8dd78a3a,001,2021-12-17_01h15.35.018,jm_natural_scene_simialrity_2-12-2021_version2,2021.2.3,Win32,59.90893841,5fc6bcbc6da34d0f8dd78a3a,61bbc5c79a1c66460f44041e,61bbd68e5cdb9f6c15099ffb,,,,,,109,-68,1,0,0,response3disk,1.6337,-11,-2,1,0,0,rectangle,-11,-2,1,0,0,-4,1,"[34,97,159,134,143,131,13,135,37,108]",-11,-2,1,0,0,0,30,30,58,1,Pink,Pink.jpg,Yellow,Yellow.jpg,,
,,,,,,,,,,,,,,,,,,-2,,,,,,,,,,,,,,,,,,,,,,,,,,,5fc6bcbc6da34d0f8dd78a3a,001,2021-12-17_01h15.35.018,jm_natural_scene_simialrity_2-12-2021_version2,2021.2.3,Win32,59.90893841,5fc6bcbc6da34d0f8dd78a3a,61bbc5c79a1c66460f44041e,61bbd68e5cdb9f6c15099ffb,,,,,,-97,-58,1,0,0,response5disk,1.3502,0,-11,1,0,0,rectangle,0,-11,1,0,0,-4,2,"[34,97,159,134,143,131,13,135,37,108]",0,-11,1,0,0,0,31,31,57,1,DarkBlue,DarkBlue.jpg,Yellow,Yellow.jpg,,
,,,,,,,,,,,,,,,,,,2,,,,,,,,,,,,,,,,,,,,,,,,,,,5fc6bcbc6da34d0f8dd78a3a,001,2021-12-17_01h15.35.018,jm_natural_scene_simialrity_2-12-2021_version2,2021.2.3,Win32,59.90893841,5fc6bcbc6da34d0f8dd78a3a,61bbc5c79a1c66460f44041e,61bbd68e5cdb9f6c15099ffb,,,,,,89,-52,1,0,0,response3disk,1.2668,17,-9,1,0,0,rectangle,17,-9,1,0,0,-4,1,"[34,97,159,134,143,131,13,135,37,108]",17,-9,1,0,0,0,32,32,34,1,Turquiose,Turquiose.jpg,Purple,Purple.jpg,,
,,,,,,,,,,,,,,,,,,-1,,,,,,,,,,,,,,,,,,,,,,,,,,,5fc6bcbc6da34d0f8dd78a3a,001,2021-12-17_01h15.35.018,jm_natural_scene_simialrity_2-12-2021_version2,2021.2.3,Win32,59.90893841,5fc6bcbc6da34d0f8dd78a3a,61bbc5c79a1c66460f44041e,61bbd68e5cdb9f6c15099ffb,,,,,,-44,-79,1,0,0,response5disk,1.5,-1,-4,1,0,0,rectangle,106,50,1,0,0,3,3,"[34,97,159,134,143,131,13,135,37,108]",-8,2,1,0,0,0,33,33,63,1,DarkBlue,DarkBlue.jpg,LightGreen,LightGreen.jpg,response1disk_3,rectangle
,,,,,,,,,,,,,,,,,,-2,,,,,,,,,,,,,,,,,,,,,,,,,,,5fc6bcbc6da34d0f8dd78a3a,001,2021-12-17_01h15.35.018,jm_natural_scene_simialrity_2-12-2021_version2,2021.2.3,Win32,59.90893841,5fc6bcbc6da34d0f8dd78a3a,61bbc5c79a1c66460f44041e,61bbd68e5cdb9f6c15099ffb,,,,,,-65,-49,1,0,0,response5disk,1.1166,2,-9,1,0,0,rectangle,2,-9,1,0,0,3,-1,"[34,97,159,134,143,131,13,135,37,108]",2,-9,1,0,0,0,34,34,73,1,Pink,Pink.jpg,Turquiose,Turquiose.jpg,,
,,,,,,,,,,,,,,,,,,-2,,,,,,,,,,,,,,,,,,,,,,,,,,,5fc6bcbc6da34d0f8dd78a3a,001,2021-12-17_01h15.35.018,jm_natural_scene_simialrity_2-12-2021_version2,2021.2.3,Win32,59.90893841,5fc6bcbc6da34d0f8dd78a3a,61bbc5c79a1c66460f44041e,61bbd68e5cdb9f6c15099ffb,,,,,,-103,-35,1,0,0,response5disk,1.4325,-18,10,1,0,0,rectangle,-18,10,1,0,0,3,3,"[34,97,159,134,143,131,13,135,37,108]",-18,10,1,0,0,0,35,35,70,1,Purple,Purple.jpg,DarkGreen,DarkGreen.jpg,,
,,,,,,,,,,,,,,,,,,-3,,,,,,,,,,,,,,,,,,,,,,,,,,,5fc6bcbc6da34d0f8dd78a3a,001,2021-12-17_01h15.35.018,jm_natural_scene_simialrity_2-12-2021_version2,2021.2.3,Win32,59.90893841,5fc6bcbc6da34d0f8dd78a3a,61bbc5c79a1c66460f44041e,61bbd68e5cdb9f6c15099ffb,,,,,,-91,25,1,0,0,response7disk,0.9836,4,-10,1,0,0,rectangle,-73,-37,1,0,0,3,-2,"[34,97,159,134,143,131,13,135,37,108]",-12,-1,1,0,0,0,36,36,21,1,LightGreen,LightGreen.jpg,DarkBlue,DarkBlue.jpg,response5disk_3,rectangle
,,,,,,,,,,,,,,,,,,3,,,,,,,,,,,,,,,,,,,,,,,,,,,5fc6bcbc6da34d0f8dd78a3a,001,2021-12-17_01h15.35.018,jm_natural_scene_simialrity_2-12-2021_version2,2021.2.3,Win32,59.90893841,5fc6bcbc6da34d0f8dd78a3a,61bbc5c79a1c66460f44041e,61bbd68e5cdb9f6c15099ffb,,,,,,108,34,1,0,0,response1disk,0.95,16,-7,1,0,0,rectangle,16,-7,1,0,0,3,-3,"[34,97,159,134,143,131,13,135,37,108]",16,-7,1,0,0,0,37,37,51,1,Pink,Pink.jpg,Red,Red.jpg,,
,,,,,,,,,,,,,,,,,,-3,,,,,,,,,,,,,,,,,,,,,,,,,,,5fc6bcbc6da34d0f8dd78a3a,001,2021-12-17_01h15.35.018,jm_natural_scene_simialrity_2-12-2021_version2,2021.2.3,Win32,59.90893841,5fc6bcbc6da34d0f8dd78a3a,61bbc5c79a1c66460f44041e,61bbd68e5cdb9f6c15099ffb,,,,,,-104,32,1,0,0,response7disk,0.9999,-14,-11,1,0,0,rectangle,-14,-11,1,0,0,3,2,"[34,97,159,134,143,131,13,135,37,108]",-14,-11,1,0,0,0,38,38,2,1,Red,Red.jpg,LightGreen,LightGreen.jpg,,
,,,,,,,,,,,,,,,,,,4,,,,,,,,,,,,,,,,,,,,,,,,,,,5fc6bcbc6da34d0f8dd78a3a,001,2021-12-17_01h15.35.018,jm_natural_scene_simialrity_2-12-2021_version2,2021.2.3,Win32,59.90893841,5fc6bcbc6da34d0f8dd78a3a,61bbc5c79a1c66460f44041e,61bbd68e5cdb9f6c15099ffb,,,,,,28,83,1,0,0,response1disk,0.6837,-3,9,1,0,0,rectangle,-3,9,1,0,0,3,2,"[34,97,159,134,143,131,13,135,37,108]",-3,9,1,0,0,0,39,39,35,1,LightBlue,LightBlue.jpg,LightBlue,LightBlue.jpg,,
,,,,,,,,,,,,,,,,,,-4,,,,,,,,,,,,,,,,,,,,,,,,,,,5fc6bcbc6da34d0f8dd78a3a,001,2021-12-17_01h15.35.018,jm_natural_scene_simialrity_2-12-2021_version2,2021.2.3,Win32,59.90893841,5fc6bcbc6da34d0f8dd78a3a,61bbc5c79a1c66460f44041e,61bbd68e5cdb9f6c15099ffb,,,,,,-39,78,1,0,0,response7disk,0.9335,0,5,1,0,0,rectangle,0,5,1,0,0,3,2,"[34,97,159,134,143,131,13,135,37,108]",0,5,1,0,0,0,40,40,10,1,Yellow,Yellow.jpg,LightGreen,LightGreen.jpg,,
,,,,,,,,,,,,,,,,,,-4,,,,,,,,,,,,,,,,,,,,,,,,,,,5fc6bcbc6da34d0f8dd78a3a,001,2021-12-17_01h15.35.018,jm_natural_scene_simialrity_2-12-2021_version2,2021.2.3,Win32,59.90893841,5fc6bcbc6da34d0f8dd78a3a,61bbc5c79a1c66460f44041e,61bbd68e5cdb9f6c15099ffb,,,,,,-44,99,1,0,0,response7disk,1.1005,-10,11,1,0,0,rectangle,-10,11,1,0,0,3,-2,"[34,97,159,134,143,131,13,135,37,108]",-10,11,1,0,0,0,41,41,40,1,DarkBlue,DarkBlue.jpg,Pink,Pink.jpg,,
,,,,,,,,,,,,,,,,,,-4,,,,,,,,,,,,,,,,,,,,,,,,,,,5fc6bcbc6da34d0f8dd78a3a,001,2021-12-17_01h15.35.018,jm_natural_scene_simialrity_2-12-2021_version2,2021.2.3,Win32,59.90893841,5fc6bcbc6da34d0f8dd78a3a,61bbc5c79a1c66460f44041e,61bbd68e5cdb9f6c15099ffb,,,,,,-46,82,1,0,0,response7disk,0.8333,5,5,1,0,0,rectangle,5,5,1,0,0,3,-3,"[34,97,159,134,143,131,13,135,37,108]",5,5,1,0,0,0,42,42,4,1,Red,Red.jpg,Turquiose,Turquiose.jpg,,
,,,,,,,,,,,,,,,,,,-4,,,,,,,,,,,,,,,,,,,,,,,,,,,5fc6bcbc6da34d0f8dd78a3a,001,2021-12-17_01h15.35.018,jm_natural_scene_simialrity_2-12-2021_version2,2021.2.3,Win32,59.90893841,5fc6bcbc6da34d0f8dd78a3a,61bbc5c79a1c66460f44041e,61bbd68e5cdb9f6c15099ffb,,,,,,-45,91,1,0,0,response7disk,0.8837,-6,5,1,0,0,rectangle,-6,5,1,0,0,3,1,"[34,97,159,134,143,131,13,135,37,108]",-6,5,1,0,0,0,43,43,11,1,Yellow,Yellow.jpg,DarkGreen,DarkGreen.jpg,,
,,,,,,,,,,,,,,,,,,2,,,,,,,,,,,,,,,,,,,,,,,,,,,5fc6bcbc6da34d0f8dd78a3a,001,2021-12-17_01h15.35.018,jm_natural_scene_simialrity_2-12-2021_version2,2021.2.3,Win32,59.90893841,5fc6bcbc6da34d0f8dd78a3a,61bbc5c79a1c66460f44041e,61bbd68e5cdb9f6c15099ffb,,,,,,89,-29,1,0,0,response3disk,1.4167,1,24,1,0,0,rectangle,1,24,1,0,0,3,-1,"[34,97,159,134,143,131,13,135,37,108]",1,24,1,0,0,0,44,44,1,1,Red,Red.jpg,Yellow,Yellow.jpg,,
,,,,,,,,,,,,,,,,,,1,,,,,,,,,,,,,,,,,,,,,,,,,,,5fc6bcbc6da34d0f8dd78a3a,001,2021-12-17_01h15.35.018,jm_natural_scene_simialrity_2-12-2021_version2,2021.2.3,Win32,59.90893841,5fc6bcbc6da34d0f8dd78a3a,61bbc5c79a1c66460f44041e,61bbd68e5cdb9f6c15099ffb,,,,,,58,-84,1,0,0,response3disk,1.0833,-17,2,1,0,0,rectangle,-17,2,1,0,0,3,-3,"[34,97,159,134,143,131,13,135,37,108]",-17,2,1,0,0,0,45,45,19,1,LightGreen,LightGreen.jpg,Turquiose,Turquiose.jpg,,
,,,,,,,,,,,,,,,,,,-3,,,,,,,,,,,,,,,,,,,,,,,,,,,5fc6bcbc6da34d0f8dd78a3a,001,2021-12-17_01h15.35.018,jm_natural_scene_simialrity_2-12-2021_version2,2021.2.3,Win32,59.90893841,5fc6bcbc6da34d0f8dd78a3a,61bbc5c79a1c66460f44041e,61bbd68e5cdb9f6c15099ffb,,,,,,-70,32,1,0,0,response7disk,1.1,-3,-24,1,0,0,rectangle,-3,-24,1,0,0,3,1,"[34,97,159,134,143,131,13,135,37,108]",-3,-24,1,0,0,0,46,46,56,1,LightBlue,LightBlue.jpg,Yellow,Yellow.jpg,,
,,,,,,,,,,,,,,,,,,2,,,,,,,,,,,,,,,,,,,,,,,,,,,5fc6bcbc6da34d0f8dd78a3a,001,2021-12-17_01h15.35.018,jm_natural_scene_simialrity_2-12-2021_version2,2021.2.3,Win32,59.90893841,5fc6bcbc6da34d0f8dd78a3a,61bbc5c79a1c66460f44041e,61bbd68e5cdb9f6c15099ffb,,,,,,89,-52,1,0,0,response3disk,1.5169,-6,-7,1,0,0,rectangle,-6,-7,1,0,0,3,-3,"[34,97,159,134,143,131,13,135,37,108]",-6,-7,1,0,0,0,47,47,80,1,Purple,Purple.jpg,Pink,Pink.jpg,,
,,,,,,,,,,,,,,,,,,4,,,,,,,,,,,,,,,,,,,,,,,,,,,5fc6bcbc6da34d0f8dd78a3a,001,2021-12-17_01h15.35.018,jm_natural_scene_simialrity_2-12-2021_version2,2021.2.3,Win32,59.90893841,5fc6bcbc6da34d0f8dd78a3a,61bbc5c79a1c66460f44041e,61bbd68e5cdb9f6c15099ffb,,,,,,39,100,1,0,0,response1disk,0.6338,11,4,1,0,0,rectangle,11,4,1,0,0,3,-2,"[34,97,159,134,143,131,13,135,37,108]",11,4,1,0,0,0,48,48,42,1,Pink,Pink.jpg,Pink,Pink.jpg,,
,,,,,,,,,,,,,,,,,,-4,,,,,,,,,,,,,,,,,,,,,,,,,,,5fc6bcbc6da34d0f8dd78a3a,001,2021-12-17_01h15.35.018,jm_natural_scene_simialrity_2-12-2021_version2,2021.2.3,Win32,59.90893841,5fc6bcbc6da34d0f8dd78a3a,61bbc5c79a1c66460f44041e,61bbd68e5cdb9f6c15099ffb,,,,,,-34,103,1,0,0,response7disk,1.0167,19,-1,1,0,0,rectangle,19,-1,1,0,0,3,3,"[34,97,159,134,143,131,13,135,37,108]",19,-1,1,0,0,0,49,49,12,1,Yellow,Yellow.jpg,Turquiose,Turquiose.jpg,,
,,,,,,,,,,,,,,,,,,2,,,,,,,,,,,,,,,,,,,,,,,,,,,5fc6bcbc6da34d0f8dd78a3a,001,2021-12-17_01h15.35.018,jm_natural_scene_simialrity_2-12-2021_version2,2021.2.3,Win32,59.90893841,5fc6bcbc6da34d0f8dd78a3a,61bbc5c79a1c66460f44041e,61bbd68e5cdb9f6c15099ffb,,,,,,93,-62,1,0,0,response3disk,1.8825,-13,7,1,0,0,rectangle,-13,7,1,0,0,3,-3,"[34,97,159,134,143,131,13,135,37,108]",-13,7,1,0,0,0,50,50,66,1,Turquiose,Turquiose.jpg,DarkGreen,DarkGreen.jpg,,
,,,,,,,,,,,,,,,,,,-1,,,,,,,,,,,,,,,,,,,,,,,,,,,5fc6bcbc6da34d0f8dd78a3a,001,2021-12-17_01h15.35.018,jm_natural_scene_simialrity_2-12-2021_version2,2021.2.3,Win32,59.90893841,5fc6bcbc6da34d0f8dd78a3a,61bbc5c79a1c66460f44041e,61bbd68e5cdb9f6c15099ffb,,,,,,-44,-93,1,0,0,response5disk,1.4164,5,1,1,0,0,rectangle,5,1,1,0,0,3,-2,"[34,97,159,134,143,131,13,135,37,108]",5,1,1,0,0,0,51,51,23,1,LightGreen,LightGreen.jpg,Purple,Purple.jpg,,
,,,,,,,,,,,,,,,,,,1,,,,,,,,,,,,,,,,,,,,,,,,,,,5fc6bcbc6da34d0f8dd78a3a,001,2021-12-17_01h15.35.018,jm_natural_scene_simialrity_2-12-2021_version2,2021.2.3,Win32,59.90893841,5fc6bcbc6da34d0f8dd78a3a,61bbc5c79a1c66460f44041e,61bbd68e5cdb9f6c15099ffb,,,,,,58,-83,1,0,0,response3disk,1.2169,-17,-11,1,0,0,rectangle,-17,-11,1,0,0,3,-4,"[34,97,159,134,143,131,13,135,37,108]",-17,-11,1,0,0,0,52,52,27,1,DarkGreen,DarkGreen.jpg,DarkBlue,DarkBlue.jpg,,
,,,,,,,,,,,,,,,,,,-4,,,,,,,,,,,,,,,,,,,,,,,,,,,5fc6bcbc6da34d0f8dd78a3a,001,2021-12-17_01h15.35.018,jm_natural_scene_simialrity_2-12-2021_version2,2021.2.3,Win32,59.90893841,5fc6bcbc6da34d0f8dd78a3a,61bbc5c79a1c66460f44041e,61bbd68e5cdb9f6c15099ffb,,,,,,-61,116,1,0,0,response7disk,1.0002,10,-14,1,0,0,rectangle,10,-14,1,0,0,3,-1,"[34,97,159,134,143,131,13,135,37,108]",10,-14,1,0,0,0,53,53,22,1,LightGreen,LightGreen.jpg,Pink,Pink.jpg,,
,,,,,,,,,,,,,,,,,,3,,,,,,,,,,,,,,,,,,,,,,,,,,,5fc6bcbc6da34d0f8dd78a3a,001,2021-12-17_01h15.35.018,jm_natural_scene_simialrity_2-12-2021_version2,2021.2.3,Win32,59.90893841,5fc6bcbc6da34d0f8dd78a3a,61bbc5c79a1c66460f44041e,61bbd68e5cdb9f6c15099ffb,,,,,,82,29,1,0,0,response1disk,0.8668,-3,13,1,0,0,rectangle,-3,13,1,0,0,3,1,"[34,97,159,134,143,131,13,135,37,108]",-3,13,1,0,0,0,54,54,18,1,LightGreen,LightGreen.jpg,DarkGreen,DarkGreen.jpg,,
,,,,,,,,,,,,,,,,,,-2,,,,,,,,,,,,,,,,,,,,,,,,,,,5fc6bcbc6da34d0f8dd78a3a,001,2021-12-17_01h15.35.018,jm_natural_scene_simialrity_2-12-2021_version2,2021.2.3,Win32,59.90893841,5fc6bcbc6da34d0f8dd78a3a,61bbc5c79a1c66460f44041e,61bbd68e5cdb9f6c15099ffb,,,,,,-80,-37,1,0,0,response5disk,1.3167,-2,-6,1,0,0,rectangle,-2,-6,1,0,0,3,-4,"[34,97,159,134,143,131,13,135,37,108]",-2,-6,1,0,0,0,55,55,3,1,Red,Red.jpg,DarkGreen,DarkGreen.jpg,,
,,,,,,,,,,,,,,,,,,3,,,,,,,,,,,,,,,,,,,,,,,,,,,5fc6bcbc6da34d0f8dd78a3a,001,2021-12-17_01h15.35.018,jm_natural_scene_simialrity_2-12-2021_version2,2021.2.3,Win32,59.90893841,5fc6bcbc6da34d0f8dd78a3a,61bbc5c79a1c66460f44041e,61bbd68e5cdb9f6c15099ffb,,,,,,83,33,1,0,0,response1disk,1.0668,-1,-21,1,0,0,rectangle,-1,-21,1,0,0,3,2,"[34,97,159,134,143,131,13,135,37,108]",-1,-21,1,0,0,0,56,56,25,1,DarkGreen,DarkGreen.jpg,Turquiose,Turquiose.jpg,,
,,,,,,,,,,,,,,,,,,4,,,,,,,,,,,,,,,,,,,,,,,,,,,5fc6bcbc6da34d0f8dd78a3a,001,2021-12-17_01h15.35.018,jm_natural_scene_simialrity_2-12-2021_version2,2021.2.3,Win32,59.90893841,5fc6bcbc6da34d0f8dd78a3a,61bbc5c79a1c66460f44041e,61bbd68e5cdb9f6c15099ffb,,,,,,42,88,1,0,0,response1disk,0.65,14,-9,1,0,0,rectangle,14,-9,1,0,0,3,-4,"[34,97,159,134,143,131,13,135,37,108]",14,-9,1,0,0,0,57,57,39,1,DarkBlue,DarkBlue.jpg,DarkBlue,DarkBlue.jpg,,
,,,,,,,,,,,,,,,,,,4,,,,,,,,,,,,,,,,,,,,,,,,,,,5fc6bcbc6da34d0f8dd78a3a,001,2021-12-17_01h15.35.018,jm_natural_scene_simialrity_2-12-2021_version2,2021.2.3,Win32,59.90893841,5fc6bcbc6da34d0f8dd78a3a,61bbc5c79a1c66460f44041e,61bbd68e5cdb9f6c15099ffb,,,,,,23,71,1,0,0,response1disk,0.6669,-5,-18,1,0,0,rectangle,-5,-18,1,0,0,3,3,"[34,97,159,134,143,131,13,135,37,108]",-5,-18,1,0,0,0,58,58,7,1,Red,Red.jpg,Pink,Pink.jpg,,
,,,,,,,,,,,,,,,,,,-2,,,,,,,,,,,,,,,,,,,,,,,,,,,5fc6bcbc6da34d0f8dd78a3a,001,2021-12-17_01h15.35.018,jm_natural_scene_simialrity_2-12-2021_version2,2021.2.3,Win32,59.90893841,5fc6bcbc6da34d0f8dd78a3a,61bbc5c79a1c66460f44041e,61bbd68e5cdb9f6c15099ffb,,,,,,-88,-46,1,0,0,response5disk,2.9169,-24,-11,1,0,0,rectangle,-24,-11,1,0,0,3,-4,"[34,97,159,134,143,131,13,135,37,108]",-24,-11,1,0,0,0,59,59,49,1,LightBlue,LightBlue.jpg,Red,Red.jpg,,
,,,,,,,,,,,,,,,,,,-2,,,,,,,,,,,,,,,,,,,,,,,,,,,5fc6bcbc6da34d0f8dd78a3a,001,2021-12-17_01h15.35.018,jm_natural_scene_simialrity_2-12-2021_version2,2021.2.3,Win32,59.90893841,5fc6bcbc6da34d0f8dd78a3a,61bbc5c79a1c66460f44041e,61bbd68e5cdb9f6c15099ffb,,,,,,-67,-44,1,0,0,response5disk,0.8335,-8,4,1,0,0,rectangle,-8,4,1,0,0,3,3,"[34,97,159,134,143,131,13,135,37,108]",-8,4,1,0,0,0,60,60,6,1,Red,Red.jpg,DarkBlue,DarkBlue.jpg,,
,,,,,,,,,,,,,,,,,,-3,,,,,,,,,,,,,,,,,,,,,,,,,,,5fc6bcbc6da34d0f8dd78a3a,001,2021-12-17_01h15.35.018,jm_natural_scene_simialrity_2-12-2021_version2,2021.2.3,Win32,59.90893841,5fc6bcbc6da34d0f8dd78a3a,61bbc5c79a1c66460f44041e,61bbd68e5cdb9f6c15099ffb,,,,,,-75,44,1,0,0,response7disk,0.9499,-4,10,1,0,0,rectangle,-4,10,1,0,0,3,3,"[34,97,159,134,143,131,13,135,37,108]",-4,10,1,0,0,0,61,61,53,1,LightGreen,LightGreen.jpg,Yellow,Yellow.jpg,,
,,,,,,,,,,,,,,,,,,1,,,,,,,,,,,,,,,,,,,,,,,,,,,5fc6bcbc6da34d0f8dd78a3a,001,2021-12-17_01h15.35.018,jm_natural_scene_simialrity_2-12-2021_version2,2021.2.3,Win32,59.90893841,5fc6bcbc6da34d0f8dd78a3a,61bbc5c79a1c66460f44041e,61bbd68e5cdb9f6c15099ffb,,,,,,32,-93,1,0,0,response3disk,1.2003,-14,-13,1,0,0,rectangle,-14,-13,1,0,0,3,-2,"[34,97,159,134,143,131,13,135,37,108]",-14,-13,1,0,0,0,62,62,62,1,LightBlue,LightBlue.jpg,LightGreen,LightGreen.jpg,,
,,,,,,,,,,,,,,,,,,3,,,,,,,,,,,,,,,,,,,,,,,,,,,5fc6bcbc6da34d0f8dd78a3a,001,2021-12-17_01h15.35.018,jm_natural_scene_simialrity_2-12-2021_version2,2021.2.3,Win32,59.90893841,5fc6bcbc6da34d0f8dd78a3a,61bbc5c79a1c66460f44041e,61bbd68e5cdb9f6c15099ffb,,,,,,97,19,1,0,0,response1disk,0.85,15,-14,1,0,0,rectangle,15,-14,1,0,0,3,-2,"[34,97,159,134,143,131,13,135,37,108]",15,-14,1,0,0,0,63,63,72,1,DarkBlue,DarkBlue.jpg,Turquiose,Turquiose.jpg,,
,,,,,,,,,,,,,,,,,,-2,,,,,,,,,,,,,,,,,,,,,,,,,,,5fc6bcbc6da34d0f8dd78a3a,001,2021-12-17_01h15.35.018,jm_natural_scene_simialrity_2-12-2021_version2,2021.2.3,Win32,59.90893841,5fc6bcbc6da34d0f8dd78a3a,61bbc5c79a1c66460f44041e,61bbd68e5cdb9f6c15099ffb,,,,,,-72,-21,1,0,0,response5disk,0.9169,-2,-10,1,0,0,rectangle,-2,-10,1,0,0,3,-1,"[34,97,159,134,143,131,13,135,37,108]",-2,-10,1,0,0,0,64,64,67,1,LightBlue,LightBlue.jpg,DarkGreen,DarkGreen.jpg,,
,,,,,,,,,,,,,,,,,,4,,,,,,,,,,,,,,,,,,,,,,,,,,,5fc6bcbc6da34d0f8dd78a3a,001,2021-12-17_01h15.35.018,jm_natural_scene_simialrity_2-12-2021_version2,2021.2.3,Win32,59.90893841,5fc6bcbc6da34d0f8dd78a3a,61bbc5c79a1c66460f44041e,61bbd68e5cdb9f6c15099ffb,,,,,,35,86,1,0,0,response1disk,0.7176,8,-3,1,0,0,rectangle,8,-3,1,0,0,3,2,"[34,97,159,134,143,131,13,135,37,108]",8,-3,1,0,0,0,65,65,9,1,Yellow,Yellow.jpg,Yellow,Yellow.jpg,,
,,,,,,,,,,,,,,,,,,-1,,,,,,,,,,,,,,,,,,,,,,,,,,,5fc6bcbc6da34d0f8dd78a3a,001,2021-12-17_01h15.35.018,jm_natural_scene_simialrity_2-12-2021_version2,2021.2.3,Win32,59.90893841,5fc6bcbc6da34d0f8dd78a3a,61bbc5c79a1c66460f44041e,61bbd68e5cdb9f6c15099ffb,,,,,,-45,-84,1,0,0,response5disk,1.8835,-13,17,1,0,0,rectangle,-13,17,1,0,0,3,-2,"[34,97,159,134,143,131,13,135,37,108]",-13,17,1,0,0,0,66,66,68,1,DarkBlue,DarkBlue.jpg,DarkGreen,DarkGreen.jpg,,
,,,,,,,,,,,,,,,,,,-2,,,,,,,,,,,,,,,,,,,,,,,,,,,5fc6bcbc6da34d0f8dd78a3a,001,2021-12-17_01h15.35.018,jm_natural_scene_simialrity_2-12-2021_version2,2021.2.3,Win32,59.90893841,5fc6bcbc6da34d0f8dd78a3a,61bbc5c79a1c66460f44041e,61bbd68e5cdb9f6c15099ffb,,,,,,-127,-44,1,0,0,response5disk,0.9999,-15,-8,1,0,0,rectangle,-15,-8,1,0,0,3,-3,"[34,97,159,134,143,131,13,135,37,108]",-15,-8,1,0,0,0,67,67,65,1,Purple,Purple.jpg,LightGreen,LightGreen.jpg,,
,,,,,,,,,,,,,,,,,,1,,,,,,,,,,,,,,,,,,,,,,,,,,,5fc6bcbc6da34d0f8dd78a3a,001,2021-12-17_01h15.35.018,jm_natural_scene_simialrity_2-12-2021_version2,2021.2.3,Win32,59.90893841,5fc6bcbc6da34d0f8dd78a3a,61bbc5c79a1c66460f44041e,61bbd68e5cdb9f6c15099ffb,,,,,,50,-85,1,0,0,response3disk,1.1668,20,-18,1,0,0,rectangle,20,-18,1,0,0,2,-4,"[34,97,159,134,143,131,13,135,37,108]",20,-18,1,0,0,0,68,68,79,1,Purple,Purple.jpg,DarkBlue,DarkBlue.jpg,,
,,,,,,,,,,,,,,,,,,-3,,,,,,,,,,,,,,,,,,,,,,,,,,,5fc6bcbc6da34d0f8dd78a3a,001,2021-12-17_01h15.35.018,jm_natural_scene_simialrity_2-12-2021_version2,2021.2.3,Win32,59.90893841,5fc6bcbc6da34d0f8dd78a3a,61bbc5c79a1c66460f44041e,61bbd68e5cdb9f6c15099ffb,,,,,,-71,39,1,0,0,response7disk,0.9331,-13,-5,1,0,0,rectangle,-13,-5,1,0,0,2,-1,"[34,97,159,134,143,131,13,135,37,108]",-13,-5,1,0,0,0,69,69,46,1,LightGreen,LightGreen.jpg,Red,Red.jpg,,
,,,,,,,,,,,,,,,,,,4,,,,,,,,,,,,,,,,,,,,,,,,,,,5fc6bcbc6da34d0f8dd78a3a,001,2021-12-17_01h15.35.018,jm_natural_scene_simialrity_2-12-2021_version2,2021.2.3,Win32,59.90893841,5fc6bcbc6da34d0f8dd78a3a,61bbc5c79a1c66460f44041e,61bbd68e5cdb9f6c15099ffb,,,,,,31,102,1,0,0,response1disk,0.6833,-7,-3,1,0,0,rectangle,-7,-3,1,0,0,2,1,"[34,97,159,134,143,131,13,135,37,108]",-7,-3,1,0,0,0,70,70,30,1,Turquiose,Turquiose.jpg,Turquiose,Turquiose.jpg,,
,,,,,,,,,,,,,,,,,,-1,,,,,,,,,,,,,,,,,,,,,,,,,,,5fc6bcbc6da34d0f8dd78a3a,001,2021-12-17_01h15.35.018,jm_natural_scene_simialrity_2-12-2021_version2,2021.2.3,Win32,59.90893841,5fc6bcbc6da34d0f8dd78a3a,61bbc5c79a1c66460f44041e,61bbd68e5cdb9f6c15099ffb,,,,,,-54,-86,1,0,0,response5disk,2.6842,-15,-2,1,0,0,rectangle,-15,-2,1,0,0,2,-4,"[34,97,159,134,143,131,13,135,37,108]",-15,-2,1,0,0,0,71,71,20,1,LightGreen,LightGreen.jpg,LightBlue,LightBlue.jpg,,
,,,,,,,,,,,,,,,,,,-3,,,,,,,,,,,,,,,,,,,,,,,,,,,5fc6bcbc6da34d0f8dd78a3a,001,2021-12-17_01h15.35.018,jm_natural_scene_simialrity_2-12-2021_version2,2021.2.3,Win32,59.90893841,5fc6bcbc6da34d0f8dd78a3a,61bbc5c79a1c66460f44041e,61bbd68e5cdb9f6c15099ffb,,,,,,-84,19,1,0,0,response7disk,1.0335,-13,-9,1,0,0,rectangle,-13,-9,1,0,0,2,-4,"[34,97,159,134,143,131,13,135,37,108]",-13,-9,1,0,0,0,72,72,50,1,DarkBlue,DarkBlue.jpg,Red,Red.jpg,,
,,,,,,,,,,,,,,,,,,1,,,,,,,,,,,,,,,,,,,,,,,,,,,5fc6bcbc6da34d0f8dd78a3a,001,2021-12-17_01h15.35.018,jm_natural_scene_simialrity_2-12-2021_version2,2021.2.3,Win32,59.90893841,5fc6bcbc6da34d0f8dd78a3a,61bbc5c79a1c66460f44041e,61bbd68e5cdb9f6c15099ffb,,,,,,39,-73,1,0,0,response3disk,1.2332,0,6,1,0,0,rectangle,0,6,1,0,0,2,-3,"[34,97,159,134,143,131,13,135,37,108]",0,6,1,0,0,0,73,73,45,1,Yellow,Yellow.jpg,Red,Red.jpg,,
,,,,,,,,,,,,,,,,,,-4,,,,,,,,,,,,,,,,,,,,,,,,,,,5fc6bcbc6da34d0f8dd78a3a,001,2021-12-17_01h15.35.018,jm_natural_scene_simialrity_2-12-2021_version2,2021.2.3,Win32,59.90893841,5fc6bcbc6da34d0f8dd78a3a,61bbc5c79a1c66460f44041e,61bbd68e5cdb9f6c15099ffb,,,,,,-31,61,1,0,0,response7disk,0.917,8,-2,1,0,0,rectangle,8,-2,1,0,0,2,3,"[34,97,159,134,143,131,13,135,37,108]",8,-2,1,0,0,0,74,74,48,1,Turquiose,Turquiose.jpg,Red,Red.jpg,,
,,,,,,,,,,,,,,,,,,-4,,,,,,,,,,,,,,,,,,,,,,,,,,,5fc6bcbc6da34d0f8dd78a3a,001,2021-12-17_01h15.35.018,jm_natural_scene_simialrity_2-12-2021_version2,2021.2.3,Win32,59.90893841,5fc6bcbc6da34d0f8dd78a3a,61bbc5c79a1c66460f44041e,61bbd68e5cdb9f6c15099ffb,,,,,,-42,69,1,0,0,response7disk,1.1666,-1,-9,1,0,0,rectangle,-1,-9,1,0,0,2,-1,"[34,97,159,134,143,131,13,135,37,108]",-1,-9,1,0,0,0,75,75,78,1,Pink,Pink.jpg,DarkBlue,DarkBlue.jpg,,
,,,,,,,,,,,,,,,,,,-4,,,,,,,,,,,,,,,,,,,,,,,,,,,5fc6bcbc6da34d0f8dd78a3a,001,2021-12-17_01h15.35.018,jm_natural_scene_simialrity_2-12-2021_version2,2021.2.3,Win32,59.90893841,5fc6bcbc6da34d0f8dd78a3a,61bbc5c79a1c66460f44041e,61bbd68e5cdb9f6c15099ffb,,,,,,-31,87,1,0,0,response7disk,1.234,12,-11,1,0,0,rectangle,12,-11,1,0,0,2,-3,"[34,97,159,134,143,131,13,135,37,108]",12,-11,1,0,0,0,76,76,13,1,Yellow,Yellow.jpg,LightBlue,LightBlue.jpg,,
,,,,,,,,,,,,,,,,,,-4,,,,,,,,,,,,,,,,,,,,,,,,,,,5fc6bcbc6da34d0f8dd78a3a,001,2021-12-17_01h15.35.018,jm_natural_scene_simialrity_2-12-2021_version2,2021.2.3,Win32,59.90893841,5fc6bcbc6da34d0f8dd78a3a,61bbc5c79a1c66460f44041e,61bbd68e5cdb9f6c15099ffb,,,,,,-28,69,1,0,0,response7disk,0.917,-1,-6,1,0,0,rectangle,-1,-6,1,0,0,2,-2,"[34,97,159,134,143,131,13,135,37,108]",-1,-6,1,0,0,0,77,77,47,1,DarkGreen,DarkGreen.jpg,Red,Red.jpg,,
,,,,,,,,,,,,,,,,,,1,,,,,,,,,,,,,,,,,,,,,,,,,,,5fc6bcbc6da34d0f8dd78a3a,001,2021-12-17_01h15.35.018,jm_natural_scene_simialrity_2-12-2021_version2,2021.2.3,Win32,59.90893841,5fc6bcbc6da34d0f8dd78a3a,61bbc5c79a1c66460f44041e,61bbd68e5cdb9f6c15099ffb,,,,,,44,-94,1,0,0,response3disk,1.4002,-10,11,1,0,0,rectangle,-10,11,1,0,0,2,2,"[34,97,159,134,143,131,13,135,37,108]",-10,11,1,0,0,0,78,78,41,1,DarkBlue,DarkBlue.jpg,Purple,Purple.jpg,,
,,,,,,,,,,,,,,,,,,4,,,,,,,,,,,,,,,,,,,,,,,,,,,5fc6bcbc6da34d0f8dd78a3a,001,2021-12-17_01h15.35.018,jm_natural_scene_simialrity_2-12-2021_version2,2021.2.3,Win32,59.90893841,5fc6bcbc6da34d0f8dd78a3a,61bbc5c79a1c66460f44041e,61bbd68e5cdb9f6c15099ffb,,,,,,42,102,1,0,0,response1disk,0.7178,10,-1,1,0,0,rectangle,10,-1,1,0,0,2,-1,"[34,97,159,134,143,131,13,135,37,108]",10,-1,1,0,0,0,79,79,17,1,LightGreen,LightGreen.jpg,LightGreen,LightGreen.jpg,,
,,,,,,,,,,,,,,,,,,1,,,,,,,,,,,,,,,,,,,,,,,,,,,5fc6bcbc6da34d0f8dd78a3a,001,2021-12-17_01h15.35.018,jm_natural_scene_simialrity_2-12-2021_version2,2021.2.3,Win32,59.90893841,5fc6bcbc6da34d0f8dd78a3a,61bbc5c79a1c66460f44041e,61bbd68e5cdb9f6c15099ffb,,,,,,45,-79,1,0,0,response3disk,3.5838,6,1,1,0,0,rectangle,6,1,1,0,0,2,1,"[34,97,159,134,143,131,13,135,37,108]",6,1,1,0,0,0,80,80,14,1,Yellow,Yellow.jpg,DarkBlue,DarkBlue.jpg,,
,,,,,,,,,,,,,,,,,,4,,,,,,,,,,,,,,,,,,,,,,,,,,,5fc6bcbc6da34d0f8dd78a3a,001,2021-12-17_01h15.35.018,jm_natural_scene_simialrity_2-12-2021_version2,2021.2.3,Win32,59.90893841,5fc6bcbc6da34d0f8dd78a3a,61bbc5c79a1c66460f44041e,61bbd68e5cdb9f6c15099ffb,,,,,,29,64,1,0,0,response1disk,2.95,7,-3,1,0,0,rectangle,7,-3,1,0,0,2,1,"[34,97,159,134,143,131,13,135,37,108]",7,-3,1,0,0,1,0,81,44,1,Purple,Purple.jpg,Purple,Purple.jpg,,
,,,,,,,,,,,,,,,,,,-4,,,,,,,,,,,,,,,,,,,,,,,,,,,5fc6bcbc6da34d0f8dd78a3a,001,2021-12-17_01h15.35.018,jm_natural_scene_simialrity_2-12-2021_version2,2021.2.3,Win32,59.90893841,5fc6bcbc6da34d0f8dd78a3a,61bbc5c79a1c66460f44041e,61bbd68e5cdb9f6c15099ffb,,,,,,-40,92,1,0,0,response7disk,1,-4,19,1,0,0,rectangle,-4,19,1,0,0,2,3,"[34,97,159,134,143,131,13,135,37,108]",-4,19,1,0,0,1,1,82,55,1,Turquiose,Turquiose.jpg,Yellow,Yellow.jpg,,
,,,,,,,,,,,,,,,,,,-4,,,,,,,,,,,,,,,,,,,,,,,,,,,5fc6bcbc6da34d0f8dd78a3a,001,2021-12-17_01h15.35.018,jm_natural_scene_simialrity_2-12-2021_version2,2021.2.3,Win32,59.90893841,5fc6bcbc6da34d0f8dd78a3a,61bbc5c79a1c66460f44041e,61bbd68e5cdb9f6c15099ffb,,,,,,-45,97,1,0,0,response7disk,1.0338,-3,11,1,0,0,rectangle,-3,11,1,0,0,2,2,"[34,97,159,134,143,131,13,135,37,108]",-3,11,1,0,0,1,2,83,12,1,Yellow,Yellow.jpg,Turquiose,Turquiose.jpg,,
,,,,,,,,,,,,,,,,,,1,,,,,,,,,,,,,,,,,,,,,,,,,,,5fc6bcbc6da34d0f8dd78a3a,001,2021-12-17_01h15.35.018,jm_natural_scene_simialrity_2-12-2021_version2,2021.2.3,Win32,59.90893841,5fc6bcbc6da34d0f8dd78a3a,61bbc5c79a1c66460f44041e,61bbd68e5cdb9f6c15099ffb,,,,,,49,-102,1,0,0,response3disk,3.067,3,-5,1,0,0,rectangle,3,-5,1,0,0,2,1,"[34,97,159,134,143,131,13,135,37,108]",3,-5,1,0,0,1,3,84,20,1,LightGreen,LightGreen.jpg,LightBlue,LightBlue.jpg,,
,,,,,,,,,,,,,,,,,,-1,,,,,,,,,,,,,,,,,,,,,,,,,,,5fc6bcbc6da34d0f8dd78a3a,001,2021-12-17_01h15.35.018,jm_natural_scene_simialrity_2-12-2021_version2,2021.2.3,Win32,59.90893841,5fc6bcbc6da34d0f8dd78a3a,61bbc5c79a1c66460f44041e,61bbd68e5cdb9f6c15099ffb,,,,,,-30,-93,1,0,0,response5disk,3.8835,11,-8,1,0,0,rectangle,11,-8,1,0,0,2,-2,"[34,97,159,134,143,131,13,135,37,108]",11,-8,1,0,0,1,4,85,21,1,LightGreen,LightGreen.jpg,DarkBlue,DarkBlue.jpg,,
,,,,,,,,,,,,,,,,,,-4,,,,,,,,,,,,,,,,,,,,,,,,,,,5fc6bcbc6da34d0f8dd78a3a,001,2021-12-17_01h15.35.018,jm_natural_scene_simialrity_2-12-2021_version2,2021.2.3,Win32,59.90893841,5fc6bcbc6da34d0f8dd78a3a,61bbc5c79a1c66460f44041e,61bbd68e5cdb9f6c15099ffb,,,,,,-40,103,1,0,0,response7disk,3.1001,-11,4,1,0,0,rectangle,-11,4,1,0,0,2,3,"[34,97,159,134,143,131,13,135,37,108]",-11,4,1,0,0,1,5,86,5,1,Red,Red.jpg,LightBlue,LightBlue.jpg,,
,,,,,,,,,,,,,,,,,,-1,,,,,,,,,,,,,,,,,,,,,,,,,,,5fc6bcbc6da34d0f8dd78a3a,001,2021-12-17_01h15.35.018,jm_natural_scene_simialrity_2-12-2021_version2,2021.2.3,Win32,59.90893841,5fc6bcbc6da34d0f8dd78a3a,61bbc5c79a1c66460f44041e,61bbd68e5cdb9f6c15099ffb,,,,,,-42,-81,1,0,0,response5disk,1.0338,-8,17,1,0,0,rectangle,-8,17,1,0,0,2,-3,"[34,97,159,134,143,131,13,135,37,108]",-8,17,1,0,0,1,6,87,19,1,LightGreen,LightGreen.jpg,Turquiose,Turquiose.jpg,,
,,,,,,,,,,,,,,,,,,2,,,,,,,,,,,,,,,,,,,,,,,,,,,5fc6bcbc6da34d0f8dd78a3a,001,2021-12-17_01h15.35.018,jm_natural_scene_simialrity_2-12-2021_version2,2021.2.3,Win32,59.90893841,5fc6bcbc6da34d0f8dd78a3a,61bbc5c79a1c66460f44041e,61bbd68e5cdb9f6c15099ffb,,,,,,94,-40,1,0,0,response3disk,1.3503,-19,18,1,0,0,rectangle,-19,18,1,0,0,-3,-2,"[34,97,159,134,143,131,13,135,37,108]",-19,18,1,0,0,1,7,88,43,1,Pink,Pink.jpg,Purple,Purple.jpg,,
,,,,,,,,,,,,,,,,,,-2,,,,,,,,,,,,,,,,,,,,,,,,,,,5fc6bcbc6da34d0f8dd78a3a,001,2021-12-17_01h15.35.018,jm_natural_scene_simialrity_2-12-2021_version2,2021.2.3,Win32,59.90893841,5fc6bcbc6da34d0f8dd78a3a,61bbc5c79a1c66460f44041e,61bbd68e5cdb9f6c15099ffb,,,,,,-79,-39,1,0,0,response5disk,0.8334,2,9,1,0,0,rectangle,2,9,1,0,0,-3,-2,"[34,97,159,134,143,131,13,135,37,108]",2,9,1,0,0,1,8,89,47,1,DarkGreen,DarkGreen.jpg,Red,Red.jpg,,
,,,,,,,,,,,,,,,,,,-3,,,,,,,,,,,,,,,,,,,,,,,,,,,5fc6bcbc6da34d0f8dd78a3a,001,2021-12-17_01h15.35.018,jm_natural_scene_simialrity_2-12-2021_version2,2021.2.3,Win32,59.90893841,5fc6bcbc6da34d0f8dd78a3a,61bbc5c79a1c66460f44041e,61bbd68e5cdb9f6c15099ffb,,,,,,-83,31,1,0,0,response7disk,0.9002,-17,3,1,0,0,rectangle,-17,3,1,0,0,-3,3,"[34,97,159,134,143,131,13,135,37,108]",-17,3,1,0,0,1,9,90,26,1,DarkGreen,DarkGreen.jpg,LightBlue,LightBlue.jpg,,
,,,,,,,,,,,,,,,,,,2,,,,,,,,,,,,,,,,,,,,,,,,,,,5fc6bcbc6da34d0f8dd78a3a,001,2021-12-17_01h15.35.018,jm_natural_scene_simialrity_2-12-2021_version2,2021.2.3,Win32,59.90893841,5fc6bcbc6da34d0f8dd78a3a,61bbc5c79a1c66460f44041e,61bbd68e5cdb9f6c15099ffb,,,,,,87,-56,1,0,0,response3disk,1.2998,-21,-7,1,0,0,rectangle,-21,-7,1,0,0,-3,-2,"[34,97,159,134,143,131,13,135,37,108]",-21,-7,1,0,0,1,10,91,38,1,LightBlue,LightBlue.jpg,Purple,Purple.jpg,,
,,,,,,,,,,,,,,,,,,1,,,,,,,,,,,,,,,,,,,,,,,,,,,5fc6bcbc6da34d0f8dd78a3a,001,2021-12-17_01h15.35.018,jm_natural_scene_simialrity_2-12-2021_version2,2021.2.3,Win32,59.90893841,5fc6bcbc6da34d0f8dd78a3a,61bbc5c79a1c66460f44041e,61bbd68e5cdb9f6c15099ffb,,,,,,46,-92,1,0,0,response3disk,1.1337,-11,5,1,0,0,rectangle,-11,5,1,0,0,-3,-4,"[34,97,159,134,143,131,13,135,37,108]",-11,5,1,0,0,1,11,92,76,1,Pink,Pink.jpg,LightBlue,LightBlue.jpg,,
,,,,,,,,,,,,,,,,,,-3,,,,,,,,,,,,,,,,,,,,,,,,,,,5fc6bcbc6da34d0f8dd78a3a,001,2021-12-17_01h15.35.018,jm_natural_scene_simialrity_2-12-2021_version2,2021.2.3,Win32,59.90893841,5fc6bcbc6da34d0f8dd78a3a,61bbc5c79a1c66460f44041e,61bbd68e5cdb9f6c15099ffb,,,,,,-92,31,1,0,0,response7disk,1.6504,-24,-3,1,0,0,rectangle,-24,-3,1,0,0,-3,1,"[34,97,159,134,143,131,13,135,37,108]",-24,-3,1,0,0,1,12,93,70,1,Purple,Purple.jpg,DarkGreen,DarkGreen.jpg,,
,,,,,,,,,,,,,,,,,,-4,,,,,,,,,,,,,,,,,,,,,,,,,,,5fc6bcbc6da34d0f8dd78a3a,001,2021-12-17_01h15.35.018,jm_natural_scene_simialrity_2-12-2021_version2,2021.2.3,Win32,59.90893841,5fc6bcbc6da34d0f8dd78a3a,61bbc5c79a1c66460f44041e,61bbd68e5cdb9f6c15099ffb,,,,,,-54,87,1,0,0,response7disk,0.8171,6,9,1,0,0,rectangle,6,9,1,0,0,-3,-4,"[34,97,159,134,143,131,13,135,37,108]",6,9,1,0,0,1,13,94,4,1,Red,Red.jpg,Turquiose,Turquiose.jpg,,
,,,,,,,,,,,,,,,,,,2,,,,,,,,,,,,,,,,,,,,,,,,,,,5fc6bcbc6da34d0f8dd78a3a,001,2021-12-17_01h15.35.018,jm_natural_scene_simialrity_2-12-2021_version2,2021.2.3,Win32,59.90893841,5fc6bcbc6da34d0f8dd78a3a,61bbc5c79a1c66460f44041e,61bbd68e5cdb9f6c15099ffb,,,,,,89,-37,1,0,0,response3disk,0.9335,10,6,1,0,0,rectangle,10,6,1,0,0,-3,-3,"[34,97,159,134,143,131,13,135,37,108]",10,6,1,0,0,1,14,95,1,1,Red,Red.jpg,Yellow,Yellow.jpg,,
,,,,,,,,,,,,,,,,,,1,,,,,,,,,,,,,,,,,,,,,,,,,,,5fc6bcbc6da34d0f8dd78a3a,001,2021-12-17_01h15.35.018,jm_natural_scene_simialrity_2-12-2021_version2,2021.2.3,Win32,59.90893841,5fc6bcbc6da34d0f8dd78a3a,61bbc5c79a1c66460f44041e,61bbd68e5cdb9f6c15099ffb,,,,,,48,-90,1,0,0,response3disk,1.1498,3,-2,1,0,0,rectangle,55,-88,1,0,0,1,1,"[34,97,159,134,143,131,13,135,37,108]",6,-5,1,0,0,1,15,96,41,1,DarkBlue,DarkBlue.jpg,Purple,Purple.jpg,response3disk_3,rectangle
,,,,,,,,,,,,,,,,,,4,,,,,,,,,,,,,,,,,,,,,,,,,,,5fc6bcbc6da34d0f8dd78a3a,001,2021-12-17_01h15.35.018,jm_natural_scene_simialrity_2-12-2021_version2,2021.2.3,Win32,59.90893841,5fc6bcbc6da34d0f8dd78a3a,61bbc5c79a1c66460f44041e,61bbd68e5cdb9f6c15099ffb,,,,,,30,99,1,0,0,response1disk,0.8834,7,5,1,0,0,rectangle,7,5,1,0,0,1,-4,"[34,97,159,134,143,131,13,135,37,108]",7,5,1,0,0,1,16,97,39,1,DarkBlue,DarkBlue.jpg,DarkBlue,DarkBlue.jpg,,
,,,,,,,,,,,,,,,,,,-4,,,,,,,,,,,,,,,,,,,,,,,,,,,5fc6bcbc6da34d0f8dd78a3a,001,2021-12-17_01h15.35.018,jm_natural_scene_simialrity_2-12-2021_version2,2021.2.3,Win32,59.90893841,5fc6bcbc6da34d0f8dd78a3a,61bbc5c79a1c66460f44041e,61bbd68e5cdb9f6c15099ffb,,,,,,-35,83,1,0,0,response7disk,0.8676,13,-12,1,0,0,rectangle,13,-12,1,0,0,1,-3,"[34,97,159,134,143,131,13,135,37,108]",13,-12,1,0,0,1,17,98,53,1,LightGreen,LightGreen.jpg,Yellow,Yellow.jpg,,
,,,,,,,,,,,,,,,,,,1,,,,,,,,,,,,,,,,,,,,,,,,,,,5fc6bcbc6da34d0f8dd78a3a,001,2021-12-17_01h15.35.018,jm_natural_scene_simialrity_2-12-2021_version2,2021.2.3,Win32,59.90893841,5fc6bcbc6da34d0f8dd78a3a,61bbc5c79a1c66460f44041e,61bbd68e5cdb9f6c15099ffb,,,,,,63,-85,1,0,0,response3disk,0.8834,7,-9,1,0,0,rectangle,7,-9,1,0,0,1,-2,"[34,97,159,134,143,131,13,135,37,108]",7,-9,1,0,0,1,18,99,74,1,Purple,Purple.jpg,Turquiose,Turquiose.jpg,,
,,,,,,,,,,,,,,,,,,-4,,,,,,,,,,,,,,,,,,,,,,,,,,,5fc6bcbc6da34d0f8dd78a3a,001,2021-12-17_01h15.35.018,jm_natural_scene_simialrity_2-12-2021_version2,2021.2.3,Win32,59.90893841,5fc6bcbc6da34d0f8dd78a3a,61bbc5c79a1c66460f44041e,61bbd68e5cdb9f6c15099ffb,,,,,,-58,115,1,0,0,response7disk,0.917,14,2,1,0,0,rectangle,14,2,1,0,0,1,-4,"[34,97,159,134,143,131,13,135,37,108]",14,2,1,0,0,1,19,100,49,1,LightBlue,LightBlue.jpg,Red,Red.jpg,,
,,,,,,,,,,,,,,,,,,2,,,,,,,,,,,,,,,,,,,,,,,,,,,5fc6bcbc6da34d0f8dd78a3a,001,2021-12-17_01h15.35.018,jm_natural_scene_simialrity_2-12-2021_version2,2021.2.3,Win32,59.90893841,5fc6bcbc6da34d0f8dd78a3a,61bbc5c79a1c66460f44041e,61bbd68e5cdb9f6c15099ffb,,,,,,88,-50,1,0,0,response3disk,1.0003,3,5,1,0,0,rectangle,3,5,1,0,0,1,-4,"[34,97,159,134,143,131,13,135,37,108]",3,5,1,0,0,1,20,101,45,1,Yellow,Yellow.jpg,Red,Red.jpg,,
,,,,,,,,,,,,,,,,,,-4,,,,,,,,,,,,,,,,,,,,,,,,,,,5fc6bcbc6da34d0f8dd78a3a,001,2021-12-17_01h15.35.018,jm_natural_scene_simialrity_2-12-2021_version2,2021.2.3,Win32,59.90893841,5fc6bcbc6da34d0f8dd78a3a,61bbc5c79a1c66460f44041e,61bbd68e5cdb9f6c15099ffb,,,,,,-45,79,1,0,0,response7disk,0.9835,12,-9,1,0,0,rectangle,12,-9,1,0,0,1,-3,"[34,97,159,134,143,131,13,135,37,108]",12,-9,1,0,0,1,21,102,56,1,LightBlue,LightBlue.jpg,Yellow,Yellow.jpg,,
,,,,,,,,,,,,,,,,,,4,,,,,,,,,,,,,,,,,,,,,,,,,,,5fc6bcbc6da34d0f8dd78a3a,001,2021-12-17_01h15.35.018,jm_natural_scene_simialrity_2-12-2021_version2,2021.2.3,Win32,59.90893841,5fc6bcbc6da34d0f8dd78a3a,61bbc5c79a1c66460f44041e,61bbd68e5cdb9f6c15099ffb,,,,,,51,104,1,0,0,response1disk,0.6668,1,1,1,0,0,rectangle,1,1,1,0,0,1,-1,"[34,97,159,134,143,131,13,135,37,108]",1,1,1,0,0,1,22,103,42,1,Pink,Pink.jpg,Pink,Pink.jpg,,
,,,,,,,,,,,,,,,,,,-4,,,,,,,,,,,,,,,,,,,,,,,,,,,5fc6bcbc6da34d0f8dd78a3a,001,2021-12-17_01h15.35.018,jm_natural_scene_simialrity_2-12-2021_version2,2021.2.3,Win32,59.90893841,5fc6bcbc6da34d0f8dd78a3a,61bbc5c79a1c66460f44041e,61bbd68e5cdb9f6c15099ffb,,,,,,-48,86,1,0,0,response7disk,0.8335,1,-2,1,0,0,rectangle,1,-2,1,0,0,1,-4,"[34,97,159,134,143,131,13,135,37,108]",1,-2,1,0,0,1,23,104,13,1,Yellow,Yellow.jpg,LightBlue,LightBlue.jpg,,
,,,,,,,,,,,,,,,,,,4,,,,,,,,,,,,,,,,,,,,,,,,,,,5fc6bcbc6da34d0f8dd78a3a,001,2021-12-17_01h15.35.018,jm_natural_scene_simialrity_2-12-2021_version2,2021.2.3,Win32,59.90893841,5fc6bcbc6da34d0f8dd78a3a,61bbc5c79a1c66460f44041e,61bbd68e5cdb9f6c15099ffb,,,,,,21,96,1,0,0,response1disk,0.7836,2,8,1,0,0,rectangle,2,8,1,0,0,1,2,"[34,97,159,134,143,131,13,135,37,108]",2,8,1,0,0,1,24,105,35,1,LightBlue,LightBlue.jpg,LightBlue,LightBlue.jpg,,
,,,,,,,,,,,,,,,,,,3,,,,,,,,,,,,,,,,,,,,,,,,,,,5fc6bcbc6da34d0f8dd78a3a,001,2021-12-17_01h15.35.018,jm_natural_scene_simialrity_2-12-2021_version2,2021.2.3,Win32,59.90893841,5fc6bcbc6da34d0f8dd78a3a,61bbc5c79a1c66460f44041e,61bbd68e5cdb9f6c15099ffb,,,,,,84,30,1,0,0,response1disk,1,16,-4,1,0,0,rectangle,16,-4,1,0,0,1,-4,"[34,97,159,134,143,131,13,135,37,108]",16,-4,1,0,0,1,25,106,18,1,LightGreen,LightGreen.jpg,DarkGreen,DarkGreen.jpg,,
,,,,,,,,,,,,,,,,,,-1,,,,,,,,,,,,,,,,,,,,,,,,,,,5fc6bcbc6da34d0f8dd78a3a,001,2021-12-17_01h15.35.018,jm_natural_scene_simialrity_2-12-2021_version2,2021.2.3,Win32,59.90893841,5fc6bcbc6da34d0f8dd78a3a,61bbc5c79a1c66460f44041e,61bbd68e5cdb9f6c15099ffb,,,,,,-36,-73,1,0,0,response5disk,1.7837,-6,-4,1,0,0,rectangle,79,-40,1,0,0,2,2,"[34,97,159,134,143,131,13,135,37,108]",21,8,1,0,0,1,26,107,27,1,DarkGreen,DarkGreen.jpg,DarkBlue,DarkBlue.jpg,response3disk_3,rectangle
,,,,,,,,,,,,,,,,,,-3,,,,,,,,,,,,,,,,,,,,,,,,,,,5fc6bcbc6da34d0f8dd78a3a,001,2021-12-17_01h15.35.018,jm_natural_scene_simialrity_2-12-2021_version2,2021.2.3,Win32,59.90893841,5fc6bcbc6da34d0f8dd78a3a,61bbc5c79a1c66460f44041e,61bbd68e5cdb9f6c15099ffb,,,,,,-78,25,1,0,0,response7disk,1.1169,4,-24,1,0,0,rectangle,4,-24,1,0,0,2,3,"[34,97,159,134,143,131,13,135,37,108]",4,-24,1,0,0,1,27,108,57,1,DarkBlue,DarkBlue.jpg,Yellow,Yellow.jpg,,
,,,,,,,,,,,,,,,,,,-4,,,,,,,,,,,,,,,,,,,,,,,,,,,5fc6bcbc6da34d0f8dd78a3a,001,2021-12-17_01h15.35.018,jm_natural_scene_simialrity_2-12-2021_version2,2021.2.3,Win32,59.90893841,5fc6bcbc6da34d0f8dd78a3a,61bbc5c79a1c66460f44041e,61bbd68e5cdb9f6c15099ffb,,,,,,-46,73,1,0,0,response7disk,0.7836,7,2,1,0,0,rectangle,7,2,1,0,0,2,-1,"[34,97,159,134,143,131,13,135,37,108]",7,2,1,0,0,1,28,109,28,1,DarkGreen,DarkGreen.jpg,Pink,Pink.jpg,,
,,,,,,,,,,,,,,,,,,3,,,,,,,,,,,,,,,,,,,,,,,,,,,5fc6bcbc6da34d0f8dd78a3a,001,2021-12-17_01h15.35.018,jm_natural_scene_simialrity_2-12-2021_version2,2021.2.3,Win32,59.90893841,5fc6bcbc6da34d0f8dd78a3a,61bbc5c79a1c66460f44041e,61bbd68e5cdb9f6c15099ffb,,,,,,112,43,1,0,0,response1disk,0.8666,-8,-1,1,0,0,rectangle,-8,-1,1,0,0,2,3,"[34,97,159,134,143,131,13,135,37,108]",-8,-1,1,0,0,1,29,110,51,1,Pink,Pink.jpg,Red,Red.jpg,,
,,,,,,,,,,,,,,,,,,2,,,,,,,,,,,,,,,,,,,,,,,,,,,5fc6bcbc6da34d0f8dd78a3a,001,2021-12-17_01h15.35.018,jm_natural_scene_simialrity_2-12-2021_version2,2021.2.3,Win32,59.90893841,5fc6bcbc6da34d0f8dd78a3a,61bbc5c79a1c66460f44041e,61bbd68e5cdb9f6c15099ffb,,,,,,93,-58,1,0,0,response3disk,0.9669,-3,-16,1,0,0,rectangle,-3,-16,1,0,0,2,1,"[34,97,159,134,143,131,13,135,37,108]",-3,-16,1,0,0,1,30,111,80,1,Purple,Purple.jpg,Pink,Pink.jpg,,
,,,,,,,,,,,,,,,,,,1,,,,,,,,,,,,,,,,,,,,,,,,,,,5fc6bcbc6da34d0f8dd78a3a,001,2021-12-17_01h15.35.018,jm_natural_scene_simialrity_2-12-2021_version2,2021.2.3,Win32,59.90893841,5fc6bcbc6da34d0f8dd78a3a,61bbc5c79a1c66460f44041e,61bbd68e5cdb9f6c15099ffb,,,,,,47,-76,1,0,0,response3disk,1.1501,-10,-12,1,0,0,rectangle,-10,-12,1,0,0,2,-3,"[34,97,159,134,143,131,13,135,37,108]",-10,-12,1,0,0,1,31,112,34,1,Turquiose,Turquiose.jpg,Purple,Purple.jpg,,
,,,,,,,,,,,,,,,,,,2,,,,,,,,,,,,,,,,,,,,,,,,,,,5fc6bcbc6da34d0f8dd78a3a,001,2021-12-17_01h15.35.018,jm_natural_scene_simialrity_2-12-2021_version2,2021.2.3,Win32,59.90893841,5fc6bcbc6da34d0f8dd78a3a,61bbc5c79a1c66460f44041e,61bbd68e5cdb9f6c15099ffb,,,,,,93,-45,1,0,0,response3disk,0.9001,0,-13,1,0,0,rectangle,0,-13,1,0,0,2,1,"[34,97,159,134,143,131,13,135,37,108]",0,-13,1,0,0,1,32,113,36,1,LightBlue,LightBlue.jpg,DarkBlue,DarkBlue.jpg,,
,,,,,,,,,,,,,,,,,,2,,,,,,,,,,,,,,,,,,,,,,,,,,,5fc6bcbc6da34d0f8dd78a3a,001,2021-12-17_01h15.35.018,jm_natural_scene_simialrity_2-12-2021_version2,2021.2.3,Win32,59.90893841,5fc6bcbc6da34d0f8dd78a3a,61bbc5c79a1c66460f44041e,61bbd68e5cdb9f6c15099ffb,,,,,,86,-39,1,0,0,response3disk,1.1335,-5,-1,1,0,0,rectangle,-5,-1,1,0,0,2,-4,"[34,97,159,134,143,131,13,135,37,108]",-5,-1,1,0,0,1,33,114,32,1,Turquiose,Turquiose.jpg,DarkBlue,DarkBlue.jpg,,
,,,,,,,,,,,,,,,,,,4,,,,,,,,,,,,,,,,,,,,,,,,,,,5fc6bcbc6da34d0f8dd78a3a,001,2021-12-17_01h15.35.018,jm_natural_scene_simialrity_2-12-2021_version2,2021.2.3,Win32,59.90893841,5fc6bcbc6da34d0f8dd78a3a,61bbc5c79a1c66460f44041e,61bbd68e5cdb9f6c15099ffb,,,,,,43,98,1,0,0,response1disk,0.6333,0,2,1,0,0,rectangle,0,2,1,0,0,2,-4,"[34,97,159,134,143,131,13,135,37,108]",0,2,1,0,0,1,34,115,9,1,Yellow,Yellow.jpg,Yellow,Yellow.jpg,,
,,,,,,,,,,,,,,,,,,-4,,,,,,,,,,,,,,,,,,,,,,,,,,,5fc6bcbc6da34d0f8dd78a3a,001,2021-12-17_01h15.35.018,jm_natural_scene_simialrity_2-12-2021_version2,2021.2.3,Win32,59.90893841,5fc6bcbc6da34d0f8dd78a3a,61bbc5c79a1c66460f44041e,61bbd68e5cdb9f6c15099ffb,,,,,,-41,89,1,0,0,response7disk,0.8837,2,-15,1,0,0,rectangle,2,-15,1,0,0,2,-4,"[34,97,159,134,143,131,13,135,37,108]",2,-15,1,0,0,1,35,116,2,1,Red,Red.jpg,LightGreen,LightGreen.jpg,,
,,,,,,,,,,,,,,,,,,-2,,,,,,,,,,,,,,,,,,,,,,,,,,,5fc6bcbc6da34d0f8dd78a3a,001,2021-12-17_01h15.35.018,jm_natural_scene_simialrity_2-12-2021_version2,2021.2.3,Win32,59.90893841,5fc6bcbc6da34d0f8dd78a3a,61bbc5c79a1c66460f44041e,61bbd68e5cdb9f6c15099ffb,,,,,,-108,-45,1,0,0,response5disk,2.6665,-10,0,1,0,0,rectangle,-10,0,1,0,0,2,3,"[34,97,159,134,143,131,13,135,37,108]",-10,0,1,0,0,1,36,117,14,1,Yellow,Yellow.jpg,DarkBlue,DarkBlue.jpg,,
,,,,,,,,,,,,,,,,,,-4,,,,,,,,,,,,,,,,,,,,,,,,,,,5fc6bcbc6da34d0f8dd78a3a,001,2021-12-17_01h15.35.018,jm_natural_scene_simialrity_2-12-2021_version2,2021.2.3,Win32,59.90893841,5fc6bcbc6da34d0f8dd78a3a,61bbc5c79a1c66460f44041e,61bbd68e5cdb9f6c15099ffb,,,,,,-72,123,1,0,0,response7disk,1.4334,-2,-16,1,0,0,rectangle,-2,-16,1,0,0,2,1,"[34,97,159,134,143,131,13,135,37,108]",-2,-16,1,0,0,1,37,118,78,1,Pink,Pink.jpg,DarkBlue,DarkBlue.jpg,,
,,,,,,,,,,,,,,,,,,2,,,,,,,,,,,,,,,,,,,,,,,,,,,5fc6bcbc6da34d0f8dd78a3a,001,2021-12-17_01h15.35.018,jm_natural_scene_simialrity_2-12-2021_version2,2021.2.3,Win32,59.90893841,5fc6bcbc6da34d0f8dd78a3a,61bbc5c79a1c66460f44041e,61bbd68e5cdb9f6c15099ffb,,,,,,102,-49,1,0,0,response3disk,1.0165,19,-13,1,0,0,rectangle,19,-13,1,0,0,2,1,"[34,97,159,134,143,131,13,135,37,108]",19,-13,1,0,0,1,38,119,68,1,DarkBlue,DarkBlue.jpg,DarkGreen,DarkGreen.jpg,,
,,,,,,,,,,,,,,,,,,-4,,,,,,,,,,,,,,,,,,,,,,,,,,,5fc6bcbc6da34d0f8dd78a3a,001,2021-12-17_01h15.35.018,jm_natural_scene_simialrity_2-12-2021_version2,2021.2.3,Win32,59.90893841,5fc6bcbc6da34d0f8dd78a3a,61bbc5c79a1c66460f44041e,61bbd68e5cdb9f6c15099ffb,,,,,,-49,78,1,0,0,response7disk,0.8836,-1,2,1,0,0,rectangle,-1,2,1,0,0,2,3,"[34,97,159,134,143,131,13,135,37,108]",-1,2,1,0,0,1,39,120,22,1,LightGreen,LightGreen.jpg,Pink,Pink.jpg,,
,,,,,,,,,,,,,,,,,,-2,,,,,,,,,,,,,,,,,,,,,,,,,,,5fc6bcbc6da34d0f8dd78a3a,001,2021-12-17_01h15.35.018,jm_natural_scene_simialrity_2-12-2021_version2,2021.2.3,Win32,59.90893841,5fc6bcbc6da34d0f8dd78a3a,61bbc5c79a1c66460f44041e,61bbd68e5cdb9f6c15099ffb,,,,,,-103,-60,1,0,0,response5disk,2.4005,-2,-13,1,0,0,rectangle,-2,-13,1,0,0,2,-2,"[34,97,159,134,143,131,13,135,37,108]",-2,-13,1,0,0,1,40,121,58,1,Pink,Pink.jpg,Yellow,Yellow.jpg,,
,,,,,,,,,,,,,,,,,,-1,,,,,,,,,,,,,,,,,,,,,,,,,,,5fc6bcbc6da34d0f8dd78a3a,001,2021-12-17_01h15.35.018,jm_natural_scene_simialrity_2-12-2021_version2,2021.2.3,Win32,59.90893841,5fc6bcbc6da34d0f8dd78a3a,61bbc5c79a1c66460f44041e,61bbd68e5cdb9f6c15099ffb,,,,,,-32,-96,1,0,0,response5disk,1.7171,13,13,1,0,0,rectangle,13,13,1,0,0,2,-3,"[34,97,159,134,143,131,13,135,37,108]",13,13,1,0,0,1,41,122,10,1,Yellow,Yellow.jpg,LightGreen,LightGreen.jpg,,
,,,,,,,,,,,,,,,,,,-2,,,,,,,,,,,,,,,,,,,,,,,,,,,5fc6bcbc6da34d0f8dd78a3a,001,2021-12-17_01h15.35.018,jm_natural_scene_simialrity_2-12-2021_version2,2021.2.3,Win32,59.90893841,5fc6bcbc6da34d0f8dd78a3a,61bbc5c79a1c66460f44041e,61bbd68e5cdb9f6c15099ffb,,,,,,-106,-33,1,0,0,response5disk,2.4835,-3,2,1,0,0,rectangle,-3,2,1,0,0,2,3,"[34,97,159,134,143,131,13,135,37,108]",-3,2,1,0,0,1,42,123,67,1,LightBlue,LightBlue.jpg,DarkGreen,DarkGreen.jpg,,
,,,,,,,,,,,,,,,,,,2,,,,,,,,,,,,,,,,,,,,,,,,,,,5fc6bcbc6da34d0f8dd78a3a,001,2021-12-17_01h15.35.018,jm_natural_scene_simialrity_2-12-2021_version2,2021.2.3,Win32,59.90893841,5fc6bcbc6da34d0f8dd78a3a,61bbc5c79a1c66460f44041e,61bbd68e5cdb9f6c15099ffb,,,,,,103,-56,1,0,0,response3disk,1.6998,2,10,1,0,0,rectangle,2,10,1,0,0,2,1,"[34,97,159,134,143,131,13,135,37,108]",2,10,1,0,0,1,43,124,15,1,Yellow,Yellow.jpg,Pink,Pink.jpg,,
,,,,,,,,,,,,,,,,,,1,,,,,,,,,,,,,,,,,,,,,,,,,,,5fc6bcbc6da34d0f8dd78a3a,001,2021-12-17_01h15.35.018,jm_natural_scene_simialrity_2-12-2021_version2,2021.2.3,Win32,59.90893841,5fc6bcbc6da34d0f8dd78a3a,61bbc5c79a1c66460f44041e,61bbd68e5cdb9f6c15099ffb,,,,,,57,-102,1,0,0,response3disk,1.0839,6,-9,1,0,0,rectangle,6,-9,1,0,0,2,-2,"[34,97,159,134,143,131,13,135,37,108]",6,-9,1,0,0,1,44,125,25,1,DarkGreen,DarkGreen.jpg,Turquiose,Turquiose.jpg,,
,,,,,,,,,,,,,,,,,,1,,,,,,,,,,,,,,,,,,,,,,,,,,,5fc6bcbc6da34d0f8dd78a3a,001,2021-12-17_01h15.35.018,jm_natural_scene_simialrity_2-12-2021_version2,2021.2.3,Win32,59.90893841,5fc6bcbc6da34d0f8dd78a3a,61bbc5c79a1c66460f44041e,61bbd68e5cdb9f6c15099ffb,,,,,,40,-85,1,0,0,response3disk,0.5832,-8,-2,1,0,0,rectangle,-8,-2,1,0,0,2,-1,"[34,97,159,134,143,131,13,135,37,108]",-8,-2,1,0,0,1,45,126,66,1,Turquiose,Turquiose.jpg,DarkGreen,DarkGreen.jpg,,
,,,,,,,,,,,,,,,,,,2,,,,,,,,,,,,,,,,,,,,,,,,,,,5fc6bcbc6da34d0f8dd78a3a,001,2021-12-17_01h15.35.018,jm_natural_scene_simialrity_2-12-2021_version2,2021.2.3,Win32,59.90893841,5fc6bcbc6da34d0f8dd78a3a,61bbc5c79a1c66460f44041e,61bbd68e5cdb9f6c15099ffb,,,,,,86,-50,1,0,0,response3disk,1.0003,12,11,1,0,0,rectangle,12,11,1,0,0,2,-4,"[34,97,159,134,143,131,13,135,37,108]",12,11,1,0,0,1,46,127,31,1,Turquiose,Turquiose.jpg,LightBlue,LightBlue.jpg,,
,,,,,,,,,,,,,,,,,,-4,,,,,,,,,,,,,,,,,,,,,,,,,,,5fc6bcbc6da34d0f8dd78a3a,001,2021-12-17_01h15.35.018,jm_natural_scene_simialrity_2-12-2021_version2,2021.2.3,Win32,59.90893841,5fc6bcbc6da34d0f8dd78a3a,61bbc5c79a1c66460f44041e,61bbd68e5cdb9f6c15099ffb,,,,,,-23,90,1,0,0,response7disk,0.9671,-4,-6,1,0,0,rectangle,-4,-6,1,0,0,2,-2,"[34,97,159,134,143,131,13,135,37,108]",-4,-6,1,0,0,1,47,128,37,1,LightBlue,LightBlue.jpg,Pink,Pink.jpg,,
,,,,,,,,,,,,,,,,,,-3,,,,,,,,,,,,,,,,,,,,,,,,,,,5fc6bcbc6da34d0f8dd78a3a,001,2021-12-17_01h15.35.018,jm_natural_scene_simialrity_2-12-2021_version2,2021.2.3,Win32,59.90893841,5fc6bcbc6da34d0f8dd78a3a,61bbc5c79a1c66460f44041e,61bbd68e5cdb9f6c15099ffb,,,,,,-80,36,1,0,0,response7disk,1.2165,-13,22,1,0,0,rectangle,-13,22,1,0,0,2,3,"[34,97,159,134,143,131,13,135,37,108]",-13,22,1,0,0,1,48,129,64,1,Pink,Pink.jpg,LightGreen,LightGreen.jpg,,
,,,,,,,,,,,,,,,,,,-4,,,,,,,,,,,,,,,,,,,,,,,,,,,5fc6bcbc6da34d0f8dd78a3a,001,2021-12-17_01h15.35.018,jm_natural_scene_simialrity_2-12-2021_version2,2021.2.3,Win32,59.90893841,5fc6bcbc6da34d0f8dd78a3a,61bbc5c79a1c66460f44041e,61bbd68e5cdb9f6c15099ffb,,,,,,-36,64,1,0,0,response7disk,1.051,15,-7,1,0,0,rectangle,104,43,1,0,0,3,3,"[34,97,159,134,143,131,13,135,37,108]",-5,-1,1,0,0,1,49,130,46,1,LightGreen,LightGreen.jpg,Red,Red.jpg,response1disk_3,rectangle
,,,,,,,,,,,,,,,,,,4,,,,,,,,,,,,,,,,,,,,,,,,,,,5fc6bcbc6da34d0f8dd78a3a,001,2021-12-17_01h15.35.018,jm_natural_scene_simialrity_2-12-2021_version2,2021.2.3,Win32,59.90893841,5fc6bcbc6da34d0f8dd78a3a,61bbc5c79a1c66460f44041e,61bbd68e5cdb9f6c15099ffb,,,,,,37,93,1,0,0,response1disk,0.6834,-20,0,1,0,0,rectangle,-20,0,1,0,0,3,-1,"[34,97,159,134,143,131,13,135,37,108]",-20,0,1,0,0,1,50,131,30,1,Turquiose,Turquiose.jpg,Turquiose,Turquiose.jpg,,
,,,,,,,,,,,,,,,,,,4,,,,,,,,,,,,,,,,,,,,,,,,,,,5fc6bcbc6da34d0f8dd78a3a,001,2021-12-17_01h15.35.018,jm_natural_scene_simialrity_2-12-2021_version2,2021.2.3,Win32,59.90893841,5fc6bcbc6da34d0f8dd78a3a,61bbc5c79a1c66460f44041e,61bbd68e5cdb9f6c15099ffb,,,,,,24,86,1,0,0,response1disk,0.5332,9,4,1,0,0,rectangle,9,4,1,0,0,3,1,"[34,97,159,134,143,131,13,135,37,108]",9,4,1,0,0,1,51,132,24,1,DarkGreen,DarkGreen.jpg,DarkGreen,DarkGreen.jpg,,
,,,,,,,,,,,,,,,,,,3,,,,,,,,,,,,,,,,,,,,,,,,,,,5fc6bcbc6da34d0f8dd78a3a,001,2021-12-17_01h15.35.018,jm_natural_scene_simialrity_2-12-2021_version2,2021.2.3,Win32,59.90893841,5fc6bcbc6da34d0f8dd78a3a,61bbc5c79a1c66460f44041e,61bbd68e5cdb9f6c15099ffb,,,,,,88,31,1,0,0,response1disk,0.8834,16,2,1,0,0,rectangle,-25,-111,1,0,0,-1,-1,"[34,97,159,134,143,131,13,135,37,108]",-8,-10,1,0,0,1,52,133,79,1,Purple,Purple.jpg,DarkBlue,DarkBlue.jpg,response5disk_3,rectangle
,,,,,,,,,,,,,,,,,,-4,,,,,,,,,,,,,,,,,,,,,,,,,,,5fc6bcbc6da34d0f8dd78a3a,001,2021-12-17_01h15.35.018,jm_natural_scene_simialrity_2-12-2021_version2,2021.2.3,Win32,59.90893841,5fc6bcbc6da34d0f8dd78a3a,61bbc5c79a1c66460f44041e,61bbd68e5cdb9f6c15099ffb,,,,,,-35,101,1,0,0,response7disk,0.7666,-8,0,1,0,0,rectangle,-34,-103,1,0,0,-1,-1,"[34,97,159,134,143,131,13,135,37,108]",0,5,1,0,0,1,53,134,54,1,DarkGreen,DarkGreen.jpg,Yellow,Yellow.jpg,response5disk_3,rectangle
,,,,,,,,,,,,,,,,,,-4,,,,,,,,,,,,,,,,,,,,,,,,,,,5fc6bcbc6da34d0f8dd78a3a,001,2021-12-17_01h15.35.018,jm_natural_scene_simialrity_2-12-2021_version2,2021.2.3,Win32,59.90893841,5fc6bcbc6da34d0f8dd78a3a,61bbc5c79a1c66460f44041e,61bbd68e5cdb9f6c15099ffb,,,,,,-18,99,1,0,0,response7disk,0.8504,0,8,1,0,0,rectangle,0,8,1,0,0,-1,2,"[34,97,159,134,143,131,13,135,37,108]",0,8,1,0,0,1,54,135,3,1,Red,Red.jpg,DarkGreen,DarkGreen.jpg,,
,,,,,,,,,,,,,,,,,,-4,,,,,,,,,,,,,,,,,,,,,,,,,,,5fc6bcbc6da34d0f8dd78a3a,001,2021-12-17_01h15.35.018,jm_natural_scene_simialrity_2-12-2021_version2,2021.2.3,Win32,59.90893841,5fc6bcbc6da34d0f8dd78a3a,61bbc5c79a1c66460f44041e,61bbd68e5cdb9f6c15099ffb,,,,,,-45,73,1,0,0,response7disk,1.5167,-6,-3,1,0,0,rectangle,-6,-3,1,0,0,-1,2,"[34,97,159,134,143,131,13,135,37,108]",-6,-3,1,0,0,1,55,136,73,1,Pink,Pink.jpg,Turquiose,Turquiose.jpg,,
,,,,,,,,,,,,,,,,,,-2,,,,,,,,,,,,,,,,,,,,,,,,,,,5fc6bcbc6da34d0f8dd78a3a,001,2021-12-17_01h15.35.018,jm_natural_scene_simialrity_2-12-2021_version2,2021.2.3,Win32,59.90893841,5fc6bcbc6da34d0f8dd78a3a,61bbc5c79a1c66460f44041e,61bbd68e5cdb9f6c15099ffb,,,,,,-68,-32,1,0,0,response5disk,1.5671,3,12,1,0,0,rectangle,3,12,1,0,0,-1,-2,"[34,97,159,134,143,131,13,135,37,108]",3,12,1,0,0,1,56,137,29,1,DarkGreen,DarkGreen.jpg,Purple,Purple.jpg,,
,,,,,,,,,,,,,,,,,,-4,,,,,,,,,,,,,,,,,,,,,,,,,,,5fc6bcbc6da34d0f8dd78a3a,001,2021-12-17_01h15.35.018,jm_natural_scene_simialrity_2-12-2021_version2,2021.2.3,Win32,59.90893841,5fc6bcbc6da34d0f8dd78a3a,61bbc5c79a1c66460f44041e,61bbd68e5cdb9f6c15099ffb,,,,,,-51,93,1,0,0,response7disk,1.0502,4,-5,1,0,0,rectangle,4,-5,1,0,0,-1,2,"[34,97,159,134,143,131,13,135,37,108]",4,-5,1,0,0,1,57,138,69,1,Pink,Pink.jpg,DarkGreen,DarkGreen.jpg,,
,,,,,,,,,,,,,,,,,,4,,,,,,,,,,,,,,,,,,,,,,,,,,,5fc6bcbc6da34d0f8dd78a3a,001,2021-12-17_01h15.35.018,jm_natural_scene_simialrity_2-12-2021_version2,2021.2.3,Win32,59.90893841,5fc6bcbc6da34d0f8dd78a3a,61bbc5c79a1c66460f44041e,61bbd68e5cdb9f6c15099ffb,,,,,,27,87,1,0,0,response1disk,0.5668,-2,-12,1,0,0,rectangle,-2,-12,1,0,0,-1,-4,"[34,97,159,134,143,131,13,135,37,108]",-2,-12,1,0,0,1,58,139,17,1,LightGreen,LightGreen.jpg,LightGreen,LightGreen.jpg,,
,,,,,,,,,,,,,,,,,,-4,,,,,,,,,,,,,,,,,,,,,,,,,,,5fc6bcbc6da34d0f8dd78a3a,001,2021-12-17_01h15.35.018,jm_natural_scene_simialrity_2-12-2021_version2,2021.2.3,Win32,59.90893841,5fc6bcbc6da34d0f8dd78a3a,61bbc5c79a1c66460f44041e,61bbd68e5cdb9f6c15099ffb,,,,,,-55,98,1,0,0,response7disk,1.0166,1,-17,1,0,0,rectangle,1,-17,1,0,0,-1,-4,"[34,97,159,134,143,131,13,135,37,108]",1,-17,1,0,0,1,59,140,59,1,Purple,Purple.jpg,Yellow,Yellow.jpg,,
,,,,,,,,,,,,,,,,,,-4,,,,,,,,,,,,,,,,,,,,,,,,,,,5fc6bcbc6da34d0f8dd78a3a,001,2021-12-17_01h15.35.018,jm_natural_scene_simialrity_2-12-2021_version2,2021.2.3,Win32,59.90893841,5fc6bcbc6da34d0f8dd78a3a,61bbc5c79a1c66460f44041e,61bbd68e5cdb9f6c15099ffb,,,,,,-52,87,1,0,0,response7disk,1.0001,-17,-5,1,0,0,rectangle,-17,-5,1,0,0,-1,3,"[34,97,159,134,143,131,13,135,37,108]",-17,-5,1,0,0,1,60,141,65,1,Purple,Purple.jpg,LightGreen,LightGreen.jpg,,
,,,,,,,,,,,,,,,,,,-4,,,,,,,,,,,,,,,,,,,,,,,,,,,5fc6bcbc6da34d0f8dd78a3a,001,2021-12-17_01h15.35.018,jm_natural_scene_simialrity_2-12-2021_version2,2021.2.3,Win32,59.90893841,5fc6bcbc6da34d0f8dd78a3a,61bbc5c79a1c66460f44041e,61bbd68e5cdb9f6c15099ffb,,,,,,-43,73,1,0,0,response7disk,1.2501,-4,-12,1,0,0,rectangle,-29,86,1,0,0,-4,-4,"[34,97,159,134,143,131,13,135,37,108]",-3,-1,1,0,0,1,61,142,48,1,Turquiose,Turquiose.jpg,Red,Red.jpg,response7disk_3,rectangle
,,,,,,,,,,,,,,,,,,2,,,,,,,,,,,,,,,,,,,,,,,,,,,5fc6bcbc6da34d0f8dd78a3a,001,2021-12-17_01h15.35.018,jm_natural_scene_simialrity_2-12-2021_version2,2021.2.3,Win32,59.90893841,5fc6bcbc6da34d0f8dd78a3a,61bbc5c79a1c66460f44041e,61bbd68e5cdb9f6c15099ffb,,,,,,85,-63,1,0,0,response3disk,1.0335,4,16,1,0,0,rectangle,4,16,1,0,0,-4,-2,"[34,97,159,134,143,131,13,135,37,108]",4,16,1,0,0,1,62,143,71,1,LightBlue,LightBlue.jpg,Turquiose,Turquiose.jpg,,
,,,,,,,,,,,,,,,,,,2,,,,,,,,,,,,,,,,,,,,,,,,,,,5fc6bcbc6da34d0f8dd78a3a,001,2021-12-17_01h15.35.018,jm_natural_scene_simialrity_2-12-2021_version2,2021.2.3,Win32,59.90893841,5fc6bcbc6da34d0f8dd78a3a,61bbc5c79a1c66460f44041e,61bbd68e5cdb9f6c15099ffb,,,,,,85,-47,1,0,0,response3disk,0.7511,-10,6,1,0,0,rectangle,-10,6,1,0,0,-4,-4,"[34,97,159,134,143,131,13,135,37,108]",-10,6,1,0,0,1,63,144,72,1,DarkBlue,DarkBlue.jpg,Turquiose,Turquiose.jpg,,
,,,,,,,,,,,,,,,,,,-3,,,,,,,,,,,,,,,,,,,,,,,,,,,5fc6bcbc6da34d0f8dd78a3a,001,2021-12-17_01h15.35.018,jm_natural_scene_simialrity_2-12-2021_version2,2021.2.3,Win32,59.90893841,5fc6bcbc6da34d0f8dd78a3a,61bbc5c79a1c66460f44041e,61bbd68e5cdb9f6c15099ffb,,,,,,-72,23,1,0,0,response7disk,1.6501,-5,-8,1,0,0,rectangle,-5,-8,1,0,0,-4,-3,"[34,97,159,134,143,131,13,135,37,108]",-5,-8,1,0,0,1,64,145,11,1,Yellow,Yellow.jpg,DarkGreen,DarkGreen.jpg,,
,,,,,,,,,,,,,,,,,,-4,,,,,,,,,,,,,,,,,,,,,,,,,,,5fc6bcbc6da34d0f8dd78a3a,001,2021-12-17_01h15.35.018,jm_natural_scene_simialrity_2-12-2021_version2,2021.2.3,Win32,59.90893841,5fc6bcbc6da34d0f8dd78a3a,61bbc5c79a1c66460f44041e,61bbd68e5cdb9f6c15099ffb,,,,,,-50,99,1,0,0,response7disk,0.8502,2,12,1,0,0,rectangle,2,12,1,0,0,-4,2,"[34,97,159,134,143,131,13,135,37,108]",2,12,1,0,0,1,65,146,6,1,Red,Red.jpg,DarkBlue,DarkBlue.jpg,,
,,,,,,,,,,,,,,,,,,-4,,,,,,,,,,,,,,,,,,,,,,,,,,,5fc6bcbc6da34d0f8dd78a3a,001,2021-12-17_01h15.35.018,jm_natural_scene_simialrity_2-12-2021_version2,2021.2.3,Win32,59.90893841,5fc6bcbc6da34d0f8dd78a3a,61bbc5c79a1c66460f44041e,61bbd68e5cdb9f6c15099ffb,,,,,,-43,73,1,0,0,response7disk,0.5838,2,10,1,0,0,rectangle,2,10,1,0,0,-4,-4,"[34,97,159,134,143,131,13,135,37,108]",2,10,1,0,0,1,66,147,33,1,Turquiose,Turquiose.jpg,Pink,Pink.jpg,,
,,,,,,,,,,,,,,,,,,2,,,,,,,,,,,,,,,,,,,,,,,,,,,5fc6bcbc6da34d0f8dd78a3a,001,2021-12-17_01h15.35.018,jm_natural_scene_simialrity_2-12-2021_version2,2021.2.3,Win32,59.90893841,5fc6bcbc6da34d0f8dd78a3a,61bbc5c79a1c66460f44041e,61bbd68e5cdb9f6c15099ffb,,,,,,99,-47,1,0,0,response3disk,1.2837,2,4,1,0,0,rectangle,2,4,1,0,0,-4,1,"[34,97,159,134,143,131,13,135,37,108]",2,4,1,0,0,1,67,148,77,1,Purple,Purple.jpg,LightBlue,LightBlue.jpg,,
,,,,,,,,,,,,,,,,,,4,,,,,,,,,,,,,,,,,,,,,,,,,,,5fc6bcbc6da34d0f8dd78a3a,001,2021-12-17_01h15.35.018,jm_natural_scene_simialrity_2-12-2021_version2,2021.2.3,Win32,59.90893841,5fc6bcbc6da34d0f8dd78a3a,61bbc5c79a1c66460f44041e,61bbd68e5cdb9f6c15099ffb,,,,,,30,71,1,0,0,response1disk,0.6001,13,0,1,0,0,rectangle,13,0,1,0,0,-4,1,"[34,97,159,134,143,131,13,135,37,108]",13,0,1,0,0,1,68,149,0,1,Red,Red.jpg,Red,Red.jpg,,
,,,,,,,,,,,,,,,,,,-4,,,,,,,,,,,,,,,,,,,,,,,,,,,5fc6bcbc6da34d0f8dd78a3a,001,2021-12-17_01h15.35.018,jm_natural_scene_simialrity_2-12-2021_version2,2021.2.3,Win32,59.90893841,5fc6bcbc6da34d0f8dd78a3a,61bbc5c79a1c66460f44041e,61bbd68e5cdb9f6c15099ffb,,,,,,-30,75,1,0,0,response7disk,0.9334,0,-11,1,0,0,rectangle,0,-11,1,0,0,-4,-2,"[34,97,159,134,143,131,13,135,37,108]",0,-11,1,0,0,1,69,150,50,1,DarkBlue,DarkBlue.jpg,Red,Red.jpg,,
,,,,,,,,,,,,,,,,,,1,,,,,,,,,,,,,,,,,,,,,,,,,,,5fc6bcbc6da34d0f8dd78a3a,001,2021-12-17_01h15.35.018,jm_natural_scene_simialrity_2-12-2021_version2,2021.2.3,Win32,59.90893841,5fc6bcbc6da34d0f8dd78a3a,61bbc5c79a1c66460f44041e,61bbd68e5cdb9f6c15099ffb,,,,,,49,-101,1,0,0,response3disk,1.1339,0,-9,1,0,0,rectangle,0,-9,1,0,0,-4,-2,"[34,97,159,134,143,131,13,135,37,108]",0,-9,1,0,0,1,70,151,52,1,Purple,Purple.jpg,Red,Red.jpg,,
,,,,,,,,,,,,,,,,,,-4,,,,,,,,,,,,,,,,,,,,,,,,,,,5fc6bcbc6da34d0f8dd78a3a,001,2021-12-17_01h15.35.018,jm_natural_scene_simialrity_2-12-2021_version2,2021.2.3,Win32,59.90893841,5fc6bcbc6da34d0f8dd78a3a,61bbc5c79a1c66460f44041e,61bbd68e5cdb9f6c15099ffb,,,,,,-30,62,1,0,0,response7disk,0.7999,6,-15,1,0,0,rectangle,6,-15,1,0,0,-4,-4,"[34,97,159,134,143,131,13,135,37,108]",6,-15,1,0,0,1,71,152,40,1,DarkBlue,DarkBlue.jpg,Pink,Pink.jpg,,
,,,,,,,,,,,,,,,,,,-1,,,,,,,,,,,,,,,,,,,,,,,,,,,5fc6bcbc6da34d0f8dd78a3a,001,2021-12-17_01h15.35.018,jm_natural_scene_simialrity_2-12-2021_version2,2021.2.3,Win32,59.90893841,5fc6bcbc6da34d0f8dd78a3a,61bbc5c79a1c66460f44041e,61bbd68e5cdb9f6c15099ffb,,,,,,-37,-107,1,0,0,response5disk,1.0833,9,-13,1,0,0,rectangle,9,-13,1,0,0,-4,-4,"[34,97,159,134,143,131,13,135,37,108]",9,-13,1,0,0,1,72,153,61,1,Turquiose,Turquiose.jpg,LightGreen,LightGreen.jpg,,
,,,,,,,,,,,,,,,,,,-1,,,,,,,,,,,,,,,,,,,,,,,,,,,5fc6bcbc6da34d0f8dd78a3a,001,2021-12-17_01h15.35.018,jm_natural_scene_simialrity_2-12-2021_version2,2021.2.3,Win32,59.90893841,5fc6bcbc6da34d0f8dd78a3a,61bbc5c79a1c66460f44041e,61bbd68e5cdb9f6c15099ffb,,,,,,-35,-97,1,0,0,response5disk,1.6837,-16,-11,1,0,0,rectangle,-16,-11,1,0,0,-4,-4,"[34,97,159,134,143,131,13,135,37,108]",-16,-11,1,0,0,1,73,154,62,1,LightBlue,LightBlue.jpg,LightGreen,LightGreen.jpg,,
,,,,,,,,,,,,,,,,,,-2,,,,,,,,,,,,,,,,,,,,,,,,,,,5fc6bcbc6da34d0f8dd78a3a,001,2021-12-17_01h15.35.018,jm_natural_scene_simialrity_2-12-2021_version2,2021.2.3,Win32,59.90893841,5fc6bcbc6da34d0f8dd78a3a,61bbc5c79a1c66460f44041e,61bbd68e5cdb9f6c15099ffb,,,,,,-79,-58,1,0,0,response5disk,1.5666,6,-24,1,0,0,rectangle,6,-24,1,0,0,-4,-3,"[34,97,159,134,143,131,13,135,37,108]",6,-24,1,0,0,1,74,155,63,1,DarkBlue,DarkBlue.jpg,LightGreen,LightGreen.jpg,,
,,,,,,,,,,,,,,,,,,-3,,,,,,,,,,,,,,,,,,,,,,,,,,,5fc6bcbc6da34d0f8dd78a3a,001,2021-12-17_01h15.35.018,jm_natural_scene_simialrity_2-12-2021_version2,2021.2.3,Win32,59.90893841,5fc6bcbc6da34d0f8dd78a3a,61bbc5c79a1c66460f44041e,61bbd68e5cdb9f6c15099ffb,,,,,,-76,42,1,0,0,response7disk,1.0002,2,-20,1,0,0,rectangle,2,-20,1,0,0,-4,2,"[34,97,159,134,143,131,13,135,37,108]",2,-20,1,0,0,1,75,156,8,1,Red,Red.jpg,Purple,Purple.jpg,,
,,,,,,,,,,,,,,,,,,-2,,,,,,,,,,,,,,,,,,,,,,,,,,,5fc6bcbc6da34d0f8dd78a3a,001,2021-12-17_01h15.35.018,jm_natural_scene_simialrity_2-12-2021_version2,2021.2.3,Win32,59.90893841,5fc6bcbc6da34d0f8dd78a3a,61bbc5c79a1c66460f44041e,61bbd68e5cdb9f6c15099ffb,,,,,,-80,-34,1,0,0,response5disk,1.117,-8,-17,1,0,0,rectangle,-8,-17,1,0,0,-4,-2,"[34,97,159,134,143,131,13,135,37,108]",-8,-17,1,0,0,1,76,157,23,1,LightGreen,LightGreen.jpg,Purple,Purple.jpg,,
,,,,,,,,,,,,,,,,,,2,,,,,,,,,,,,,,,,,,,,,,,,,,,5fc6bcbc6da34d0f8dd78a3a,001,2021-12-17_01h15.35.018,jm_natural_scene_simialrity_2-12-2021_version2,2021.2.3,Win32,59.90893841,5fc6bcbc6da34d0f8dd78a3a,61bbc5c79a1c66460f44041e,61bbd68e5cdb9f6c15099ffb,,,,,,97,-55,1,0,0,response3disk,0.9501,4,3,1,0,0,rectangle,116,28,1,0,0,3,3,"[34,97,159,134,143,131,13,135,37,108]",11,8,1,0,0,1,77,158,75,1,DarkBlue,DarkBlue.jpg,LightBlue,LightBlue.jpg,response1disk_3,rectangle
,,,,,,,,,,,,,,,,,,3,,,,,,,,,,,,,,,,,,,,,,,,,,,5fc6bcbc6da34d0f8dd78a3a,001,2021-12-17_01h15.35.018,jm_natural_scene_simialrity_2-12-2021_version2,2021.2.3,Win32,59.90893841,5fc6bcbc6da34d0f8dd78a3a,61bbc5c79a1c66460f44041e,61bbd68e5cdb9f6c15099ffb,,,,,,92,33,1,0,0,response1disk,0.7502,4,-7,1,0,0,rectangle,4,-7,1,0,0,3,-4,"[34,97,159,134,143,131,13,135,37,108]",4,-7,1,0,0,1,78,159,60,1,DarkGreen,DarkGreen.jpg,LightGreen,LightGreen.jpg,,
,,,,,,,,,,,,,,,,,,3,,,,,,,,,,,,,,,,,,,,,,,,,,,5fc6bcbc6da34d0f8dd78a3a,001,2021-12-17_01h15.35.018,jm_natural_scene_simialrity_2-12-2021_version2,2021.2.3,Win32,59.90893841,5fc6bcbc6da34d0f8dd78a3a,61bbc5c79a1c66460f44041e,61bbd68e5cdb9f6c15099ffb,,,,,,90,40,1,0,0,response1disk,0.7167,-7,8,1,0,0,rectangle,-7,8,1,0,0,3,-2,"[34,97,159,134,143,131,13,135,37,108]",-7,8,1,0,0,1,79,160,7,1,Red,Red.jpg,Pink,Pink.jpg,,
,,,,,,,,,,,,,,,,,,1,,,,,,,,,,,,,,,,,,,,,,,,,,,5fc6bcbc6da34d0f8dd78a3a,001,2021-12-17_01h15.35.018,jm_natural_scene_simialrity_2-12-2021_version2,2021.2.3,Win32,59.90893841,5fc6bcbc6da34d0f8dd78a3a,61bbc5c79a1c66460f44041e,61bbd68e5cdb9f6c15099ffb,,,,,,50,-99,1,0,0,response3disk,1.2835,3,-11,1,0,0,rectangle,3,-11,1,0,0,3,-1,"[34,97,159,134,143,131,13,135,37,108]",3,-11,1,0,0,1,80,161,16,1,Yellow,Yellow.jpg,Purple,Purple.jpg,,
