key_resp.keys,key_resp.rt,key_resp_16.keys,key_resp_16.rt,key_resp_2.keys,key_resp_2.rt,key_resp_3.keys,key_resp_3.rt,key_resp_19.keys,key_resp_19.rt,key_resp_10.keys,key_resp_10.rt,mouse_prac.x,mouse_prac.y,mouse_prac.leftButton,mouse_prac.midButton,mouse_prac.rightButton,mouse_prac.clicked_name,similarity,mouse_10.x,mouse_10.y,mouse_10.leftButton,mouse_10.midButton,mouse_10.rightButton,mouse_10.clicked_name,mouse_catch_prac.x,mouse_catch_prac.y,mouse_catch_prac.leftButton,mouse_catch_prac.midButton,mouse_catch_prac.rightButton,catchnumberprac,mouse_6.x,mouse_6.y,mouse_6.leftButton,mouse_6.midButton,mouse_6.rightButton,during_prac.thisRepN,during_prac.thisTrialN,during_prac.thisN,during_prac.thisIndex,during_prac.ran,trailimage1,trial1adress,trailimage2,trial2adress,participant,session,date,expName,psychopyVersion,OS,frameRate,PROLIFIC_PID,STUDY_ID,SESSION_ID,mouse_catch_prac.clicked_name,catchprac,mouse_6.clicked_name,key_resp_22.keys,key_resp_22.rt,mouse.x,mouse.y,mouse.leftButton,mouse.midButton,mouse.rightButton,mouse.clicked_name,response_time,mouse_2.x,mouse_2.y,mouse_2.leftButton,mouse_2.midButton,mouse_2.rightButton,mouse_2.clicked_name,mouse_3.x,mouse_3.y,mouse_3.leftButton,mouse_3.midButton,mouse_3.rightButton,catchresponse,catchnumber,catchtrialorder,mouse_11.x,mouse_11.y,mouse_11.leftButton,mouse_11.midButton,mouse_11.rightButton,trials_2.thisRepN,trials_2.thisTrialN,trials_2.thisN,trials_2.thisIndex,trials_2.ran,image1,image1adress,image2,image2adress,mouse_3.clicked_name,mouse_11.clicked_name
space,76.5879,space,2.614,space,0.4877,space,3.6591,space,9.4009,space,0.9312,-44,-105.5,1,0,0,response5disk_5,-1,-5,12.5,1,0,0,rectangle_8,-5,12.5,1,0,0,-1,-5,12.5,1,0,0,0,0,0,1,1,trail1,trail1.jpg,trail2,trail2.jpg,60f42ad3ca124664fb706b22,001,2021-12-17_01h15.19.458,jm_natural_scene_simialrity_2-12-2021_version2,2021.2.3,Win32,144.0092166,60f42ad3ca124664fb706b22,61bbc5c79a1c66460f44041e,61bbd68d4608fa58ccf9f5ec,,,,,,,,,,,,,,,,,,,,,,,,,,,,,,,,,,,,,,,,,,
,,,,,,,,,,,,43,112.5,1,0,0,response1disk_5,4,3,-3.5,1,0,0,rectangle_8,3,-3.5,1,0,0,-1,3,-3.5,1,0,0,0,1,1,5,1,trail3,trail3.jpg,trail3,trail3.jpg,60f42ad3ca124664fb706b22,001,2021-12-17_01h15.19.458,jm_natural_scene_simialrity_2-12-2021_version2,2021.2.3,Win32,144.0092166,60f42ad3ca124664fb706b22,61bbc5c79a1c66460f44041e,61bbd68d4608fa58ccf9f5ec,,,,,,,,,,,,,,,,,,,,,,,,,,,,,,,,,,,,,,,,,,
,,,,,,,,,,,,44,134.5,1,0,0,response1disk_5,4,-7,6.5,1,0,0,rectangle_8,-37,-82.5,1,0,0,-1,0,1.5,1,0,0,0,2,2,3,1,trail2,trail2.jpg,trail2,trail2.jpg,60f42ad3ca124664fb706b22,001,2021-12-17_01h15.19.458,jm_natural_scene_simialrity_2-12-2021_version2,2021.2.3,Win32,144.0092166,60f42ad3ca124664fb706b22,61bbc5c79a1c66460f44041e,61bbd68d4608fa58ccf9f5ec,response5disk_7,-1,rectangle_4,,,,,,,,,,,,,,,,,,,,,,,,,,,,,,,,,,,,,,,
,,,,,,,,,,,,-48,104.5,1,0,0,response7disk_5,-4,-9,8.5,1,0,0,rectangle_8,-9,8.5,1,0,0,-1,-9,8.5,1,0,0,0,3,3,4,1,trail2,trail2.jpg,trail3,trail3.jpg,60f42ad3ca124664fb706b22,001,2021-12-17_01h15.19.458,jm_natural_scene_simialrity_2-12-2021_version2,2021.2.3,Win32,144.0092166,60f42ad3ca124664fb706b22,61bbc5c79a1c66460f44041e,61bbd68d4608fa58ccf9f5ec,,,,,,,,,,,,,,,,,,,,,,,,,,,,,,,,,,,,,,,,,,
,,,,,,,,,,,,-87,-29.5,1,0,0,response5disk_5,-2,0,0.5,1,0,0,rectangle_8,0,0.5,1,0,0,-1,0,0.5,1,0,0,0,4,4,2,1,trail1,trail1.jpg,trail3,trail3.jpg,60f42ad3ca124664fb706b22,001,2021-12-17_01h15.19.458,jm_natural_scene_simialrity_2-12-2021_version2,2021.2.3,Win32,144.0092166,60f42ad3ca124664fb706b22,61bbc5c79a1c66460f44041e,61bbd68d4608fa58ccf9f5ec,,,,,,,,,,,,,,,,,,,,,,,,,,,,,,,,,,,,,,,,,,
,,,,,,,,,,,,31,101.5,1,0,0,response1disk_5,4,-15,-9.5,1,0,0,rectangle_8,-15,-9.5,1,0,0,-1,-15,-9.5,1,0,0,0,5,5,0,1,trail1,trail1.jpg,trail1,trail1.jpg,60f42ad3ca124664fb706b22,001,2021-12-17_01h15.19.458,jm_natural_scene_simialrity_2-12-2021_version2,2021.2.3,Win32,144.0092166,60f42ad3ca124664fb706b22,61bbc5c79a1c66460f44041e,61bbd68d4608fa58ccf9f5ec,,,,,,,,,,,,,,,,,,,,,,,,,,,,,,,,,,,,,,,,,,
,,,,,,,,,,,,,,,,,,-4,,,,,,,,,,,,,,,,,,,,,,,,,,,60f42ad3ca124664fb706b22,001,2021-12-17_01h15.19.458,jm_natural_scene_simialrity_2-12-2021_version2,2021.2.3,Win32,144.0092166,60f42ad3ca124664fb706b22,61bbc5c79a1c66460f44041e,61bbd68d4608fa58ccf9f5ec,,,,space,0.4021,-37,124.5,1,0,0,response7disk,0.8684,3,-4.5,1,0,0,rectangle,3,-4.5,1,0,0,,-1,"[33,153,90,73,58,92,36,24,138,89]",3,-4.5,1,0,0,0,0,0,61,1,Turquiose,Turquiose.jpg,LightGreen,LightGreen.jpg,,
,,,,,,,,,,,,,,,,,,-4,,,,,,,,,,,,,,,,,,,,,,,,,,,60f42ad3ca124664fb706b22,001,2021-12-17_01h15.19.458,jm_natural_scene_simialrity_2-12-2021_version2,2021.2.3,Win32,144.0092166,60f42ad3ca124664fb706b22,61bbc5c79a1c66460f44041e,61bbd68d4608fa58ccf9f5ec,,,,,,-41,104.5,1,0,0,response7disk,0.6876,-5,22.5,1,0,0,rectangle,-5,22.5,1,0,0,,3,"[33,153,90,73,58,92,36,24,138,89]",-5,22.5,1,0,0,0,1,1,54,1,DarkGreen,DarkGreen.jpg,Yellow,Yellow.jpg,,
,,,,,,,,,,,,,,,,,,-3,,,,,,,,,,,,,,,,,,,,,,,,,,,60f42ad3ca124664fb706b22,001,2021-12-17_01h15.19.458,jm_natural_scene_simialrity_2-12-2021_version2,2021.2.3,Win32,144.0092166,60f42ad3ca124664fb706b22,61bbc5c79a1c66460f44041e,61bbd68d4608fa58ccf9f5ec,,,,,,-79,35.5,1,0,0,response7disk,1.3961,-9,10.5,1,0,0,rectangle,-9,10.5,1,0,0,,-1,"[33,153,90,73,58,92,36,24,138,89]",-9,10.5,1,0,0,0,2,2,16,1,Yellow,Yellow.jpg,Purple,Purple.jpg,,
,,,,,,,,,,,,,,,,,,-2,,,,,,,,,,,,,,,,,,,,,,,,,,,60f42ad3ca124664fb706b22,001,2021-12-17_01h15.19.458,jm_natural_scene_simialrity_2-12-2021_version2,2021.2.3,Win32,144.0092166,60f42ad3ca124664fb706b22,61bbc5c79a1c66460f44041e,61bbd68d4608fa58ccf9f5ec,,,,,,-55,-29.5,1,0,0,response5disk,1,-3,-1.5,1,0,0,rectangle,-3,-1.5,1,0,0,,2,"[33,153,90,73,58,92,36,24,138,89]",-3,-1.5,1,0,0,0,3,3,77,1,Purple,Purple.jpg,LightBlue,LightBlue.jpg,,
,,,,,,,,,,,,,,,,,,-3,,,,,,,,,,,,,,,,,,,,,,,,,,,60f42ad3ca124664fb706b22,001,2021-12-17_01h15.19.458,jm_natural_scene_simialrity_2-12-2021_version2,2021.2.3,Win32,144.0092166,60f42ad3ca124664fb706b22,61bbc5c79a1c66460f44041e,61bbd68d4608fa58ccf9f5ec,,,,,,-82,31.5,1,0,0,response7disk,1.7573,11,-3.5,1,0,0,rectangle,11,-3.5,1,0,0,,1,"[33,153,90,73,58,92,36,24,138,89]",11,-3.5,1,0,0,0,4,4,26,1,DarkGreen,DarkGreen.jpg,LightBlue,LightBlue.jpg,,
,,,,,,,,,,,,,,,,,,-4,,,,,,,,,,,,,,,,,,,,,,,,,,,60f42ad3ca124664fb706b22,001,2021-12-17_01h15.19.458,jm_natural_scene_simialrity_2-12-2021_version2,2021.2.3,Win32,144.0092166,60f42ad3ca124664fb706b22,61bbc5c79a1c66460f44041e,61bbd68d4608fa58ccf9f5ec,,,,,,-41,74.5,1,0,0,response7disk,0.979,-10,7.5,1,0,0,rectangle,-10,7.5,1,0,0,,-3,"[33,153,90,73,58,92,36,24,138,89]",-10,7.5,1,0,0,0,5,5,69,1,Pink,Pink.jpg,DarkGreen,DarkGreen.jpg,,
,,,,,,,,,,,,,,,,,,-4,,,,,,,,,,,,,,,,,,,,,,,,,,,60f42ad3ca124664fb706b22,001,2021-12-17_01h15.19.458,jm_natural_scene_simialrity_2-12-2021_version2,2021.2.3,Win32,144.0092166,60f42ad3ca124664fb706b22,61bbc5c79a1c66460f44041e,61bbd68d4608fa58ccf9f5ec,,,,,,-40,92.5,1,0,0,response7disk,1.0279,3,-3.5,1,0,0,rectangle,3,-3.5,1,0,0,,3,"[33,153,90,73,58,92,36,24,138,89]",3,-3.5,1,0,0,0,6,6,5,1,Red,Red.jpg,LightBlue,LightBlue.jpg,,
,,,,,,,,,,,,,,,,,,-2,,,,,,,,,,,,,,,,,,,,,,,,,,,60f42ad3ca124664fb706b22,001,2021-12-17_01h15.19.458,jm_natural_scene_simialrity_2-12-2021_version2,2021.2.3,Win32,144.0092166,60f42ad3ca124664fb706b22,61bbc5c79a1c66460f44041e,61bbd68d4608fa58ccf9f5ec,,,,,,-81,-26.5,1,0,0,response5disk,1.2572,-4,1.5,1,0,0,rectangle,-4,1.5,1,0,0,,-1,"[33,153,90,73,58,92,36,24,138,89]",-4,1.5,1,0,0,0,7,7,43,1,Pink,Pink.jpg,Purple,Purple.jpg,,
,,,,,,,,,,,,,,,,,,4,,,,,,,,,,,,,,,,,,,,,,,,,,,60f42ad3ca124664fb706b22,001,2021-12-17_01h15.19.458,jm_natural_scene_simialrity_2-12-2021_version2,2021.2.3,Win32,144.0092166,60f42ad3ca124664fb706b22,61bbc5c79a1c66460f44041e,61bbd68d4608fa58ccf9f5ec,,,,,,51,94.5,1,0,0,response1disk,0.8685,0,3.5,1,0,0,rectangle,0,3.5,1,0,0,,-4,"[33,153,90,73,58,92,36,24,138,89]",0,3.5,1,0,0,0,8,8,0,1,Red,Red.jpg,Red,Red.jpg,,
,,,,,,,,,,,,,,,,,,-4,,,,,,,,,,,,,,,,,,,,,,,,,,,60f42ad3ca124664fb706b22,001,2021-12-17_01h15.19.458,jm_natural_scene_simialrity_2-12-2021_version2,2021.2.3,Win32,144.0092166,60f42ad3ca124664fb706b22,61bbc5c79a1c66460f44041e,61bbd68d4608fa58ccf9f5ec,,,,,,-52,77.5,1,0,0,response7disk,1.2533,-16,13.5,1,0,0,rectangle,-16,13.5,1,0,0,,-1,"[33,153,90,73,58,92,36,24,138,89]",-16,13.5,1,0,0,0,9,9,28,1,DarkGreen,DarkGreen.jpg,Pink,Pink.jpg,,
,,,,,,,,,,,,,,,,,,-1,,,,,,,,,,,,,,,,,,,,,,,,,,,60f42ad3ca124664fb706b22,001,2021-12-17_01h15.19.458,jm_natural_scene_simialrity_2-12-2021_version2,2021.2.3,Win32,144.0092166,60f42ad3ca124664fb706b22,61bbc5c79a1c66460f44041e,61bbd68d4608fa58ccf9f5ec,,,,,,-50,-67.5,1,0,0,response5disk,1.2292,-13,2.5,1,0,0,rectangle,-13,2.5,1,0,0,,-3,"[33,153,90,73,58,92,36,24,138,89]",-13,2.5,1,0,0,0,10,10,32,1,Turquiose,Turquiose.jpg,DarkBlue,DarkBlue.jpg,,
,,,,,,,,,,,,,,,,,,-3,,,,,,,,,,,,,,,,,,,,,,,,,,,60f42ad3ca124664fb706b22,001,2021-12-17_01h15.19.458,jm_natural_scene_simialrity_2-12-2021_version2,2021.2.3,Win32,144.0092166,60f42ad3ca124664fb706b22,61bbc5c79a1c66460f44041e,61bbd68d4608fa58ccf9f5ec,,,,,,-97,41.5,1,0,0,response7disk,1.1042,8,-7.5,1,0,0,rectangle,8,-7.5,1,0,0,,-2,"[33,153,90,73,58,92,36,24,138,89]",8,-7.5,1,0,0,0,11,11,33,1,Turquiose,Turquiose.jpg,Pink,Pink.jpg,,
,,,,,,,,,,,,,,,,,,-1,,,,,,,,,,,,,,,,,,,,,,,,,,,60f42ad3ca124664fb706b22,001,2021-12-17_01h15.19.458,jm_natural_scene_simialrity_2-12-2021_version2,2021.2.3,Win32,144.0092166,60f42ad3ca124664fb706b22,61bbc5c79a1c66460f44041e,61bbd68d4608fa58ccf9f5ec,,,,,,-29,-96.5,1,0,0,response5disk,1.6459,0,14.5,1,0,0,rectangle,0,14.5,1,0,0,,-3,"[33,153,90,73,58,92,36,24,138,89]",0,14.5,1,0,0,0,12,12,52,1,Purple,Purple.jpg,Red,Red.jpg,,
,,,,,,,,,,,,,,,,,,-4,,,,,,,,,,,,,,,,,,,,,,,,,,,60f42ad3ca124664fb706b22,001,2021-12-17_01h15.19.458,jm_natural_scene_simialrity_2-12-2021_version2,2021.2.3,Win32,144.0092166,60f42ad3ca124664fb706b22,61bbc5c79a1c66460f44041e,61bbd68d4608fa58ccf9f5ec,,,,,,-44,65.5,1,0,0,response7disk,0.9169,-16,-11.5,1,0,0,rectangle,-16,-11.5,1,0,0,,-2,"[33,153,90,73,58,92,36,24,138,89]",-16,-11.5,1,0,0,0,13,13,76,1,Pink,Pink.jpg,LightBlue,LightBlue.jpg,,
,,,,,,,,,,,,,,,,,,-1,,,,,,,,,,,,,,,,,,,,,,,,,,,60f42ad3ca124664fb706b22,001,2021-12-17_01h15.19.458,jm_natural_scene_simialrity_2-12-2021_version2,2021.2.3,Win32,144.0092166,60f42ad3ca124664fb706b22,61bbc5c79a1c66460f44041e,61bbd68d4608fa58ccf9f5ec,,,,,,-30,-60.5,1,0,0,response5disk,1.4863,5,0.5,1,0,0,rectangle,5,0.5,1,0,0,,1,"[33,153,90,73,58,92,36,24,138,89]",5,0.5,1,0,0,0,14,14,71,1,LightBlue,LightBlue.jpg,Turquiose,Turquiose.jpg,,
,,,,,,,,,,,,,,,,,,-4,,,,,,,,,,,,,,,,,,,,,,,,,,,60f42ad3ca124664fb706b22,001,2021-12-17_01h15.19.458,jm_natural_scene_simialrity_2-12-2021_version2,2021.2.3,Win32,144.0092166,60f42ad3ca124664fb706b22,61bbc5c79a1c66460f44041e,61bbd68d4608fa58ccf9f5ec,,,,,,-37,94.5,1,0,0,response7disk,0.7987,-16,19.5,1,0,0,rectangle,-16,19.5,1,0,0,,1,"[33,153,90,73,58,92,36,24,138,89]",-16,19.5,1,0,0,0,15,15,59,1,Purple,Purple.jpg,Yellow,Yellow.jpg,,
,,,,,,,,,,,,,,,,,,4,,,,,,,,,,,,,,,,,,,,,,,,,,,60f42ad3ca124664fb706b22,001,2021-12-17_01h15.19.458,jm_natural_scene_simialrity_2-12-2021_version2,2021.2.3,Win32,144.0092166,60f42ad3ca124664fb706b22,61bbc5c79a1c66460f44041e,61bbd68d4608fa58ccf9f5ec,,,,,,40,81.5,1,0,0,response1disk,0.7152,-3,10.5,1,0,0,rectangle,-3,10.5,1,0,0,,-4,"[33,153,90,73,58,92,36,24,138,89]",-3,10.5,1,0,0,0,16,16,24,1,DarkGreen,DarkGreen.jpg,DarkGreen,DarkGreen.jpg,,
,,,,,,,,,,,,,,,,,,-1,,,,,,,,,,,,,,,,,,,,,,,,,,,60f42ad3ca124664fb706b22,001,2021-12-17_01h15.19.458,jm_natural_scene_simialrity_2-12-2021_version2,2021.2.3,Win32,144.0092166,60f42ad3ca124664fb706b22,61bbc5c79a1c66460f44041e,61bbd68d4608fa58ccf9f5ec,,,,,,-50,-51.5,1,0,0,response5disk,1.1194,-6,7.5,1,0,0,rectangle,-6,7.5,1,0,0,,-3,"[33,153,90,73,58,92,36,24,138,89]",-6,7.5,1,0,0,0,17,17,38,1,LightBlue,LightBlue.jpg,Purple,Purple.jpg,,
,,,,,,,,,,,,,,,,,,-4,,,,,,,,,,,,,,,,,,,,,,,,,,,60f42ad3ca124664fb706b22,001,2021-12-17_01h15.19.458,jm_natural_scene_simialrity_2-12-2021_version2,2021.2.3,Win32,144.0092166,60f42ad3ca124664fb706b22,61bbc5c79a1c66460f44041e,61bbd68d4608fa58ccf9f5ec,,,,,,-48,79.5,1,0,0,response7disk,0.9236,-11,10.5,1,0,0,rectangle,-11,10.5,1,0,0,,-1,"[33,153,90,73,58,92,36,24,138,89]",-11,10.5,1,0,0,0,18,18,55,1,Turquiose,Turquiose.jpg,Yellow,Yellow.jpg,,
,,,,,,,,,,,,,,,,,,-2,,,,,,,,,,,,,,,,,,,,,,,,,,,60f42ad3ca124664fb706b22,001,2021-12-17_01h15.19.458,jm_natural_scene_simialrity_2-12-2021_version2,2021.2.3,Win32,144.0092166,60f42ad3ca124664fb706b22,61bbc5c79a1c66460f44041e,61bbd68d4608fa58ccf9f5ec,,,,,,-53,-32.5,1,0,0,response5disk,0.8391,0,13.5,1,0,0,rectangle,0,13.5,1,0,0,,3,"[33,153,90,73,58,92,36,24,138,89]",0,13.5,1,0,0,0,19,19,64,1,Pink,Pink.jpg,LightGreen,LightGreen.jpg,,
,,,,,,,,,,,,,,,,,,-2,,,,,,,,,,,,,,,,,,,,,,,,,,,60f42ad3ca124664fb706b22,001,2021-12-17_01h15.19.458,jm_natural_scene_simialrity_2-12-2021_version2,2021.2.3,Win32,144.0092166,60f42ad3ca124664fb706b22,61bbc5c79a1c66460f44041e,61bbd68d4608fa58ccf9f5ec,,,,,,-60,-49.5,1,0,0,response5disk,1.0348,-7,-5.5,1,0,0,rectangle,-7,-5.5,1,0,0,,2,"[33,153,90,73,58,92,36,24,138,89]",-7,-5.5,1,0,0,0,20,20,8,1,Red,Red.jpg,Purple,Purple.jpg,,
,,,,,,,,,,,,,,,,,,-3,,,,,,,,,,,,,,,,,,,,,,,,,,,60f42ad3ca124664fb706b22,001,2021-12-17_01h15.19.458,jm_natural_scene_simialrity_2-12-2021_version2,2021.2.3,Win32,144.0092166,60f42ad3ca124664fb706b22,61bbc5c79a1c66460f44041e,61bbd68d4608fa58ccf9f5ec,,,,,,-87,42.5,1,0,0,response7disk,0.8056,-14,22.5,1,0,0,rectangle,-14,22.5,1,0,0,,-4,"[33,153,90,73,58,92,36,24,138,89]",-14,22.5,1,0,0,0,21,21,36,1,LightBlue,LightBlue.jpg,DarkBlue,DarkBlue.jpg,,
,,,,,,,,,,,,,,,,,,3,,,,,,,,,,,,,,,,,,,,,,,,,,,60f42ad3ca124664fb706b22,001,2021-12-17_01h15.19.458,jm_natural_scene_simialrity_2-12-2021_version2,2021.2.3,Win32,144.0092166,60f42ad3ca124664fb706b22,61bbc5c79a1c66460f44041e,61bbd68d4608fa58ccf9f5ec,,,,,,69,45.5,1,0,0,response1disk,1.8547,11,-2.5,1,0,0,rectangle,11,-2.5,1,0,0,,-3,"[33,153,90,73,58,92,36,24,138,89]",11,-2.5,1,0,0,0,22,22,60,1,DarkGreen,DarkGreen.jpg,LightGreen,LightGreen.jpg,,
,,,,,,,,,,,,,,,,,,-3,,,,,,,,,,,,,,,,,,,,,,,,,,,60f42ad3ca124664fb706b22,001,2021-12-17_01h15.19.458,jm_natural_scene_simialrity_2-12-2021_version2,2021.2.3,Win32,144.0092166,60f42ad3ca124664fb706b22,61bbc5c79a1c66460f44041e,61bbd68d4608fa58ccf9f5ec,,,,,,-63,23.5,1,0,0,response7disk,0.8611,-13,-8.5,1,0,0,rectangle,84,34.5,1,0,0,3,3,"[33,153,90,73,58,92,36,24,138,89]",8,-4.5,1,0,0,0,23,23,29,1,DarkGreen,DarkGreen.jpg,Purple,Purple.jpg,response1disk_3,rectangle
,,,,,,,,,,,,,,,,,,-2,,,,,,,,,,,,,,,,,,,,,,,,,,,60f42ad3ca124664fb706b22,001,2021-12-17_01h15.19.458,jm_natural_scene_simialrity_2-12-2021_version2,2021.2.3,Win32,144.0092166,60f42ad3ca124664fb706b22,61bbc5c79a1c66460f44041e,61bbd68d4608fa58ccf9f5ec,,,,,,-75,-28.5,1,0,0,response5disk,1.271,5,-6.5,1,0,0,rectangle,5,-6.5,1,0,0,3,-1,"[33,153,90,73,58,92,36,24,138,89]",5,-6.5,1,0,0,0,24,24,15,1,Yellow,Yellow.jpg,Pink,Pink.jpg,,
,,,,,,,,,,,,,,,,,,-1,,,,,,,,,,,,,,,,,,,,,,,,,,,60f42ad3ca124664fb706b22,001,2021-12-17_01h15.19.458,jm_natural_scene_simialrity_2-12-2021_version2,2021.2.3,Win32,144.0092166,60f42ad3ca124664fb706b22,61bbc5c79a1c66460f44041e,61bbd68d4608fa58ccf9f5ec,,,,,,-38,-71.5,1,0,0,response5disk,0.493,13,-14.5,1,0,0,rectangle,13,-14.5,1,0,0,3,2,"[33,153,90,73,58,92,36,24,138,89]",13,-14.5,1,0,0,0,25,25,74,1,Purple,Purple.jpg,Turquiose,Turquiose.jpg,,
,,,,,,,,,,,,,,,,,,4,,,,,,,,,,,,,,,,,,,,,,,,,,,60f42ad3ca124664fb706b22,001,2021-12-17_01h15.19.458,jm_natural_scene_simialrity_2-12-2021_version2,2021.2.3,Win32,144.0092166,60f42ad3ca124664fb706b22,61bbc5c79a1c66460f44041e,61bbd68d4608fa58ccf9f5ec,,,,,,34,88.5,1,0,0,response1disk,0.4862,3,-2.5,1,0,0,rectangle,3,-2.5,1,0,0,3,1,"[33,153,90,73,58,92,36,24,138,89]",3,-2.5,1,0,0,0,26,26,44,1,Purple,Purple.jpg,Purple,Purple.jpg,,
,,,,,,,,,,,,,,,,,,-3,,,,,,,,,,,,,,,,,,,,,,,,,,,60f42ad3ca124664fb706b22,001,2021-12-17_01h15.19.458,jm_natural_scene_simialrity_2-12-2021_version2,2021.2.3,Win32,144.0092166,60f42ad3ca124664fb706b22,61bbc5c79a1c66460f44041e,61bbd68d4608fa58ccf9f5ec,,,,,,-73,31.5,1,0,0,response7disk,0.5695,-8,3.5,1,0,0,rectangle,-8,3.5,1,0,0,3,-3,"[33,153,90,73,58,92,36,24,138,89]",-8,3.5,1,0,0,0,27,27,37,1,LightBlue,LightBlue.jpg,Pink,Pink.jpg,,
,,,,,,,,,,,,,,,,,,-2,,,,,,,,,,,,,,,,,,,,,,,,,,,60f42ad3ca124664fb706b22,001,2021-12-17_01h15.19.458,jm_natural_scene_simialrity_2-12-2021_version2,2021.2.3,Win32,144.0092166,60f42ad3ca124664fb706b22,61bbc5c79a1c66460f44041e,61bbd68d4608fa58ccf9f5ec,,,,,,-80,-46.5,1,0,0,response5disk,1.0277,-6,-1.5,1,0,0,rectangle,-6,-1.5,1,0,0,3,-2,"[33,153,90,73,58,92,36,24,138,89]",-6,-1.5,1,0,0,0,28,28,31,1,Turquiose,Turquiose.jpg,LightBlue,LightBlue.jpg,,
,,,,,,,,,,,,,,,,,,-2,,,,,,,,,,,,,,,,,,,,,,,,,,,60f42ad3ca124664fb706b22,001,2021-12-17_01h15.19.458,jm_natural_scene_simialrity_2-12-2021_version2,2021.2.3,Win32,144.0092166,60f42ad3ca124664fb706b22,61bbc5c79a1c66460f44041e,61bbd68d4608fa58ccf9f5ec,,,,,,-63,-33.5,1,0,0,response5disk,0.6599,-8,-10.5,1,0,0,rectangle,-8,-10.5,1,0,0,3,1,"[33,153,90,73,58,92,36,24,138,89]",-8,-10.5,1,0,0,0,29,29,75,1,DarkBlue,DarkBlue.jpg,LightBlue,LightBlue.jpg,,
,,,,,,,,,,,,,,,,,,1,,,,,,,,,,,,,,,,,,,,,,,,,,,60f42ad3ca124664fb706b22,001,2021-12-17_01h15.19.458,jm_natural_scene_simialrity_2-12-2021_version2,2021.2.3,Win32,144.0092166,60f42ad3ca124664fb706b22,61bbc5c79a1c66460f44041e,61bbd68d4608fa58ccf9f5ec,,,,,,48,-81.5,1,0,0,response3disk,1.7519,19,-13.5,1,0,0,rectangle,19,-13.5,1,0,0,3,-1,"[33,153,90,73,58,92,36,24,138,89]",19,-13.5,1,0,0,0,30,30,58,1,Pink,Pink.jpg,Yellow,Yellow.jpg,,
,,,,,,,,,,,,,,,,,,-4,,,,,,,,,,,,,,,,,,,,,,,,,,,60f42ad3ca124664fb706b22,001,2021-12-17_01h15.19.458,jm_natural_scene_simialrity_2-12-2021_version2,2021.2.3,Win32,144.0092166,60f42ad3ca124664fb706b22,61bbc5c79a1c66460f44041e,61bbd68d4608fa58ccf9f5ec,,,,,,-50,68.5,1,0,0,response7disk,0.7023,-2,-12.5,1,0,0,rectangle,-2,-12.5,1,0,0,3,-1,"[33,153,90,73,58,92,36,24,138,89]",-2,-12.5,1,0,0,0,31,31,57,1,DarkBlue,DarkBlue.jpg,Yellow,Yellow.jpg,,
,,,,,,,,,,,,,,,,,,-3,,,,,,,,,,,,,,,,,,,,,,,,,,,60f42ad3ca124664fb706b22,001,2021-12-17_01h15.19.458,jm_natural_scene_simialrity_2-12-2021_version2,2021.2.3,Win32,144.0092166,60f42ad3ca124664fb706b22,61bbc5c79a1c66460f44041e,61bbd68d4608fa58ccf9f5ec,,,,,,-83,41.5,1,0,0,response7disk,0.7163,-6,22.5,1,0,0,rectangle,-42,102.5,1,0,0,-4,-4,"[33,153,90,73,58,92,36,24,138,89]",5,-6.5,1,0,0,0,32,32,34,1,Turquiose,Turquiose.jpg,Purple,Purple.jpg,response7disk_3,rectangle
,,,,,,,,,,,,,,,,,,-2,,,,,,,,,,,,,,,,,,,,,,,,,,,60f42ad3ca124664fb706b22,001,2021-12-17_01h15.19.458,jm_natural_scene_simialrity_2-12-2021_version2,2021.2.3,Win32,144.0092166,60f42ad3ca124664fb706b22,61bbc5c79a1c66460f44041e,61bbd68d4608fa58ccf9f5ec,,,,,,-49,-27.5,1,0,0,response5disk,0.4585,20,-9.5,1,0,0,rectangle,20,-9.5,1,0,0,-4,-1,"[33,153,90,73,58,92,36,24,138,89]",20,-9.5,1,0,0,0,33,33,63,1,DarkBlue,DarkBlue.jpg,LightGreen,LightGreen.jpg,,
,,,,,,,,,,,,,,,,,,-2,,,,,,,,,,,,,,,,,,,,,,,,,,,60f42ad3ca124664fb706b22,001,2021-12-17_01h15.19.458,jm_natural_scene_simialrity_2-12-2021_version2,2021.2.3,Win32,144.0092166,60f42ad3ca124664fb706b22,61bbc5c79a1c66460f44041e,61bbd68d4608fa58ccf9f5ec,,,,,,-66,-37.5,1,0,0,response5disk,0.3125,-2,-10.5,1,0,0,rectangle,-2,-10.5,1,0,0,-4,-4,"[33,153,90,73,58,92,36,24,138,89]",-2,-10.5,1,0,0,0,34,34,73,1,Pink,Pink.jpg,Turquiose,Turquiose.jpg,,
,,,,,,,,,,,,,,,,,,-2,,,,,,,,,,,,,,,,,,,,,,,,,,,60f42ad3ca124664fb706b22,001,2021-12-17_01h15.19.458,jm_natural_scene_simialrity_2-12-2021_version2,2021.2.3,Win32,144.0092166,60f42ad3ca124664fb706b22,61bbc5c79a1c66460f44041e,61bbd68d4608fa58ccf9f5ec,,,,,,-63,-35.5,1,0,0,response5disk,0.309,-12,-12.5,1,0,0,rectangle,-82,28.5,1,0,0,-3,-3,"[33,153,90,73,58,92,36,24,138,89]",-15,3.5,1,0,0,0,35,35,70,1,Purple,Purple.jpg,DarkGreen,DarkGreen.jpg,response7disk_3,rectangle
,,,,,,,,,,,,,,,,,,-3,,,,,,,,,,,,,,,,,,,,,,,,,,,60f42ad3ca124664fb706b22,001,2021-12-17_01h15.19.458,jm_natural_scene_simialrity_2-12-2021_version2,2021.2.3,Win32,144.0092166,60f42ad3ca124664fb706b22,61bbc5c79a1c66460f44041e,61bbd68d4608fa58ccf9f5ec,,,,,,-58,47.5,1,0,0,response7disk,0.5001,16,6.5,1,0,0,rectangle,16,6.5,1,0,0,-3,-1,"[33,153,90,73,58,92,36,24,138,89]",16,6.5,1,0,0,0,36,36,21,1,LightGreen,LightGreen.jpg,DarkBlue,DarkBlue.jpg,,
,,,,,,,,,,,,,,,,,,-2,,,,,,,,,,,,,,,,,,,,,,,,,,,60f42ad3ca124664fb706b22,001,2021-12-17_01h15.19.458,jm_natural_scene_simialrity_2-12-2021_version2,2021.2.3,Win32,144.0092166,60f42ad3ca124664fb706b22,61bbc5c79a1c66460f44041e,61bbd68d4608fa58ccf9f5ec,,,,,,-75,-44.5,1,0,0,response5disk,0.2639,-7,-11.5,1,0,0,rectangle,-7,-11.5,1,0,0,-3,3,"[33,153,90,73,58,92,36,24,138,89]",-7,-11.5,1,0,0,0,37,37,51,1,Pink,Pink.jpg,Red,Red.jpg,,
,,,,,,,,,,,,,,,,,,-2,,,,,,,,,,,,,,,,,,,,,,,,,,,60f42ad3ca124664fb706b22,001,2021-12-17_01h15.19.458,jm_natural_scene_simialrity_2-12-2021_version2,2021.2.3,Win32,144.0092166,60f42ad3ca124664fb706b22,61bbc5c79a1c66460f44041e,61bbd68d4608fa58ccf9f5ec,,,,,,-88,-36.5,1,0,0,response5disk,0.4405,-24,-5.5,1,0,0,rectangle,-24,-5.5,1,0,0,-3,-2,"[33,153,90,73,58,92,36,24,138,89]",-24,-5.5,1,0,0,0,38,38,2,1,Red,Red.jpg,LightGreen,LightGreen.jpg,,
,,,,,,,,,,,,,,,,,,4,,,,,,,,,,,,,,,,,,,,,,,,,,,60f42ad3ca124664fb706b22,001,2021-12-17_01h15.19.458,jm_natural_scene_simialrity_2-12-2021_version2,2021.2.3,Win32,144.0092166,60f42ad3ca124664fb706b22,61bbc5c79a1c66460f44041e,61bbd68d4608fa58ccf9f5ec,,,,,,30,57.5,1,0,0,response1disk,0.4167,1,-10.5,1,0,0,rectangle,1,-10.5,1,0,0,-3,-2,"[33,153,90,73,58,92,36,24,138,89]",1,-10.5,1,0,0,0,39,39,35,1,LightBlue,LightBlue.jpg,LightBlue,LightBlue.jpg,,
,,,,,,,,,,,,,,,,,,-3,,,,,,,,,,,,,,,,,,,,,,,,,,,60f42ad3ca124664fb706b22,001,2021-12-17_01h15.19.458,jm_natural_scene_simialrity_2-12-2021_version2,2021.2.3,Win32,144.0092166,60f42ad3ca124664fb706b22,61bbc5c79a1c66460f44041e,61bbd68d4608fa58ccf9f5ec,,,,,,-79,40.5,1,0,0,response7disk,0.4861,-6,11.5,1,0,0,rectangle,-6,11.5,1,0,0,-3,1,"[33,153,90,73,58,92,36,24,138,89]",-6,11.5,1,0,0,0,40,40,10,1,Yellow,Yellow.jpg,LightGreen,LightGreen.jpg,,
,,,,,,,,,,,,,,,,,,-3,,,,,,,,,,,,,,,,,,,,,,,,,,,60f42ad3ca124664fb706b22,001,2021-12-17_01h15.19.458,jm_natural_scene_simialrity_2-12-2021_version2,2021.2.3,Win32,144.0092166,60f42ad3ca124664fb706b22,61bbc5c79a1c66460f44041e,61bbd68d4608fa58ccf9f5ec,,,,,,-87,39.5,1,0,0,response7disk,0.5293,6,9.5,1,0,0,rectangle,6,9.5,1,0,0,-3,1,"[33,153,90,73,58,92,36,24,138,89]",6,9.5,1,0,0,0,41,41,40,1,DarkBlue,DarkBlue.jpg,Pink,Pink.jpg,,
,,,,,,,,,,,,,,,,,,-3,,,,,,,,,,,,,,,,,,,,,,,,,,,60f42ad3ca124664fb706b22,001,2021-12-17_01h15.19.458,jm_natural_scene_simialrity_2-12-2021_version2,2021.2.3,Win32,144.0092166,60f42ad3ca124664fb706b22,61bbc5c79a1c66460f44041e,61bbd68d4608fa58ccf9f5ec,,,,,,-64,30.5,1,0,0,response7disk,0.4931,8,12.5,1,0,0,rectangle,8,12.5,1,0,0,-3,-1,"[33,153,90,73,58,92,36,24,138,89]",8,12.5,1,0,0,0,42,42,4,1,Red,Red.jpg,Turquiose,Turquiose.jpg,,
,,,,,,,,,,,,,,,,,,-3,,,,,,,,,,,,,,,,,,,,,,,,,,,60f42ad3ca124664fb706b22,001,2021-12-17_01h15.19.458,jm_natural_scene_simialrity_2-12-2021_version2,2021.2.3,Win32,144.0092166,60f42ad3ca124664fb706b22,61bbc5c79a1c66460f44041e,61bbd68d4608fa58ccf9f5ec,,,,,,-95,35.5,1,0,0,response7disk,0.4932,-20,17.5,1,0,0,rectangle,-20,17.5,1,0,0,-3,-3,"[33,153,90,73,58,92,36,24,138,89]",-20,17.5,1,0,0,0,43,43,11,1,Yellow,Yellow.jpg,DarkGreen,DarkGreen.jpg,,
,,,,,,,,,,,,,,,,,,-1,,,,,,,,,,,,,,,,,,,,,,,,,,,60f42ad3ca124664fb706b22,001,2021-12-17_01h15.19.458,jm_natural_scene_simialrity_2-12-2021_version2,2021.2.3,Win32,144.0092166,60f42ad3ca124664fb706b22,61bbc5c79a1c66460f44041e,61bbd68d4608fa58ccf9f5ec,,,,,,-30,-66.5,1,0,0,response5disk,1.2779,-10,-4.5,1,0,0,rectangle,-10,-4.5,1,0,0,-3,-1,"[33,153,90,73,58,92,36,24,138,89]",-10,-4.5,1,0,0,0,44,44,1,1,Red,Red.jpg,Yellow,Yellow.jpg,,
,,,,,,,,,,,,,,,,,,-2,,,,,,,,,,,,,,,,,,,,,,,,,,,60f42ad3ca124664fb706b22,001,2021-12-17_01h15.19.458,jm_natural_scene_simialrity_2-12-2021_version2,2021.2.3,Win32,144.0092166,60f42ad3ca124664fb706b22,61bbc5c79a1c66460f44041e,61bbd68d4608fa58ccf9f5ec,,,,,,-79,-38.5,1,0,0,response5disk,0.7853,-5,-15.5,1,0,0,rectangle,-5,-15.5,1,0,0,-3,-4,"[33,153,90,73,58,92,36,24,138,89]",-5,-15.5,1,0,0,0,45,45,19,1,LightGreen,LightGreen.jpg,Turquiose,Turquiose.jpg,,
,,,,,,,,,,,,,,,,,,-4,,,,,,,,,,,,,,,,,,,,,,,,,,,60f42ad3ca124664fb706b22,001,2021-12-17_01h15.19.458,jm_natural_scene_simialrity_2-12-2021_version2,2021.2.3,Win32,144.0092166,60f42ad3ca124664fb706b22,61bbc5c79a1c66460f44041e,61bbd68d4608fa58ccf9f5ec,,,,,,-54,70.5,1,0,0,response7disk,0.6114,-12,13.5,1,0,0,rectangle,-12,13.5,1,0,0,-3,3,"[33,153,90,73,58,92,36,24,138,89]",-12,13.5,1,0,0,0,46,46,56,1,LightBlue,LightBlue.jpg,Yellow,Yellow.jpg,,
,,,,,,,,,,,,,,,,,,-2,,,,,,,,,,,,,,,,,,,,,,,,,,,60f42ad3ca124664fb706b22,001,2021-12-17_01h15.19.458,jm_natural_scene_simialrity_2-12-2021_version2,2021.2.3,Win32,144.0092166,60f42ad3ca124664fb706b22,61bbc5c79a1c66460f44041e,61bbd68d4608fa58ccf9f5ec,,,,,,-61,-41.5,1,0,0,response5disk,0.6832,-8,-10.5,1,0,0,rectangle,-8,-10.5,1,0,0,-3,-1,"[33,153,90,73,58,92,36,24,138,89]",-8,-10.5,1,0,0,0,47,47,80,1,Purple,Purple.jpg,Pink,Pink.jpg,,
,,,,,,,,,,,,,,,,,,4,,,,,,,,,,,,,,,,,,,,,,,,,,,60f42ad3ca124664fb706b22,001,2021-12-17_01h15.19.458,jm_natural_scene_simialrity_2-12-2021_version2,2021.2.3,Win32,144.0092166,60f42ad3ca124664fb706b22,61bbc5c79a1c66460f44041e,61bbd68d4608fa58ccf9f5ec,,,,,,24,74.5,1,0,0,response1disk,0.6218,-8,7.5,1,0,0,rectangle,-8,7.5,1,0,0,-3,-3,"[33,153,90,73,58,92,36,24,138,89]",-8,7.5,1,0,0,0,48,48,42,1,Pink,Pink.jpg,Pink,Pink.jpg,,
,,,,,,,,,,,,,,,,,,-3,,,,,,,,,,,,,,,,,,,,,,,,,,,60f42ad3ca124664fb706b22,001,2021-12-17_01h15.19.458,jm_natural_scene_simialrity_2-12-2021_version2,2021.2.3,Win32,144.0092166,60f42ad3ca124664fb706b22,61bbc5c79a1c66460f44041e,61bbd68d4608fa58ccf9f5ec,,,,,,-59,28.5,1,0,0,response7disk,0.6247,-7,8.5,1,0,0,rectangle,-7,8.5,1,0,0,-3,3,"[33,153,90,73,58,92,36,24,138,89]",-7,8.5,1,0,0,0,49,49,12,1,Yellow,Yellow.jpg,Turquiose,Turquiose.jpg,,
,,,,,,,,,,,,,,,,,,-3,,,,,,,,,,,,,,,,,,,,,,,,,,,60f42ad3ca124664fb706b22,001,2021-12-17_01h15.19.458,jm_natural_scene_simialrity_2-12-2021_version2,2021.2.3,Win32,144.0092166,60f42ad3ca124664fb706b22,61bbc5c79a1c66460f44041e,61bbd68d4608fa58ccf9f5ec,,,,,,-60,20.5,1,0,0,response7disk,0.6543,-14,14.5,1,0,0,rectangle,-14,14.5,1,0,0,-3,2,"[33,153,90,73,58,92,36,24,138,89]",-14,14.5,1,0,0,0,50,50,66,1,Turquiose,Turquiose.jpg,DarkGreen,DarkGreen.jpg,,
,,,,,,,,,,,,,,,,,,-3,,,,,,,,,,,,,,,,,,,,,,,,,,,60f42ad3ca124664fb706b22,001,2021-12-17_01h15.19.458,jm_natural_scene_simialrity_2-12-2021_version2,2021.2.3,Win32,144.0092166,60f42ad3ca124664fb706b22,61bbc5c79a1c66460f44041e,61bbd68d4608fa58ccf9f5ec,,,,,,-73,33.5,1,0,0,response7disk,0.6398,0,-0.5,1,0,0,rectangle,0,-0.5,1,0,0,-3,-3,"[33,153,90,73,58,92,36,24,138,89]",0,-0.5,1,0,0,0,51,51,23,1,LightGreen,LightGreen.jpg,Purple,Purple.jpg,,
,,,,,,,,,,,,,,,,,,-3,,,,,,,,,,,,,,,,,,,,,,,,,,,60f42ad3ca124664fb706b22,001,2021-12-17_01h15.19.458,jm_natural_scene_simialrity_2-12-2021_version2,2021.2.3,Win32,144.0092166,60f42ad3ca124664fb706b22,61bbc5c79a1c66460f44041e,61bbd68d4608fa58ccf9f5ec,,,,,,-74,44.5,1,0,0,response7disk,0.5934,2,8.5,1,0,0,rectangle,2,8.5,1,0,0,-3,2,"[33,153,90,73,58,92,36,24,138,89]",2,8.5,1,0,0,0,52,52,27,1,DarkGreen,DarkGreen.jpg,DarkBlue,DarkBlue.jpg,,
,,,,,,,,,,,,,,,,,,-3,,,,,,,,,,,,,,,,,,,,,,,,,,,60f42ad3ca124664fb706b22,001,2021-12-17_01h15.19.458,jm_natural_scene_simialrity_2-12-2021_version2,2021.2.3,Win32,144.0092166,60f42ad3ca124664fb706b22,61bbc5c79a1c66460f44041e,61bbd68d4608fa58ccf9f5ec,,,,,,-89,48.5,1,0,0,response7disk,0.531,-12,13.5,1,0,0,rectangle,-12,13.5,1,0,0,-3,-4,"[33,153,90,73,58,92,36,24,138,89]",-12,13.5,1,0,0,0,53,53,22,1,LightGreen,LightGreen.jpg,Pink,Pink.jpg,,
,,,,,,,,,,,,,,,,,,3,,,,,,,,,,,,,,,,,,,,,,,,,,,60f42ad3ca124664fb706b22,001,2021-12-17_01h15.19.458,jm_natural_scene_simialrity_2-12-2021_version2,2021.2.3,Win32,144.0092166,60f42ad3ca124664fb706b22,61bbc5c79a1c66460f44041e,61bbd68d4608fa58ccf9f5ec,,,,,,94,42.5,1,0,0,response1disk,0.872,5,-3.5,1,0,0,rectangle,5,-3.5,1,0,0,-3,-4,"[33,153,90,73,58,92,36,24,138,89]",5,-3.5,1,0,0,0,54,54,18,1,LightGreen,LightGreen.jpg,DarkGreen,DarkGreen.jpg,,
,,,,,,,,,,,,,,,,,,-2,,,,,,,,,,,,,,,,,,,,,,,,,,,60f42ad3ca124664fb706b22,001,2021-12-17_01h15.19.458,jm_natural_scene_simialrity_2-12-2021_version2,2021.2.3,Win32,144.0092166,60f42ad3ca124664fb706b22,61bbc5c79a1c66460f44041e,61bbd68d4608fa58ccf9f5ec,,,,,,-48,-33.5,1,0,0,response5disk,1.1216,-21,-15.5,1,0,0,rectangle,-21,-15.5,1,0,0,-3,3,"[33,153,90,73,58,92,36,24,138,89]",-21,-15.5,1,0,0,0,55,55,3,1,Red,Red.jpg,DarkGreen,DarkGreen.jpg,,
,,,,,,,,,,,,,,,,,,-2,,,,,,,,,,,,,,,,,,,,,,,,,,,60f42ad3ca124664fb706b22,001,2021-12-17_01h15.19.458,jm_natural_scene_simialrity_2-12-2021_version2,2021.2.3,Win32,144.0092166,60f42ad3ca124664fb706b22,61bbc5c79a1c66460f44041e,61bbd68d4608fa58ccf9f5ec,,,,,,-67,-29.5,1,0,0,response5disk,0.5734,16,0.5,1,0,0,rectangle,16,0.5,1,0,0,-3,-1,"[33,153,90,73,58,92,36,24,138,89]",16,0.5,1,0,0,0,56,56,25,1,DarkGreen,DarkGreen.jpg,Turquiose,Turquiose.jpg,,
,,,,,,,,,,,,,,,,,,4,,,,,,,,,,,,,,,,,,,,,,,,,,,60f42ad3ca124664fb706b22,001,2021-12-17_01h15.19.458,jm_natural_scene_simialrity_2-12-2021_version2,2021.2.3,Win32,144.0092166,60f42ad3ca124664fb706b22,61bbc5c79a1c66460f44041e,61bbd68d4608fa58ccf9f5ec,,,,,,28,63.5,1,0,0,response1disk,1.0234,-1,3.5,1,0,0,rectangle,20,-66.5,1,0,0,1,1,"[33,153,90,73,58,92,36,24,138,89]",-1,11.5,1,0,0,0,57,57,39,1,DarkBlue,DarkBlue.jpg,DarkBlue,DarkBlue.jpg,response3disk_3,rectangle
,,,,,,,,,,,,,,,,,,1,,,,,,,,,,,,,,,,,,,,,,,,,,,60f42ad3ca124664fb706b22,001,2021-12-17_01h15.19.458,jm_natural_scene_simialrity_2-12-2021_version2,2021.2.3,Win32,144.0092166,60f42ad3ca124664fb706b22,61bbc5c79a1c66460f44041e,61bbd68d4608fa58ccf9f5ec,,,,,,27,-80.5,1,0,0,response3disk,1.0525,-17,2.5,1,0,0,rectangle,-17,2.5,1,0,0,1,2,"[33,153,90,73,58,92,36,24,138,89]",-17,2.5,1,0,0,0,58,58,7,1,Red,Red.jpg,Pink,Pink.jpg,,
,,,,,,,,,,,,,,,,,,-3,,,,,,,,,,,,,,,,,,,,,,,,,,,60f42ad3ca124664fb706b22,001,2021-12-17_01h15.19.458,jm_natural_scene_simialrity_2-12-2021_version2,2021.2.3,Win32,144.0092166,60f42ad3ca124664fb706b22,61bbc5c79a1c66460f44041e,61bbd68d4608fa58ccf9f5ec,,,,,,-108,36.5,1,0,0,response7disk,0.5347,-15,-6.5,1,0,0,rectangle,-15,-6.5,1,0,0,1,-1,"[33,153,90,73,58,92,36,24,138,89]",-15,-6.5,1,0,0,0,59,59,49,1,LightBlue,LightBlue.jpg,Red,Red.jpg,,
,,,,,,,,,,,,,,,,,,-2,,,,,,,,,,,,,,,,,,,,,,,,,,,60f42ad3ca124664fb706b22,001,2021-12-17_01h15.19.458,jm_natural_scene_simialrity_2-12-2021_version2,2021.2.3,Win32,144.0092166,60f42ad3ca124664fb706b22,61bbc5c79a1c66460f44041e,61bbd68d4608fa58ccf9f5ec,,,,,,-69,-35.5,1,0,0,response5disk,0.4027,-7,-6.5,1,0,0,rectangle,-7,-6.5,1,0,0,1,-1,"[33,153,90,73,58,92,36,24,138,89]",-7,-6.5,1,0,0,0,60,60,6,1,Red,Red.jpg,DarkBlue,DarkBlue.jpg,,
,,,,,,,,,,,,,,,,,,-2,,,,,,,,,,,,,,,,,,,,,,,,,,,60f42ad3ca124664fb706b22,001,2021-12-17_01h15.19.458,jm_natural_scene_simialrity_2-12-2021_version2,2021.2.3,Win32,144.0092166,60f42ad3ca124664fb706b22,61bbc5c79a1c66460f44041e,61bbd68d4608fa58ccf9f5ec,,,,,,-70,-42.5,1,0,0,response5disk,0.3158,-1,-11.5,1,0,0,rectangle,-1,-11.5,1,0,0,1,2,"[33,153,90,73,58,92,36,24,138,89]",-1,-11.5,1,0,0,0,61,61,53,1,LightGreen,LightGreen.jpg,Yellow,Yellow.jpg,,
,,,,,,,,,,,,,,,,,,-2,,,,,,,,,,,,,,,,,,,,,,,,,,,60f42ad3ca124664fb706b22,001,2021-12-17_01h15.19.458,jm_natural_scene_simialrity_2-12-2021_version2,2021.2.3,Win32,144.0092166,60f42ad3ca124664fb706b22,61bbc5c79a1c66460f44041e,61bbd68d4608fa58ccf9f5ec,,,,,,-62,-42.5,1,0,0,response5disk,0.1847,3,-14.5,1,0,0,rectangle,3,-14.5,1,0,0,1,-1,"[33,153,90,73,58,92,36,24,138,89]",3,-14.5,1,0,0,0,62,62,62,1,LightBlue,LightBlue.jpg,LightGreen,LightGreen.jpg,,
,,,,,,,,,,,,,,,,,,-1,,,,,,,,,,,,,,,,,,,,,,,,,,,60f42ad3ca124664fb706b22,001,2021-12-17_01h15.19.458,jm_natural_scene_simialrity_2-12-2021_version2,2021.2.3,Win32,144.0092166,60f42ad3ca124664fb706b22,61bbc5c79a1c66460f44041e,61bbd68d4608fa58ccf9f5ec,,,,,,-50,-57.5,1,0,0,response5disk,0.2501,8,-4.5,1,0,0,rectangle,8,-4.5,1,0,0,1,2,"[33,153,90,73,58,92,36,24,138,89]",8,-4.5,1,0,0,0,63,63,72,1,DarkBlue,DarkBlue.jpg,Turquiose,Turquiose.jpg,,
,,,,,,,,,,,,,,,,,,-1,,,,,,,,,,,,,,,,,,,,,,,,,,,60f42ad3ca124664fb706b22,001,2021-12-17_01h15.19.458,jm_natural_scene_simialrity_2-12-2021_version2,2021.2.3,Win32,144.0092166,60f42ad3ca124664fb706b22,61bbc5c79a1c66460f44041e,61bbd68d4608fa58ccf9f5ec,,,,,,-38,-72.5,1,0,0,response5disk,0.257,-5,-7.5,1,0,0,rectangle,-5,-7.5,1,0,0,1,-3,"[33,153,90,73,58,92,36,24,138,89]",-5,-7.5,1,0,0,0,64,64,67,1,LightBlue,LightBlue.jpg,DarkGreen,DarkGreen.jpg,,
,,,,,,,,,,,,,,,,,,4,,,,,,,,,,,,,,,,,,,,,,,,,,,60f42ad3ca124664fb706b22,001,2021-12-17_01h15.19.458,jm_natural_scene_simialrity_2-12-2021_version2,2021.2.3,Win32,144.0092166,60f42ad3ca124664fb706b22,61bbc5c79a1c66460f44041e,61bbd68d4608fa58ccf9f5ec,,,,,,23,84.5,1,0,0,response1disk,0.9789,-7,-10.5,1,0,0,rectangle,-7,-10.5,1,0,0,1,-4,"[33,153,90,73,58,92,36,24,138,89]",-7,-10.5,1,0,0,0,65,65,9,1,Yellow,Yellow.jpg,Yellow,Yellow.jpg,,
,,,,,,,,,,,,,,,,,,-3,,,,,,,,,,,,,,,,,,,,,,,,,,,60f42ad3ca124664fb706b22,001,2021-12-17_01h15.19.458,jm_natural_scene_simialrity_2-12-2021_version2,2021.2.3,Win32,144.0092166,60f42ad3ca124664fb706b22,61bbc5c79a1c66460f44041e,61bbd68d4608fa58ccf9f5ec,,,,,,-49,26.5,1,0,0,response7disk,0.3433,-13,11.5,1,0,0,rectangle,-13,11.5,1,0,0,1,-3,"[33,153,90,73,58,92,36,24,138,89]",-13,11.5,1,0,0,0,66,66,68,1,DarkBlue,DarkBlue.jpg,DarkGreen,DarkGreen.jpg,,
,,,,,,,,,,,,,,,,,,-2,,,,,,,,,,,,,,,,,,,,,,,,,,,60f42ad3ca124664fb706b22,001,2021-12-17_01h15.19.458,jm_natural_scene_simialrity_2-12-2021_version2,2021.2.3,Win32,144.0092166,60f42ad3ca124664fb706b22,61bbc5c79a1c66460f44041e,61bbd68d4608fa58ccf9f5ec,,,,,,-60,-41.5,1,0,0,response5disk,0.5794,-2,3.5,1,0,0,rectangle,-2,3.5,1,0,0,1,-3,"[33,153,90,73,58,92,36,24,138,89]",-2,3.5,1,0,0,0,67,67,65,1,Purple,Purple.jpg,LightGreen,LightGreen.jpg,,
,,,,,,,,,,,,,,,,,,-1,,,,,,,,,,,,,,,,,,,,,,,,,,,60f42ad3ca124664fb706b22,001,2021-12-17_01h15.19.458,jm_natural_scene_simialrity_2-12-2021_version2,2021.2.3,Win32,144.0092166,60f42ad3ca124664fb706b22,61bbc5c79a1c66460f44041e,61bbd68d4608fa58ccf9f5ec,,,,,,-45,-71.5,1,0,0,response5disk,0.2989,-3,-4.5,1,0,0,rectangle,-3,-4.5,1,0,0,1,-4,"[33,153,90,73,58,92,36,24,138,89]",-3,-4.5,1,0,0,0,68,68,79,1,Purple,Purple.jpg,DarkBlue,DarkBlue.jpg,,
,,,,,,,,,,,,,,,,,,-1,,,,,,,,,,,,,,,,,,,,,,,,,,,60f42ad3ca124664fb706b22,001,2021-12-17_01h15.19.458,jm_natural_scene_simialrity_2-12-2021_version2,2021.2.3,Win32,144.0092166,60f42ad3ca124664fb706b22,61bbc5c79a1c66460f44041e,61bbd68d4608fa58ccf9f5ec,,,,,,-52,-58.5,1,0,0,response5disk,0.3683,-7,-8.5,1,0,0,rectangle,-7,-8.5,1,0,0,1,-1,"[33,153,90,73,58,92,36,24,138,89]",-7,-8.5,1,0,0,0,69,69,46,1,LightGreen,LightGreen.jpg,Red,Red.jpg,,
,,,,,,,,,,,,,,,,,,4,,,,,,,,,,,,,,,,,,,,,,,,,,,60f42ad3ca124664fb706b22,001,2021-12-17_01h15.19.458,jm_natural_scene_simialrity_2-12-2021_version2,2021.2.3,Win32,144.0092166,60f42ad3ca124664fb706b22,61bbc5c79a1c66460f44041e,61bbd68d4608fa58ccf9f5ec,,,,,,23,72.5,1,0,0,response1disk,0.5048,2,-1.5,1,0,0,rectangle,2,-1.5,1,0,0,1,1,"[33,153,90,73,58,92,36,24,138,89]",2,-1.5,1,0,0,0,70,70,30,1,Turquiose,Turquiose.jpg,Turquiose,Turquiose.jpg,,
,,,,,,,,,,,,,,,,,,-2,,,,,,,,,,,,,,,,,,,,,,,,,,,60f42ad3ca124664fb706b22,001,2021-12-17_01h15.19.458,jm_natural_scene_simialrity_2-12-2021_version2,2021.2.3,Win32,144.0092166,60f42ad3ca124664fb706b22,61bbc5c79a1c66460f44041e,61bbd68d4608fa58ccf9f5ec,,,,,,-65,-36.5,1,0,0,response5disk,0.8131,-10,0.5,1,0,0,rectangle,-10,0.5,1,0,0,1,-3,"[33,153,90,73,58,92,36,24,138,89]",-10,0.5,1,0,0,0,71,71,20,1,LightGreen,LightGreen.jpg,LightBlue,LightBlue.jpg,,
,,,,,,,,,,,,,,,,,,-1,,,,,,,,,,,,,,,,,,,,,,,,,,,60f42ad3ca124664fb706b22,001,2021-12-17_01h15.19.458,jm_natural_scene_simialrity_2-12-2021_version2,2021.2.3,Win32,144.0092166,60f42ad3ca124664fb706b22,61bbc5c79a1c66460f44041e,61bbd68d4608fa58ccf9f5ec,,,,,,-40,-62.5,1,0,0,response5disk,0.3785,0,-5.5,1,0,0,rectangle,-33,65.5,1,0,0,-4,-4,"[33,153,90,73,58,92,36,24,138,89]",-14,4.5,1,0,0,0,72,72,50,1,DarkBlue,DarkBlue.jpg,Red,Red.jpg,response7disk_3,rectangle
,,,,,,,,,,,,,,,,,,-2,,,,,,,,,,,,,,,,,,,,,,,,,,,60f42ad3ca124664fb706b22,001,2021-12-17_01h15.19.458,jm_natural_scene_simialrity_2-12-2021_version2,2021.2.3,Win32,144.0092166,60f42ad3ca124664fb706b22,61bbc5c79a1c66460f44041e,61bbd68d4608fa58ccf9f5ec,,,,,,-59,-36.5,1,0,0,response5disk,0.4307,-17,-6.5,1,0,0,rectangle,-17,-6.5,1,0,0,-4,1,"[33,153,90,73,58,92,36,24,138,89]",-17,-6.5,1,0,0,0,73,73,45,1,Yellow,Yellow.jpg,Red,Red.jpg,,
,,,,,,,,,,,,,,,,,,-1,,,,,,,,,,,,,,,,,,,,,,,,,,,60f42ad3ca124664fb706b22,001,2021-12-17_01h15.19.458,jm_natural_scene_simialrity_2-12-2021_version2,2021.2.3,Win32,144.0092166,60f42ad3ca124664fb706b22,61bbc5c79a1c66460f44041e,61bbd68d4608fa58ccf9f5ec,,,,,,-34,-72.5,1,0,0,response5disk,0.5,-3,-18.5,1,0,0,rectangle,-3,-18.5,1,0,0,-4,3,"[33,153,90,73,58,92,36,24,138,89]",-3,-18.5,1,0,0,0,74,74,48,1,Turquiose,Turquiose.jpg,Red,Red.jpg,,
,,,,,,,,,,,,,,,,,,-3,,,,,,,,,,,,,,,,,,,,,,,,,,,60f42ad3ca124664fb706b22,001,2021-12-17_01h15.19.458,jm_natural_scene_simialrity_2-12-2021_version2,2021.2.3,Win32,144.0092166,60f42ad3ca124664fb706b22,61bbc5c79a1c66460f44041e,61bbd68d4608fa58ccf9f5ec,,,,,,-75,52.5,1,0,0,response7disk,0.4792,-18,21.5,1,0,0,rectangle,-18,21.5,1,0,0,-4,3,"[33,153,90,73,58,92,36,24,138,89]",-18,21.5,1,0,0,0,75,75,78,1,Pink,Pink.jpg,DarkBlue,DarkBlue.jpg,,
,,,,,,,,,,,,,,,,,,-3,,,,,,,,,,,,,,,,,,,,,,,,,,,60f42ad3ca124664fb706b22,001,2021-12-17_01h15.19.458,jm_natural_scene_simialrity_2-12-2021_version2,2021.2.3,Win32,144.0092166,60f42ad3ca124664fb706b22,61bbc5c79a1c66460f44041e,61bbd68d4608fa58ccf9f5ec,,,,,,-59,25.5,1,0,0,response7disk,0.4861,14,-19.5,1,0,0,rectangle,14,-19.5,1,0,0,-4,-3,"[33,153,90,73,58,92,36,24,138,89]",14,-19.5,1,0,0,0,76,76,13,1,Yellow,Yellow.jpg,LightBlue,LightBlue.jpg,,
,,,,,,,,,,,,,,,,,,4,,,,,,,,,,,,,,,,,,,,,,,,,,,60f42ad3ca124664fb706b22,001,2021-12-17_01h15.19.458,jm_natural_scene_simialrity_2-12-2021_version2,2021.2.3,Win32,144.0092166,60f42ad3ca124664fb706b22,61bbc5c79a1c66460f44041e,61bbd68d4608fa58ccf9f5ec,,,,,,68,118.5,1,0,0,response1disk,27.4138,5,15.5,1,0,0,rectangle,5,15.5,1,0,0,-4,-3,"[33,153,90,73,58,92,36,24,138,89]",5,15.5,1,0,0,0,77,77,47,1,DarkGreen,DarkGreen.jpg,Red,Red.jpg,,
,,,,,,,,,,,,,,,,,,-2,,,,,,,,,,,,,,,,,,,,,,,,,,,60f42ad3ca124664fb706b22,001,2021-12-17_01h15.19.458,jm_natural_scene_simialrity_2-12-2021_version2,2021.2.3,Win32,144.0092166,60f42ad3ca124664fb706b22,61bbc5c79a1c66460f44041e,61bbd68d4608fa58ccf9f5ec,,,,,,-60,-21.5,1,0,0,response5disk,0.5978,-5,5.5,1,0,0,rectangle,-5,5.5,1,0,0,-4,-3,"[33,153,90,73,58,92,36,24,138,89]",-5,5.5,1,0,0,0,78,78,41,1,DarkBlue,DarkBlue.jpg,Purple,Purple.jpg,,
,,,,,,,,,,,,,,,,,,-1,,,,,,,,,,,,,,,,,,,,,,,,,,,60f42ad3ca124664fb706b22,001,2021-12-17_01h15.19.458,jm_natural_scene_simialrity_2-12-2021_version2,2021.2.3,Win32,144.0092166,60f42ad3ca124664fb706b22,61bbc5c79a1c66460f44041e,61bbd68d4608fa58ccf9f5ec,,,,,,-93,-127.5,1,0,0,response5disk,0.0966,-2,11.5,1,0,0,rectangle,-2,11.5,1,0,0,-4,3,"[33,153,90,73,58,92,36,24,138,89]",-2,11.5,1,0,0,0,79,79,17,1,LightGreen,LightGreen.jpg,LightGreen,LightGreen.jpg,,
,,,,,,,,,,,,,,,,,,-4,,,,,,,,,,,,,,,,,,,,,,,,,,,60f42ad3ca124664fb706b22,001,2021-12-17_01h15.19.458,jm_natural_scene_simialrity_2-12-2021_version2,2021.2.3,Win32,144.0092166,60f42ad3ca124664fb706b22,61bbc5c79a1c66460f44041e,61bbd68d4608fa58ccf9f5ec,,,,,,-44,61.5,1,0,0,response7disk,4.7139,-9,-13.5,1,0,0,rectangle,-9,-13.5,1,0,0,-4,2,"[33,153,90,73,58,92,36,24,138,89]",-9,-13.5,1,0,0,0,80,80,14,1,Yellow,Yellow.jpg,DarkBlue,DarkBlue.jpg,,
,,,,,,,,,,,,,,,,,,4,,,,,,,,,,,,,,,,,,,,,,,,,,,60f42ad3ca124664fb706b22,001,2021-12-17_01h15.19.458,jm_natural_scene_simialrity_2-12-2021_version2,2021.2.3,Win32,144.0092166,60f42ad3ca124664fb706b22,61bbc5c79a1c66460f44041e,61bbd68d4608fa58ccf9f5ec,,,,,,23,101.5,1,0,0,response1disk,0.4768,-18,-6.5,1,0,0,rectangle,-18,-6.5,1,0,0,-4,-3,"[33,153,90,73,58,92,36,24,138,89]",-18,-6.5,1,0,0,1,0,81,44,1,Purple,Purple.jpg,Purple,Purple.jpg,,
,,,,,,,,,,,,,,,,,,-2,,,,,,,,,,,,,,,,,,,,,,,,,,,60f42ad3ca124664fb706b22,001,2021-12-17_01h15.19.458,jm_natural_scene_simialrity_2-12-2021_version2,2021.2.3,Win32,144.0092166,60f42ad3ca124664fb706b22,61bbc5c79a1c66460f44041e,61bbd68d4608fa58ccf9f5ec,,,,,,-68,-17.5,1,0,0,response5disk,0.7132,-5,12.5,1,0,0,rectangle,-5,12.5,1,0,0,-4,-2,"[33,153,90,73,58,92,36,24,138,89]",-5,12.5,1,0,0,1,1,82,55,1,Turquiose,Turquiose.jpg,Yellow,Yellow.jpg,,
,,,,,,,,,,,,,,,,,,-1,,,,,,,,,,,,,,,,,,,,,,,,,,,60f42ad3ca124664fb706b22,001,2021-12-17_01h15.19.458,jm_natural_scene_simialrity_2-12-2021_version2,2021.2.3,Win32,144.0092166,60f42ad3ca124664fb706b22,61bbc5c79a1c66460f44041e,61bbd68d4608fa58ccf9f5ec,,,,,,-29,-48.5,1,0,0,response5disk,0.3617,8,-3.5,1,0,0,rectangle,8,-3.5,1,0,0,-4,-3,"[33,153,90,73,58,92,36,24,138,89]",8,-3.5,1,0,0,1,2,83,12,1,Yellow,Yellow.jpg,Turquiose,Turquiose.jpg,,
,,,,,,,,,,,,,,,,,,-2,,,,,,,,,,,,,,,,,,,,,,,,,,,60f42ad3ca124664fb706b22,001,2021-12-17_01h15.19.458,jm_natural_scene_simialrity_2-12-2021_version2,2021.2.3,Win32,144.0092166,60f42ad3ca124664fb706b22,61bbc5c79a1c66460f44041e,61bbd68d4608fa58ccf9f5ec,,,,,,-57,-32.5,1,0,0,response5disk,0.472,-4,11.5,1,0,0,rectangle,-4,11.5,1,0,0,-4,1,"[33,153,90,73,58,92,36,24,138,89]",-4,11.5,1,0,0,1,3,84,20,1,LightGreen,LightGreen.jpg,LightBlue,LightBlue.jpg,,
,,,,,,,,,,,,,,,,,,-2,,,,,,,,,,,,,,,,,,,,,,,,,,,60f42ad3ca124664fb706b22,001,2021-12-17_01h15.19.458,jm_natural_scene_simialrity_2-12-2021_version2,2021.2.3,Win32,144.0092166,60f42ad3ca124664fb706b22,61bbc5c79a1c66460f44041e,61bbd68d4608fa58ccf9f5ec,,,,,,-58,-37.5,1,0,0,response5disk,0.3822,-3,3.5,1,0,0,rectangle,-3,3.5,1,0,0,-4,-3,"[33,153,90,73,58,92,36,24,138,89]",-3,3.5,1,0,0,1,4,85,21,1,LightGreen,LightGreen.jpg,DarkBlue,DarkBlue.jpg,,
,,,,,,,,,,,,,,,,,,-2,,,,,,,,,,,,,,,,,,,,,,,,,,,60f42ad3ca124664fb706b22,001,2021-12-17_01h15.19.458,jm_natural_scene_simialrity_2-12-2021_version2,2021.2.3,Win32,144.0092166,60f42ad3ca124664fb706b22,61bbc5c79a1c66460f44041e,61bbd68d4608fa58ccf9f5ec,,,,,,-54,-29.5,1,0,0,response5disk,0.3405,-7,6.5,1,0,0,rectangle,-7,6.5,1,0,0,-4,1,"[33,153,90,73,58,92,36,24,138,89]",-7,6.5,1,0,0,1,5,86,5,1,Red,Red.jpg,LightBlue,LightBlue.jpg,,
,,,,,,,,,,,,,,,,,,-2,,,,,,,,,,,,,,,,,,,,,,,,,,,60f42ad3ca124664fb706b22,001,2021-12-17_01h15.19.458,jm_natural_scene_simialrity_2-12-2021_version2,2021.2.3,Win32,144.0092166,60f42ad3ca124664fb706b22,61bbc5c79a1c66460f44041e,61bbd68d4608fa58ccf9f5ec,,,,,,-47,-25.5,1,0,0,response5disk,0.3477,5,4.5,1,0,0,rectangle,5,4.5,1,0,0,-4,-4,"[33,153,90,73,58,92,36,24,138,89]",5,4.5,1,0,0,1,6,87,19,1,LightGreen,LightGreen.jpg,Turquiose,Turquiose.jpg,,
,,,,,,,,,,,,,,,,,,-2,,,,,,,,,,,,,,,,,,,,,,,,,,,60f42ad3ca124664fb706b22,001,2021-12-17_01h15.19.458,jm_natural_scene_simialrity_2-12-2021_version2,2021.2.3,Win32,144.0092166,60f42ad3ca124664fb706b22,61bbc5c79a1c66460f44041e,61bbd68d4608fa58ccf9f5ec,,,,,,-62,-27.5,1,0,0,response5disk,0.3749,-21,-4.5,1,0,0,rectangle,106,-51.5,1,0,0,2,2,"[33,153,90,73,58,92,36,24,138,89]",-17,-9.5,1,0,0,1,7,88,43,1,Pink,Pink.jpg,Purple,Purple.jpg,response3disk_3,rectangle
,,,,,,,,,,,,,,,,,,2,,,,,,,,,,,,,,,,,,,,,,,,,,,60f42ad3ca124664fb706b22,001,2021-12-17_01h15.19.458,jm_natural_scene_simialrity_2-12-2021_version2,2021.2.3,Win32,144.0092166,60f42ad3ca124664fb706b22,61bbc5c79a1c66460f44041e,61bbd68d4608fa58ccf9f5ec,,,,,,38,-20.5,1,0,0,response3disk,0.4792,-10,1.5,1,0,0,rectangle,-87,34.5,1,0,0,-3,-3,"[33,153,90,73,58,92,36,24,138,89]",-21,12.5,1,0,0,1,8,89,47,1,DarkGreen,DarkGreen.jpg,Red,Red.jpg,response7disk_3,rectangle
,,,,,,,,,,,,,,,,,,-3,,,,,,,,,,,,,,,,,,,,,,,,,,,60f42ad3ca124664fb706b22,001,2021-12-17_01h15.19.458,jm_natural_scene_simialrity_2-12-2021_version2,2021.2.3,Win32,144.0092166,60f42ad3ca124664fb706b22,61bbc5c79a1c66460f44041e,61bbd68d4608fa58ccf9f5ec,,,,,,-89,26.5,1,0,0,response7disk,0.4375,-16,-9.5,1,0,0,rectangle,-16,-9.5,1,0,0,-3,1,"[33,153,90,73,58,92,36,24,138,89]",-16,-9.5,1,0,0,1,9,90,26,1,DarkGreen,DarkGreen.jpg,LightBlue,LightBlue.jpg,,
,,,,,,,,,,,,,,,,,,-3,,,,,,,,,,,,,,,,,,,,,,,,,,,60f42ad3ca124664fb706b22,001,2021-12-17_01h15.19.458,jm_natural_scene_simialrity_2-12-2021_version2,2021.2.3,Win32,144.0092166,60f42ad3ca124664fb706b22,61bbc5c79a1c66460f44041e,61bbd68d4608fa58ccf9f5ec,,,,,,-89,54.5,1,0,0,response7disk,0.0486,19,3.5,1,0,0,rectangle,-37,76.5,1,0,0,-4,-4,"[33,153,90,73,58,92,36,24,138,89]",-13,19.5,1,0,0,1,10,91,38,1,LightBlue,LightBlue.jpg,Purple,Purple.jpg,response7disk_3,rectangle
,,,,,,,,,,,,,,,,,,-3,,,,,,,,,,,,,,,,,,,,,,,,,,,60f42ad3ca124664fb706b22,001,2021-12-17_01h15.19.458,jm_natural_scene_simialrity_2-12-2021_version2,2021.2.3,Win32,144.0092166,60f42ad3ca124664fb706b22,61bbc5c79a1c66460f44041e,61bbd68d4608fa58ccf9f5ec,,,,,,-52,27.5,1,0,0,response7disk,0.3333,-15,11.5,1,0,0,rectangle,-15,11.5,1,0,0,-4,-1,"[33,153,90,73,58,92,36,24,138,89]",-15,11.5,1,0,0,1,11,92,76,1,Pink,Pink.jpg,LightBlue,LightBlue.jpg,,
,,,,,,,,,,,,,,,,,,-4,,,,,,,,,,,,,,,,,,,,,,,,,,,60f42ad3ca124664fb706b22,001,2021-12-17_01h15.19.458,jm_natural_scene_simialrity_2-12-2021_version2,2021.2.3,Win32,144.0092166,60f42ad3ca124664fb706b22,61bbc5c79a1c66460f44041e,61bbd68d4608fa58ccf9f5ec,,,,,,-41,77.5,1,0,0,response7disk,0.0829,-10,5.5,1,0,0,rectangle,-10,5.5,1,0,0,-4,-1,"[33,153,90,73,58,92,36,24,138,89]",-10,5.5,1,0,0,1,12,93,70,1,Purple,Purple.jpg,DarkGreen,DarkGreen.jpg,,
,,,,,,,,,,,,,,,,,,-3,,,,,,,,,,,,,,,,,,,,,,,,,,,60f42ad3ca124664fb706b22,001,2021-12-17_01h15.19.458,jm_natural_scene_simialrity_2-12-2021_version2,2021.2.3,Win32,144.0092166,60f42ad3ca124664fb706b22,61bbc5c79a1c66460f44041e,61bbd68d4608fa58ccf9f5ec,,,,,,-50,40.5,1,0,0,response7disk,0.2988,-18,20.5,1,0,0,rectangle,-18,20.5,1,0,0,-4,2,"[33,153,90,73,58,92,36,24,138,89]",-18,20.5,1,0,0,1,13,94,4,1,Red,Red.jpg,Turquiose,Turquiose.jpg,,
,,,,,,,,,,,,,,,,,,4,,,,,,,,,,,,,,,,,,,,,,,,,,,60f42ad3ca124664fb706b22,001,2021-12-17_01h15.19.458,jm_natural_scene_simialrity_2-12-2021_version2,2021.2.3,Win32,144.0092166,60f42ad3ca124664fb706b22,61bbc5c79a1c66460f44041e,61bbd68d4608fa58ccf9f5ec,,,,,,51,86.5,1,0,0,response1disk,0.2425,4,9.5,1,0,0,rectangle,4,9.5,1,0,0,-4,-2,"[33,153,90,73,58,92,36,24,138,89]",4,9.5,1,0,0,1,14,95,1,1,Red,Red.jpg,Yellow,Yellow.jpg,,
,,,,,,,,,,,,,,,,,,-2,,,,,,,,,,,,,,,,,,,,,,,,,,,60f42ad3ca124664fb706b22,001,2021-12-17_01h15.19.458,jm_natural_scene_simialrity_2-12-2021_version2,2021.2.3,Win32,144.0092166,60f42ad3ca124664fb706b22,61bbc5c79a1c66460f44041e,61bbd68d4608fa58ccf9f5ec,,,,,,-73,-26.5,1,0,0,response5disk,0.354,-14,-0.5,1,0,0,rectangle,-14,-0.5,1,0,0,-4,-1,"[33,153,90,73,58,92,36,24,138,89]",-14,-0.5,1,0,0,1,15,96,41,1,DarkBlue,DarkBlue.jpg,Purple,Purple.jpg,,
,,,,,,,,,,,,,,,,,,2,,,,,,,,,,,,,,,,,,,,,,,,,,,60f42ad3ca124664fb706b22,001,2021-12-17_01h15.19.458,jm_natural_scene_simialrity_2-12-2021_version2,2021.2.3,Win32,144.0092166,60f42ad3ca124664fb706b22,61bbc5c79a1c66460f44041e,61bbd68d4608fa58ccf9f5ec,,,,,,39,-37.5,1,0,0,response3disk,0.2842,4,10.5,1,0,0,rectangle,4,10.5,1,0,0,-4,-2,"[33,153,90,73,58,92,36,24,138,89]",4,10.5,1,0,0,1,16,97,39,1,DarkBlue,DarkBlue.jpg,DarkBlue,DarkBlue.jpg,,
,,,,,,,,,,,,,,,,,,-3,,,,,,,,,,,,,,,,,,,,,,,,,,,60f42ad3ca124664fb706b22,001,2021-12-17_01h15.19.458,jm_natural_scene_simialrity_2-12-2021_version2,2021.2.3,Win32,144.0092166,60f42ad3ca124664fb706b22,61bbc5c79a1c66460f44041e,61bbd68d4608fa58ccf9f5ec,,,,,,-50,24.5,1,0,0,response7disk,0.4794,1,-0.5,1,0,0,rectangle,1,-0.5,1,0,0,-4,1,"[33,153,90,73,58,92,36,24,138,89]",1,-0.5,1,0,0,1,17,98,53,1,LightGreen,LightGreen.jpg,Yellow,Yellow.jpg,,
,,,,,,,,,,,,,,,,,,-2,,,,,,,,,,,,,,,,,,,,,,,,,,,60f42ad3ca124664fb706b22,001,2021-12-17_01h15.19.458,jm_natural_scene_simialrity_2-12-2021_version2,2021.2.3,Win32,144.0092166,60f42ad3ca124664fb706b22,61bbc5c79a1c66460f44041e,61bbd68d4608fa58ccf9f5ec,,,,,,-49,-19.5,1,0,0,response5disk,0.3061,-9,0.5,1,0,0,rectangle,-9,0.5,1,0,0,-4,1,"[33,153,90,73,58,92,36,24,138,89]",-9,0.5,1,0,0,1,18,99,74,1,Purple,Purple.jpg,Turquiose,Turquiose.jpg,,
,,,,,,,,,,,,,,,,,,-2,,,,,,,,,,,,,,,,,,,,,,,,,,,60f42ad3ca124664fb706b22,001,2021-12-17_01h15.19.458,jm_natural_scene_simialrity_2-12-2021_version2,2021.2.3,Win32,144.0092166,60f42ad3ca124664fb706b22,61bbc5c79a1c66460f44041e,61bbd68d4608fa58ccf9f5ec,,,,,,-59,-20.5,1,0,0,response5disk,0.535,-10,6.5,1,0,0,rectangle,-10,6.5,1,0,0,-4,2,"[33,153,90,73,58,92,36,24,138,89]",-10,6.5,1,0,0,1,19,100,49,1,LightBlue,LightBlue.jpg,Red,Red.jpg,,
,,,,,,,,,,,,,,,,,,3,,,,,,,,,,,,,,,,,,,,,,,,,,,60f42ad3ca124664fb706b22,001,2021-12-17_01h15.19.458,jm_natural_scene_simialrity_2-12-2021_version2,2021.2.3,Win32,144.0092166,60f42ad3ca124664fb706b22,61bbc5c79a1c66460f44041e,61bbd68d4608fa58ccf9f5ec,,,,,,63,22.5,1,0,0,response1disk,0.9168,8,-23.5,1,0,0,rectangle,8,-23.5,1,0,0,-4,-2,"[33,153,90,73,58,92,36,24,138,89]",8,-23.5,1,0,0,1,20,101,45,1,Yellow,Yellow.jpg,Red,Red.jpg,,
,,,,,,,,,,,,,,,,,,-2,,,,,,,,,,,,,,,,,,,,,,,,,,,60f42ad3ca124664fb706b22,001,2021-12-17_01h15.19.458,jm_natural_scene_simialrity_2-12-2021_version2,2021.2.3,Win32,144.0092166,60f42ad3ca124664fb706b22,61bbc5c79a1c66460f44041e,61bbd68d4608fa58ccf9f5ec,,,,,,-81,-41.5,1,0,0,response5disk,0.4367,21,-16.5,1,0,0,rectangle,21,-16.5,1,0,0,-4,-4,"[33,153,90,73,58,92,36,24,138,89]",21,-16.5,1,0,0,1,21,102,56,1,LightBlue,LightBlue.jpg,Yellow,Yellow.jpg,,
,,,,,,,,,,,,,,,,,,4,,,,,,,,,,,,,,,,,,,,,,,,,,,60f42ad3ca124664fb706b22,001,2021-12-17_01h15.19.458,jm_natural_scene_simialrity_2-12-2021_version2,2021.2.3,Win32,144.0092166,60f42ad3ca124664fb706b22,61bbc5c79a1c66460f44041e,61bbd68d4608fa58ccf9f5ec,,,,,,48,62.5,1,0,0,response1disk,0.5136,-11,-4.5,1,0,0,rectangle,-11,-4.5,1,0,0,-4,-1,"[33,153,90,73,58,92,36,24,138,89]",-11,-4.5,1,0,0,1,22,103,42,1,Pink,Pink.jpg,Pink,Pink.jpg,,
,,,,,,,,,,,,,,,,,,-2,,,,,,,,,,,,,,,,,,,,,,,,,,,60f42ad3ca124664fb706b22,001,2021-12-17_01h15.19.458,jm_natural_scene_simialrity_2-12-2021_version2,2021.2.3,Win32,144.0092166,60f42ad3ca124664fb706b22,61bbc5c79a1c66460f44041e,61bbd68d4608fa58ccf9f5ec,,,,,,-65,-18.5,1,0,0,response5disk,0.4827,1,13.5,1,0,0,rectangle,1,13.5,1,0,0,-4,3,"[33,153,90,73,58,92,36,24,138,89]",1,13.5,1,0,0,1,23,104,13,1,Yellow,Yellow.jpg,LightBlue,LightBlue.jpg,,
,,,,,,,,,,,,,,,,,,4,,,,,,,,,,,,,,,,,,,,,,,,,,,60f42ad3ca124664fb706b22,001,2021-12-17_01h15.19.458,jm_natural_scene_simialrity_2-12-2021_version2,2021.2.3,Win32,144.0092166,60f42ad3ca124664fb706b22,61bbc5c79a1c66460f44041e,61bbd68d4608fa58ccf9f5ec,,,,,,31,75.5,1,0,0,response1disk,0.4445,-4,-11.5,1,0,0,rectangle,-4,-11.5,1,0,0,-4,-1,"[33,153,90,73,58,92,36,24,138,89]",-4,-11.5,1,0,0,1,24,105,35,1,LightBlue,LightBlue.jpg,LightBlue,LightBlue.jpg,,
,,,,,,,,,,,,,,,,,,3,,,,,,,,,,,,,,,,,,,,,,,,,,,60f42ad3ca124664fb706b22,001,2021-12-17_01h15.19.458,jm_natural_scene_simialrity_2-12-2021_version2,2021.2.3,Win32,144.0092166,60f42ad3ca124664fb706b22,61bbc5c79a1c66460f44041e,61bbd68d4608fa58ccf9f5ec,,,,,,50,42.5,1,0,0,response1disk,0.6532,1,-4.5,1,0,0,rectangle,1,-4.5,1,0,0,-4,-4,"[33,153,90,73,58,92,36,24,138,89]",1,-4.5,1,0,0,1,25,106,18,1,LightGreen,LightGreen.jpg,DarkGreen,DarkGreen.jpg,,
,,,,,,,,,,,,,,,,,,-3,,,,,,,,,,,,,,,,,,,,,,,,,,,60f42ad3ca124664fb706b22,001,2021-12-17_01h15.19.458,jm_natural_scene_simialrity_2-12-2021_version2,2021.2.3,Win32,144.0092166,60f42ad3ca124664fb706b22,61bbc5c79a1c66460f44041e,61bbd68d4608fa58ccf9f5ec,,,,,,-79,40.5,1,0,0,response7disk,0.5416,-8,-6.5,1,0,0,rectangle,-8,-6.5,1,0,0,-4,-1,"[33,153,90,73,58,92,36,24,138,89]",-8,-6.5,1,0,0,1,26,107,27,1,DarkGreen,DarkGreen.jpg,DarkBlue,DarkBlue.jpg,,
,,,,,,,,,,,,,,,,,,-2,,,,,,,,,,,,,,,,,,,,,,,,,,,60f42ad3ca124664fb706b22,001,2021-12-17_01h15.19.458,jm_natural_scene_simialrity_2-12-2021_version2,2021.2.3,Win32,144.0092166,60f42ad3ca124664fb706b22,61bbc5c79a1c66460f44041e,61bbd68d4608fa58ccf9f5ec,,,,,,-62,-17.5,1,0,0,response5disk,0.5144,-12,-8.5,1,0,0,rectangle,-12,-8.5,1,0,0,-4,-4,"[33,153,90,73,58,92,36,24,138,89]",-12,-8.5,1,0,0,1,27,108,57,1,DarkBlue,DarkBlue.jpg,Yellow,Yellow.jpg,,
,,,,,,,,,,,,,,,,,,-4,,,,,,,,,,,,,,,,,,,,,,,,,,,60f42ad3ca124664fb706b22,001,2021-12-17_01h15.19.458,jm_natural_scene_simialrity_2-12-2021_version2,2021.2.3,Win32,144.0092166,60f42ad3ca124664fb706b22,61bbc5c79a1c66460f44041e,61bbd68d4608fa58ccf9f5ec,,,,,,-41,93.5,1,0,0,response7disk,1.1321,-6,21.5,1,0,0,rectangle,-6,21.5,1,0,0,-4,-3,"[33,153,90,73,58,92,36,24,138,89]",-6,21.5,1,0,0,1,28,109,28,1,DarkGreen,DarkGreen.jpg,Pink,Pink.jpg,,
,,,,,,,,,,,,,,,,,,2,,,,,,,,,,,,,,,,,,,,,,,,,,,60f42ad3ca124664fb706b22,001,2021-12-17_01h15.19.458,jm_natural_scene_simialrity_2-12-2021_version2,2021.2.3,Win32,144.0092166,60f42ad3ca124664fb706b22,61bbc5c79a1c66460f44041e,61bbd68d4608fa58ccf9f5ec,,,,,,67,-19.5,1,0,0,response3disk,1.0002,-15,2.5,1,0,0,rectangle,-15,2.5,1,0,0,-4,-1,"[33,153,90,73,58,92,36,24,138,89]",-15,2.5,1,0,0,1,29,110,51,1,Pink,Pink.jpg,Red,Red.jpg,,
,,,,,,,,,,,,,,,,,,1,,,,,,,,,,,,,,,,,,,,,,,,,,,60f42ad3ca124664fb706b22,001,2021-12-17_01h15.19.458,jm_natural_scene_simialrity_2-12-2021_version2,2021.2.3,Win32,144.0092166,60f42ad3ca124664fb706b22,61bbc5c79a1c66460f44041e,61bbd68d4608fa58ccf9f5ec,,,,,,19,-57.5,1,0,0,response3disk,0.941,-1,-14.5,1,0,0,rectangle,-1,-14.5,1,0,0,-4,3,"[33,153,90,73,58,92,36,24,138,89]",-1,-14.5,1,0,0,1,30,111,80,1,Purple,Purple.jpg,Pink,Pink.jpg,,
,,,,,,,,,,,,,,,,,,-1,,,,,,,,,,,,,,,,,,,,,,,,,,,60f42ad3ca124664fb706b22,001,2021-12-17_01h15.19.458,jm_natural_scene_simialrity_2-12-2021_version2,2021.2.3,Win32,144.0092166,60f42ad3ca124664fb706b22,61bbc5c79a1c66460f44041e,61bbd68d4608fa58ccf9f5ec,,,,,,-44,-93.5,1,0,0,response5disk,0.7569,-5,-12.5,1,0,0,rectangle,-5,-12.5,1,0,0,-4,-3,"[33,153,90,73,58,92,36,24,138,89]",-5,-12.5,1,0,0,1,31,112,34,1,Turquiose,Turquiose.jpg,Purple,Purple.jpg,,
,,,,,,,,,,,,,,,,,,-2,,,,,,,,,,,,,,,,,,,,,,,,,,,60f42ad3ca124664fb706b22,001,2021-12-17_01h15.19.458,jm_natural_scene_simialrity_2-12-2021_version2,2021.2.3,Win32,144.0092166,60f42ad3ca124664fb706b22,61bbc5c79a1c66460f44041e,61bbd68d4608fa58ccf9f5ec,,,,,,-56,-29.5,1,0,0,response5disk,0.5492,-7,5.5,1,0,0,rectangle,-7,5.5,1,0,0,-4,2,"[33,153,90,73,58,92,36,24,138,89]",-7,5.5,1,0,0,1,32,113,36,1,LightBlue,LightBlue.jpg,DarkBlue,DarkBlue.jpg,,
,,,,,,,,,,,,,,,,,,-3,,,,,,,,,,,,,,,,,,,,,,,,,,,60f42ad3ca124664fb706b22,001,2021-12-17_01h15.19.458,jm_natural_scene_simialrity_2-12-2021_version2,2021.2.3,Win32,144.0092166,60f42ad3ca124664fb706b22,61bbc5c79a1c66460f44041e,61bbd68d4608fa58ccf9f5ec,,,,,,-76,25.5,1,0,0,response7disk,0.6562,-18,1.5,1,0,0,rectangle,-18,1.5,1,0,0,-4,3,"[33,153,90,73,58,92,36,24,138,89]",-18,1.5,1,0,0,1,33,114,32,1,Turquiose,Turquiose.jpg,DarkBlue,DarkBlue.jpg,,
,,,,,,,,,,,,,,,,,,4,,,,,,,,,,,,,,,,,,,,,,,,,,,60f42ad3ca124664fb706b22,001,2021-12-17_01h15.19.458,jm_natural_scene_simialrity_2-12-2021_version2,2021.2.3,Win32,144.0092166,60f42ad3ca124664fb706b22,61bbc5c79a1c66460f44041e,61bbd68d4608fa58ccf9f5ec,,,,,,32,82.5,1,0,0,response1disk,0.5972,-2,10.5,1,0,0,rectangle,-2,10.5,1,0,0,-4,-4,"[33,153,90,73,58,92,36,24,138,89]",-2,10.5,1,0,0,1,34,115,9,1,Yellow,Yellow.jpg,Yellow,Yellow.jpg,,
,,,,,,,,,,,,,,,,,,-3,,,,,,,,,,,,,,,,,,,,,,,,,,,60f42ad3ca124664fb706b22,001,2021-12-17_01h15.19.458,jm_natural_scene_simialrity_2-12-2021_version2,2021.2.3,Win32,144.0092166,60f42ad3ca124664fb706b22,61bbc5c79a1c66460f44041e,61bbd68d4608fa58ccf9f5ec,,,,,,-76,37.5,1,0,0,response7disk,0.5863,6,-1.5,1,0,0,rectangle,6,-1.5,1,0,0,-4,1,"[33,153,90,73,58,92,36,24,138,89]",6,-1.5,1,0,0,1,35,116,2,1,Red,Red.jpg,LightGreen,LightGreen.jpg,,
,,,,,,,,,,,,,,,,,,-2,,,,,,,,,,,,,,,,,,,,,,,,,,,60f42ad3ca124664fb706b22,001,2021-12-17_01h15.19.458,jm_natural_scene_simialrity_2-12-2021_version2,2021.2.3,Win32,144.0092166,60f42ad3ca124664fb706b22,61bbc5c79a1c66460f44041e,61bbd68d4608fa58ccf9f5ec,,,,,,-60,-37.5,1,0,0,response5disk,0.7154,-18,-23.5,1,0,0,rectangle,-18,-23.5,1,0,0,-1,-3,"[33,153,90,73,58,92,36,24,138,89]",-18,-23.5,1,0,0,1,36,117,14,1,Yellow,Yellow.jpg,DarkBlue,DarkBlue.jpg,,
,,,,,,,,,,,,,,,,,,-3,,,,,,,,,,,,,,,,,,,,,,,,,,,60f42ad3ca124664fb706b22,001,2021-12-17_01h15.19.458,jm_natural_scene_simialrity_2-12-2021_version2,2021.2.3,Win32,144.0092166,60f42ad3ca124664fb706b22,61bbc5c79a1c66460f44041e,61bbd68d4608fa58ccf9f5ec,,,,,,-58,46.5,1,0,0,response7disk,0.761,-16,11.5,1,0,0,rectangle,-16,11.5,1,0,0,-1,2,"[33,153,90,73,58,92,36,24,138,89]",-16,11.5,1,0,0,1,37,118,78,1,Pink,Pink.jpg,DarkBlue,DarkBlue.jpg,,
,,,,,,,,,,,,,,,,,,-3,,,,,,,,,,,,,,,,,,,,,,,,,,,60f42ad3ca124664fb706b22,001,2021-12-17_01h15.19.458,jm_natural_scene_simialrity_2-12-2021_version2,2021.2.3,Win32,144.0092166,60f42ad3ca124664fb706b22,61bbc5c79a1c66460f44041e,61bbd68d4608fa58ccf9f5ec,,,,,,-66,33.5,1,0,0,response7disk,0.4728,-9,-1.5,1,0,0,rectangle,-9,-1.5,1,0,0,-1,-2,"[33,153,90,73,58,92,36,24,138,89]",-9,-1.5,1,0,0,1,38,119,68,1,DarkBlue,DarkBlue.jpg,DarkGreen,DarkGreen.jpg,,
,,,,,,,,,,,,,,,,,,-3,,,,,,,,,,,,,,,,,,,,,,,,,,,60f42ad3ca124664fb706b22,001,2021-12-17_01h15.19.458,jm_natural_scene_simialrity_2-12-2021_version2,2021.2.3,Win32,144.0092166,60f42ad3ca124664fb706b22,61bbc5c79a1c66460f44041e,61bbd68d4608fa58ccf9f5ec,,,,,,-50,29.5,1,0,0,response7disk,0.4353,-19,8.5,1,0,0,rectangle,-19,8.5,1,0,0,-1,-3,"[33,153,90,73,58,92,36,24,138,89]",-19,8.5,1,0,0,1,39,120,22,1,LightGreen,LightGreen.jpg,Pink,Pink.jpg,,
,,,,,,,,,,,,,,,,,,1,,,,,,,,,,,,,,,,,,,,,,,,,,,60f42ad3ca124664fb706b22,001,2021-12-17_01h15.19.458,jm_natural_scene_simialrity_2-12-2021_version2,2021.2.3,Win32,144.0092166,60f42ad3ca124664fb706b22,61bbc5c79a1c66460f44041e,61bbd68d4608fa58ccf9f5ec,,,,,,49,-84.5,1,0,0,response3disk,0.9041,-11,-7.5,1,0,0,rectangle,-11,-7.5,1,0,0,-1,-2,"[33,153,90,73,58,92,36,24,138,89]",-11,-7.5,1,0,0,1,40,121,58,1,Pink,Pink.jpg,Yellow,Yellow.jpg,,
,,,,,,,,,,,,,,,,,,-2,,,,,,,,,,,,,,,,,,,,,,,,,,,60f42ad3ca124664fb706b22,001,2021-12-17_01h15.19.458,jm_natural_scene_simialrity_2-12-2021_version2,2021.2.3,Win32,144.0092166,60f42ad3ca124664fb706b22,61bbc5c79a1c66460f44041e,61bbd68d4608fa58ccf9f5ec,,,,,,-99,-52.5,1,0,0,response5disk,0.8757,5,0.5,1,0,0,rectangle,5,0.5,1,0,0,-1,-4,"[33,153,90,73,58,92,36,24,138,89]",5,0.5,1,0,0,1,41,122,10,1,Yellow,Yellow.jpg,LightGreen,LightGreen.jpg,,
,,,,,,,,,,,,,,,,,,-1,,,,,,,,,,,,,,,,,,,,,,,,,,,60f42ad3ca124664fb706b22,001,2021-12-17_01h15.19.458,jm_natural_scene_simialrity_2-12-2021_version2,2021.2.3,Win32,144.0092166,60f42ad3ca124664fb706b22,61bbc5c79a1c66460f44041e,61bbd68d4608fa58ccf9f5ec,,,,,,-44,-57.5,1,0,0,response5disk,0.6494,12,2.5,1,0,0,rectangle,12,2.5,1,0,0,-1,2,"[33,153,90,73,58,92,36,24,138,89]",12,2.5,1,0,0,1,42,123,67,1,LightBlue,LightBlue.jpg,DarkGreen,DarkGreen.jpg,,
,,,,,,,,,,,,,,,,,,2,,,,,,,,,,,,,,,,,,,,,,,,,,,60f42ad3ca124664fb706b22,001,2021-12-17_01h15.19.458,jm_natural_scene_simialrity_2-12-2021_version2,2021.2.3,Win32,144.0092166,60f42ad3ca124664fb706b22,61bbc5c79a1c66460f44041e,61bbd68d4608fa58ccf9f5ec,,,,,,80,-24.5,1,0,0,response3disk,1.188,24,-11.5,1,0,0,rectangle,24,-11.5,1,0,0,-1,1,"[33,153,90,73,58,92,36,24,138,89]",24,-11.5,1,0,0,1,43,124,15,1,Yellow,Yellow.jpg,Pink,Pink.jpg,,
,,,,,,,,,,,,,,,,,,-2,,,,,,,,,,,,,,,,,,,,,,,,,,,60f42ad3ca124664fb706b22,001,2021-12-17_01h15.19.458,jm_natural_scene_simialrity_2-12-2021_version2,2021.2.3,Win32,144.0092166,60f42ad3ca124664fb706b22,61bbc5c79a1c66460f44041e,61bbd68d4608fa58ccf9f5ec,,,,,,-86,-49.5,1,0,0,response5disk,0.7019,5,-11.5,1,0,0,rectangle,5,-11.5,1,0,0,-1,-3,"[33,153,90,73,58,92,36,24,138,89]",5,-11.5,1,0,0,1,44,125,25,1,DarkGreen,DarkGreen.jpg,Turquiose,Turquiose.jpg,,
,,,,,,,,,,,,,,,,,,-2,,,,,,,,,,,,,,,,,,,,,,,,,,,60f42ad3ca124664fb706b22,001,2021-12-17_01h15.19.458,jm_natural_scene_simialrity_2-12-2021_version2,2021.2.3,Win32,144.0092166,60f42ad3ca124664fb706b22,61bbc5c79a1c66460f44041e,61bbd68d4608fa58ccf9f5ec,,,,,,-48,-30.5,1,0,0,response5disk,0.4589,-2,-10.5,1,0,0,rectangle,-2,-10.5,1,0,0,-1,-2,"[33,153,90,73,58,92,36,24,138,89]",-2,-10.5,1,0,0,1,45,126,66,1,Turquiose,Turquiose.jpg,DarkGreen,DarkGreen.jpg,,
,,,,,,,,,,,,,,,,,,-2,,,,,,,,,,,,,,,,,,,,,,,,,,,60f42ad3ca124664fb706b22,001,2021-12-17_01h15.19.458,jm_natural_scene_simialrity_2-12-2021_version2,2021.2.3,Win32,144.0092166,60f42ad3ca124664fb706b22,61bbc5c79a1c66460f44041e,61bbd68d4608fa58ccf9f5ec,,,,,,-73,-42.5,1,0,0,response5disk,0.4029,-6,-12.5,1,0,0,rectangle,-6,-12.5,1,0,0,-1,2,"[33,153,90,73,58,92,36,24,138,89]",-6,-12.5,1,0,0,1,46,127,31,1,Turquiose,Turquiose.jpg,LightBlue,LightBlue.jpg,,
,,,,,,,,,,,,,,,,,,-2,,,,,,,,,,,,,,,,,,,,,,,,,,,60f42ad3ca124664fb706b22,001,2021-12-17_01h15.19.458,jm_natural_scene_simialrity_2-12-2021_version2,2021.2.3,Win32,144.0092166,60f42ad3ca124664fb706b22,61bbc5c79a1c66460f44041e,61bbd68d4608fa58ccf9f5ec,,,,,,-81,-35.5,1,0,0,response5disk,0.4589,-6,-16.5,1,0,0,rectangle,-6,-16.5,1,0,0,-1,2,"[33,153,90,73,58,92,36,24,138,89]",-6,-16.5,1,0,0,1,47,128,37,1,LightBlue,LightBlue.jpg,Pink,Pink.jpg,,
,,,,,,,,,,,,,,,,,,-2,,,,,,,,,,,,,,,,,,,,,,,,,,,60f42ad3ca124664fb706b22,001,2021-12-17_01h15.19.458,jm_natural_scene_simialrity_2-12-2021_version2,2021.2.3,Win32,144.0092166,60f42ad3ca124664fb706b22,61bbc5c79a1c66460f44041e,61bbd68d4608fa58ccf9f5ec,,,,,,-85,-24.5,1,0,0,response5disk,0.2917,0,-1.5,1,0,0,rectangle,0,-1.5,1,0,0,-1,1,"[33,153,90,73,58,92,36,24,138,89]",0,-1.5,1,0,0,1,48,129,64,1,Pink,Pink.jpg,LightGreen,LightGreen.jpg,,
,,,,,,,,,,,,,,,,,,-2,,,,,,,,,,,,,,,,,,,,,,,,,,,60f42ad3ca124664fb706b22,001,2021-12-17_01h15.19.458,jm_natural_scene_simialrity_2-12-2021_version2,2021.2.3,Win32,144.0092166,60f42ad3ca124664fb706b22,61bbc5c79a1c66460f44041e,61bbd68d4608fa58ccf9f5ec,,,,,,-64,-23.5,1,0,0,response5disk,0.3127,5,-5.5,1,0,0,rectangle,5,-5.5,1,0,0,-1,1,"[33,153,90,73,58,92,36,24,138,89]",5,-5.5,1,0,0,1,49,130,46,1,LightGreen,LightGreen.jpg,Red,Red.jpg,,
,,,,,,,,,,,,,,,,,,-2,,,,,,,,,,,,,,,,,,,,,,,,,,,60f42ad3ca124664fb706b22,001,2021-12-17_01h15.19.458,jm_natural_scene_simialrity_2-12-2021_version2,2021.2.3,Win32,144.0092166,60f42ad3ca124664fb706b22,61bbc5c79a1c66460f44041e,61bbd68d4608fa58ccf9f5ec,,,,,,-64,-33.5,1,0,0,response5disk,0.2912,7,1.5,1,0,0,rectangle,7,1.5,1,0,0,-1,-2,"[33,153,90,73,58,92,36,24,138,89]",7,1.5,1,0,0,1,50,131,30,1,Turquiose,Turquiose.jpg,Turquiose,Turquiose.jpg,,
,,,,,,,,,,,,,,,,,,4,,,,,,,,,,,,,,,,,,,,,,,,,,,60f42ad3ca124664fb706b22,001,2021-12-17_01h15.19.458,jm_natural_scene_simialrity_2-12-2021_version2,2021.2.3,Win32,144.0092166,60f42ad3ca124664fb706b22,61bbc5c79a1c66460f44041e,61bbd68d4608fa58ccf9f5ec,,,,,,26,73.5,1,0,0,response1disk,0.4868,-2,2.5,1,0,0,rectangle,-2,2.5,1,0,0,-1,-1,"[33,153,90,73,58,92,36,24,138,89]",-2,2.5,1,0,0,1,51,132,24,1,DarkGreen,DarkGreen.jpg,DarkGreen,DarkGreen.jpg,,
,,,,,,,,,,,,,,,,,,2,,,,,,,,,,,,,,,,,,,,,,,,,,,60f42ad3ca124664fb706b22,001,2021-12-17_01h15.19.458,jm_natural_scene_simialrity_2-12-2021_version2,2021.2.3,Win32,144.0092166,60f42ad3ca124664fb706b22,61bbc5c79a1c66460f44041e,61bbd68d4608fa58ccf9f5ec,,,,,,71,-32.5,1,0,0,response3disk,1.1394,-17,3.5,1,0,0,rectangle,-17,3.5,1,0,0,-1,-1,"[33,153,90,73,58,92,36,24,138,89]",-17,3.5,1,0,0,1,52,133,79,1,Purple,Purple.jpg,DarkBlue,DarkBlue.jpg,,
,,,,,,,,,,,,,,,,,,4,,,,,,,,,,,,,,,,,,,,,,,,,,,60f42ad3ca124664fb706b22,001,2021-12-17_01h15.19.458,jm_natural_scene_simialrity_2-12-2021_version2,2021.2.3,Win32,144.0092166,60f42ad3ca124664fb706b22,61bbc5c79a1c66460f44041e,61bbd68d4608fa58ccf9f5ec,,,,,,79,129.5,1,0,0,response1disk,1.8324,5,1.5,1,0,0,rectangle,5,1.5,1,0,0,-1,3,"[33,153,90,73,58,92,36,24,138,89]",5,1.5,1,0,0,1,53,134,54,1,DarkGreen,DarkGreen.jpg,Yellow,Yellow.jpg,,
,,,,,,,,,,,,,,,,,,-2,,,,,,,,,,,,,,,,,,,,,,,,,,,60f42ad3ca124664fb706b22,001,2021-12-17_01h15.19.458,jm_natural_scene_simialrity_2-12-2021_version2,2021.2.3,Win32,144.0092166,60f42ad3ca124664fb706b22,61bbc5c79a1c66460f44041e,61bbd68d4608fa58ccf9f5ec,,,,,,-81,-32.5,1,0,0,response5disk,0.6663,-13,-2.5,1,0,0,rectangle,-13,-2.5,1,0,0,-1,3,"[33,153,90,73,58,92,36,24,138,89]",-13,-2.5,1,0,0,1,54,135,3,1,Red,Red.jpg,DarkGreen,DarkGreen.jpg,,
,,,,,,,,,,,,,,,,,,-2,,,,,,,,,,,,,,,,,,,,,,,,,,,60f42ad3ca124664fb706b22,001,2021-12-17_01h15.19.458,jm_natural_scene_simialrity_2-12-2021_version2,2021.2.3,Win32,144.0092166,60f42ad3ca124664fb706b22,61bbc5c79a1c66460f44041e,61bbd68d4608fa58ccf9f5ec,,,,,,-60,-36.5,1,0,0,response5disk,0.4135,8,-7.5,1,0,0,rectangle,8,-7.5,1,0,0,-1,-2,"[33,153,90,73,58,92,36,24,138,89]",8,-7.5,1,0,0,1,55,136,73,1,Pink,Pink.jpg,Turquiose,Turquiose.jpg,,
,,,,,,,,,,,,,,,,,,-2,,,,,,,,,,,,,,,,,,,,,,,,,,,60f42ad3ca124664fb706b22,001,2021-12-17_01h15.19.458,jm_natural_scene_simialrity_2-12-2021_version2,2021.2.3,Win32,144.0092166,60f42ad3ca124664fb706b22,61bbc5c79a1c66460f44041e,61bbd68d4608fa58ccf9f5ec,,,,,,-64,-20.5,1,0,0,response5disk,0.3981,-6,12.5,1,0,0,rectangle,-98,38.5,1,0,0,-3,-3,"[33,153,90,73,58,92,36,24,138,89]",-12,0.5,1,0,0,1,56,137,29,1,DarkGreen,DarkGreen.jpg,Purple,Purple.jpg,response7disk_3,rectangle
,,,,,,,,,,,,,,,,,,-1,,,,,,,,,,,,,,,,,,,,,,,,,,,60f42ad3ca124664fb706b22,001,2021-12-17_01h15.19.458,jm_natural_scene_simialrity_2-12-2021_version2,2021.2.3,Win32,144.0092166,60f42ad3ca124664fb706b22,61bbc5c79a1c66460f44041e,61bbd68d4608fa58ccf9f5ec,,,,,,-49,-56.5,1,0,0,response5disk,4.3269,-3,-17.5,1,0,0,rectangle,-3,-17.5,1,0,0,-3,-3,"[33,153,90,73,58,92,36,24,138,89]",-3,-17.5,1,0,0,1,57,138,69,1,Pink,Pink.jpg,DarkGreen,DarkGreen.jpg,,
,,,,,,,,,,,,,,,,,,4,,,,,,,,,,,,,,,,,,,,,,,,,,,60f42ad3ca124664fb706b22,001,2021-12-17_01h15.19.458,jm_natural_scene_simialrity_2-12-2021_version2,2021.2.3,Win32,144.0092166,60f42ad3ca124664fb706b22,61bbc5c79a1c66460f44041e,61bbd68d4608fa58ccf9f5ec,,,,,,38,73.5,1,0,0,response1disk,0.5278,7,1.5,1,0,0,rectangle,7,1.5,1,0,0,-3,2,"[33,153,90,73,58,92,36,24,138,89]",7,1.5,1,0,0,1,58,139,17,1,LightGreen,LightGreen.jpg,LightGreen,LightGreen.jpg,,
,,,,,,,,,,,,,,,,,,1,,,,,,,,,,,,,,,,,,,,,,,,,,,60f42ad3ca124664fb706b22,001,2021-12-17_01h15.19.458,jm_natural_scene_simialrity_2-12-2021_version2,2021.2.3,Win32,144.0092166,60f42ad3ca124664fb706b22,61bbc5c79a1c66460f44041e,61bbd68d4608fa58ccf9f5ec,,,,,,40,-89.5,1,0,0,response3disk,0.9098,0,-10.5,1,0,0,rectangle,0,-10.5,1,0,0,-3,1,"[33,153,90,73,58,92,36,24,138,89]",0,-10.5,1,0,0,1,59,140,59,1,Purple,Purple.jpg,Yellow,Yellow.jpg,,
,,,,,,,,,,,,,,,,,,-2,,,,,,,,,,,,,,,,,,,,,,,,,,,60f42ad3ca124664fb706b22,001,2021-12-17_01h15.19.458,jm_natural_scene_simialrity_2-12-2021_version2,2021.2.3,Win32,144.0092166,60f42ad3ca124664fb706b22,61bbc5c79a1c66460f44041e,61bbd68d4608fa58ccf9f5ec,,,,,,-57,-42.5,1,0,0,response5disk,0.4097,16,7.5,1,0,0,rectangle,16,7.5,1,0,0,-3,-4,"[33,153,90,73,58,92,36,24,138,89]",16,7.5,1,0,0,1,60,141,65,1,Purple,Purple.jpg,LightGreen,LightGreen.jpg,,
,,,,,,,,,,,,,,,,,,-2,,,,,,,,,,,,,,,,,,,,,,,,,,,60f42ad3ca124664fb706b22,001,2021-12-17_01h15.19.458,jm_natural_scene_simialrity_2-12-2021_version2,2021.2.3,Win32,144.0092166,60f42ad3ca124664fb706b22,61bbc5c79a1c66460f44041e,61bbd68d4608fa58ccf9f5ec,,,,,,-59,-55.5,1,0,0,response5disk,0.4304,-5,-0.5,1,0,0,rectangle,-5,-0.5,1,0,0,-3,-2,"[33,153,90,73,58,92,36,24,138,89]",-5,-0.5,1,0,0,1,61,142,48,1,Turquiose,Turquiose.jpg,Red,Red.jpg,,
,,,,,,,,,,,,,,,,,,-2,,,,,,,,,,,,,,,,,,,,,,,,,,,60f42ad3ca124664fb706b22,001,2021-12-17_01h15.19.458,jm_natural_scene_simialrity_2-12-2021_version2,2021.2.3,Win32,144.0092166,60f42ad3ca124664fb706b22,61bbc5c79a1c66460f44041e,61bbd68d4608fa58ccf9f5ec,,,,,,-73,-26.5,1,0,0,response5disk,0.5696,-11,19.5,1,0,0,rectangle,-11,19.5,1,0,0,-3,-4,"[33,153,90,73,58,92,36,24,138,89]",-11,19.5,1,0,0,1,62,143,71,1,LightBlue,LightBlue.jpg,Turquiose,Turquiose.jpg,,
,,,,,,,,,,,,,,,,,,-2,,,,,,,,,,,,,,,,,,,,,,,,,,,60f42ad3ca124664fb706b22,001,2021-12-17_01h15.19.458,jm_natural_scene_simialrity_2-12-2021_version2,2021.2.3,Win32,144.0092166,60f42ad3ca124664fb706b22,61bbc5c79a1c66460f44041e,61bbd68d4608fa58ccf9f5ec,,,,,,-64,-24.5,1,0,0,response5disk,0.3093,-6,6.5,1,0,0,rectangle,-6,6.5,1,0,0,-3,-4,"[33,153,90,73,58,92,36,24,138,89]",-6,6.5,1,0,0,1,63,144,72,1,DarkBlue,DarkBlue.jpg,Turquiose,Turquiose.jpg,,
,,,,,,,,,,,,,,,,,,-2,,,,,,,,,,,,,,,,,,,,,,,,,,,60f42ad3ca124664fb706b22,001,2021-12-17_01h15.19.458,jm_natural_scene_simialrity_2-12-2021_version2,2021.2.3,Win32,144.0092166,60f42ad3ca124664fb706b22,61bbc5c79a1c66460f44041e,61bbd68d4608fa58ccf9f5ec,,,,,,-65,-49.5,1,0,0,response5disk,0.3964,-10,-19.5,1,0,0,rectangle,-10,-19.5,1,0,0,-3,-2,"[33,153,90,73,58,92,36,24,138,89]",-10,-19.5,1,0,0,1,64,145,11,1,Yellow,Yellow.jpg,DarkGreen,DarkGreen.jpg,,
,,,,,,,,,,,,,,,,,,-2,,,,,,,,,,,,,,,,,,,,,,,,,,,60f42ad3ca124664fb706b22,001,2021-12-17_01h15.19.458,jm_natural_scene_simialrity_2-12-2021_version2,2021.2.3,Win32,144.0092166,60f42ad3ca124664fb706b22,61bbc5c79a1c66460f44041e,61bbd68d4608fa58ccf9f5ec,,,,,,-58,-32.5,1,0,0,response5disk,0.3539,-23,-12.5,1,0,0,rectangle,-23,-12.5,1,0,0,-3,-3,"[33,153,90,73,58,92,36,24,138,89]",-23,-12.5,1,0,0,1,65,146,6,1,Red,Red.jpg,DarkBlue,DarkBlue.jpg,,
,,,,,,,,,,,,,,,,,,-2,,,,,,,,,,,,,,,,,,,,,,,,,,,60f42ad3ca124664fb706b22,001,2021-12-17_01h15.19.458,jm_natural_scene_simialrity_2-12-2021_version2,2021.2.3,Win32,144.0092166,60f42ad3ca124664fb706b22,61bbc5c79a1c66460f44041e,61bbd68d4608fa58ccf9f5ec,,,,,,-42,-35.5,1,0,0,response5disk,0.769,-3,-2.5,1,0,0,rectangle,-3,-2.5,1,0,0,-3,1,"[33,153,90,73,58,92,36,24,138,89]",-3,-2.5,1,0,0,1,66,147,33,1,Turquiose,Turquiose.jpg,Pink,Pink.jpg,,
,,,,,,,,,,,,,,,,,,-2,,,,,,,,,,,,,,,,,,,,,,,,,,,60f42ad3ca124664fb706b22,001,2021-12-17_01h15.19.458,jm_natural_scene_simialrity_2-12-2021_version2,2021.2.3,Win32,144.0092166,60f42ad3ca124664fb706b22,61bbc5c79a1c66460f44041e,61bbd68d4608fa58ccf9f5ec,,,,,,-48,-37.5,1,0,0,response5disk,0.3537,4,-6.5,1,0,0,rectangle,4,-6.5,1,0,0,-3,-4,"[33,153,90,73,58,92,36,24,138,89]",4,-6.5,1,0,0,1,67,148,77,1,Purple,Purple.jpg,LightBlue,LightBlue.jpg,,
,,,,,,,,,,,,,,,,,,4,,,,,,,,,,,,,,,,,,,,,,,,,,,60f42ad3ca124664fb706b22,001,2021-12-17_01h15.19.458,jm_natural_scene_simialrity_2-12-2021_version2,2021.2.3,Win32,144.0092166,60f42ad3ca124664fb706b22,61bbc5c79a1c66460f44041e,61bbd68d4608fa58ccf9f5ec,,,,,,39,87.5,1,0,0,response1disk,0.5694,-6,-0.5,1,0,0,rectangle,-6,-0.5,1,0,0,-3,-4,"[33,153,90,73,58,92,36,24,138,89]",-6,-0.5,1,0,0,1,68,149,0,1,Red,Red.jpg,Red,Red.jpg,,
,,,,,,,,,,,,,,,,,,-2,,,,,,,,,,,,,,,,,,,,,,,,,,,60f42ad3ca124664fb706b22,001,2021-12-17_01h15.19.458,jm_natural_scene_simialrity_2-12-2021_version2,2021.2.3,Win32,144.0092166,60f42ad3ca124664fb706b22,61bbc5c79a1c66460f44041e,61bbd68d4608fa58ccf9f5ec,,,,,,-55,-31.5,1,0,0,response5disk,0.4826,-15,-3.5,1,0,0,rectangle,-15,-3.5,1,0,0,-3,-2,"[33,153,90,73,58,92,36,24,138,89]",-15,-3.5,1,0,0,1,69,150,50,1,DarkBlue,DarkBlue.jpg,Red,Red.jpg,,
,,,,,,,,,,,,,,,,,,-2,,,,,,,,,,,,,,,,,,,,,,,,,,,60f42ad3ca124664fb706b22,001,2021-12-17_01h15.19.458,jm_natural_scene_simialrity_2-12-2021_version2,2021.2.3,Win32,144.0092166,60f42ad3ca124664fb706b22,61bbc5c79a1c66460f44041e,61bbd68d4608fa58ccf9f5ec,,,,,,-60,-32.5,1,0,0,response5disk,0.3919,-19,-1.5,1,0,0,rectangle,-19,-1.5,1,0,0,-3,-4,"[33,153,90,73,58,92,36,24,138,89]",-19,-1.5,1,0,0,1,70,151,52,1,Purple,Purple.jpg,Red,Red.jpg,,
,,,,,,,,,,,,,,,,,,1,,,,,,,,,,,,,,,,,,,,,,,,,,,60f42ad3ca124664fb706b22,001,2021-12-17_01h15.19.458,jm_natural_scene_simialrity_2-12-2021_version2,2021.2.3,Win32,144.0092166,60f42ad3ca124664fb706b22,61bbc5c79a1c66460f44041e,61bbd68d4608fa58ccf9f5ec,,,,,,26,-73.5,1,0,0,response3disk,0.7848,-15,6.5,1,0,0,rectangle,72,-39.5,1,0,0,2,2,"[33,153,90,73,58,92,36,24,138,89]",4,-9.5,1,0,0,1,71,152,40,1,DarkBlue,DarkBlue.jpg,Pink,Pink.jpg,response3disk_3,rectangle
,,,,,,,,,,,,,,,,,,-1,,,,,,,,,,,,,,,,,,,,,,,,,,,60f42ad3ca124664fb706b22,001,2021-12-17_01h15.19.458,jm_natural_scene_simialrity_2-12-2021_version2,2021.2.3,Win32,144.0092166,60f42ad3ca124664fb706b22,61bbc5c79a1c66460f44041e,61bbd68d4608fa58ccf9f5ec,,,,,,-62,-99.5,1,0,0,response5disk,0.9098,15,-24.5,1,0,0,rectangle,15,-24.5,1,0,0,2,-4,"[33,153,90,73,58,92,36,24,138,89]",15,-24.5,1,0,0,1,72,153,61,1,Turquiose,Turquiose.jpg,LightGreen,LightGreen.jpg,,
,,,,,,,,,,,,,,,,,,-1,,,,,,,,,,,,,,,,,,,,,,,,,,,60f42ad3ca124664fb706b22,001,2021-12-17_01h15.19.458,jm_natural_scene_simialrity_2-12-2021_version2,2021.2.3,Win32,144.0092166,60f42ad3ca124664fb706b22,61bbc5c79a1c66460f44041e,61bbd68d4608fa58ccf9f5ec,,,,,,-52,-53.5,1,0,0,response5disk,0.3825,7,-12.5,1,0,0,rectangle,7,-12.5,1,0,0,2,1,"[33,153,90,73,58,92,36,24,138,89]",7,-12.5,1,0,0,1,73,154,62,1,LightBlue,LightBlue.jpg,LightGreen,LightGreen.jpg,,
,,,,,,,,,,,,,,,,,,-1,,,,,,,,,,,,,,,,,,,,,,,,,,,60f42ad3ca124664fb706b22,001,2021-12-17_01h15.19.458,jm_natural_scene_simialrity_2-12-2021_version2,2021.2.3,Win32,144.0092166,60f42ad3ca124664fb706b22,61bbc5c79a1c66460f44041e,61bbd68d4608fa58ccf9f5ec,,,,,,-37,-51.5,1,0,0,response5disk,0.5974,-2,8.5,1,0,0,rectangle,-2,8.5,1,0,0,2,-2,"[33,153,90,73,58,92,36,24,138,89]",-2,8.5,1,0,0,1,74,155,63,1,DarkBlue,DarkBlue.jpg,LightGreen,LightGreen.jpg,,
,,,,,,,,,,,,,,,,,,2,,,,,,,,,,,,,,,,,,,,,,,,,,,60f42ad3ca124664fb706b22,001,2021-12-17_01h15.19.458,jm_natural_scene_simialrity_2-12-2021_version2,2021.2.3,Win32,144.0092166,60f42ad3ca124664fb706b22,61bbc5c79a1c66460f44041e,61bbd68d4608fa58ccf9f5ec,,,,,,78,-34.5,1,0,0,response3disk,0.9725,-4,-15.5,1,0,0,rectangle,-4,-15.5,1,0,0,2,1,"[33,153,90,73,58,92,36,24,138,89]",-4,-15.5,1,0,0,1,75,156,8,1,Red,Red.jpg,Purple,Purple.jpg,,
,,,,,,,,,,,,,,,,,,-1,,,,,,,,,,,,,,,,,,,,,,,,,,,60f42ad3ca124664fb706b22,001,2021-12-17_01h15.19.458,jm_natural_scene_simialrity_2-12-2021_version2,2021.2.3,Win32,144.0092166,60f42ad3ca124664fb706b22,61bbc5c79a1c66460f44041e,61bbd68d4608fa58ccf9f5ec,,,,,,-61,-77.5,1,0,0,response5disk,0.7847,-8,2.5,1,0,0,rectangle,-8,2.5,1,0,0,2,1,"[33,153,90,73,58,92,36,24,138,89]",-8,2.5,1,0,0,1,76,157,23,1,LightGreen,LightGreen.jpg,Purple,Purple.jpg,,
,,,,,,,,,,,,,,,,,,2,,,,,,,,,,,,,,,,,,,,,,,,,,,60f42ad3ca124664fb706b22,001,2021-12-17_01h15.19.458,jm_natural_scene_simialrity_2-12-2021_version2,2021.2.3,Win32,144.0092166,60f42ad3ca124664fb706b22,61bbc5c79a1c66460f44041e,61bbd68d4608fa58ccf9f5ec,,,,,,71,-69.5,1,0,0,response3disk,0.7778,20,-15.5,1,0,0,rectangle,20,-15.5,1,0,0,2,1,"[33,153,90,73,58,92,36,24,138,89]",20,-15.5,1,0,0,1,77,158,75,1,DarkBlue,DarkBlue.jpg,LightBlue,LightBlue.jpg,,
,,,,,,,,,,,,,,,,,,3,,,,,,,,,,,,,,,,,,,,,,,,,,,60f42ad3ca124664fb706b22,001,2021-12-17_01h15.19.458,jm_natural_scene_simialrity_2-12-2021_version2,2021.2.3,Win32,144.0092166,60f42ad3ca124664fb706b22,61bbc5c79a1c66460f44041e,61bbd68d4608fa58ccf9f5ec,,,,,,82,33.5,1,0,0,response1disk,0.7919,-12,-6.5,1,0,0,rectangle,-12,-6.5,1,0,0,2,1,"[33,153,90,73,58,92,36,24,138,89]",-12,-6.5,1,0,0,1,78,159,60,1,DarkGreen,DarkGreen.jpg,LightGreen,LightGreen.jpg,,
,,,,,,,,,,,,,,,,,,4,,,,,,,,,,,,,,,,,,,,,,,,,,,60f42ad3ca124664fb706b22,001,2021-12-17_01h15.19.458,jm_natural_scene_simialrity_2-12-2021_version2,2021.2.3,Win32,144.0092166,60f42ad3ca124664fb706b22,61bbc5c79a1c66460f44041e,61bbd68d4608fa58ccf9f5ec,,,,,,82,109.5,1,0,0,response1disk,0.7154,10,0.5,1,0,0,rectangle,10,0.5,1,0,0,2,-1,"[33,153,90,73,58,92,36,24,138,89]",10,0.5,1,0,0,1,79,160,7,1,Red,Red.jpg,Pink,Pink.jpg,,
,,,,,,,,,,,,,,,,,,4,,,,,,,,,,,,,,,,,,,,,,,,,,,60f42ad3ca124664fb706b22,001,2021-12-17_01h15.19.458,jm_natural_scene_simialrity_2-12-2021_version2,2021.2.3,Win32,144.0092166,60f42ad3ca124664fb706b22,61bbc5c79a1c66460f44041e,61bbd68d4608fa58ccf9f5ec,,,,,,27,131.5,1,0,0,response1disk,3.3073,2,23.5,1,0,0,rectangle,2,23.5,1,0,0,2,1,"[33,153,90,73,58,92,36,24,138,89]",2,23.5,1,0,0,1,80,161,16,1,Yellow,Yellow.jpg,Purple,Purple.jpg,,
