key_resp.keys,key_resp.rt,key_resp_16.keys,key_resp_16.rt,key_resp_2.keys,key_resp_2.rt,key_resp_3.keys,key_resp_3.rt,key_resp_19.keys,key_resp_19.rt,key_resp_10.keys,key_resp_10.rt,mouse_prac.x,mouse_prac.y,mouse_prac.leftButton,mouse_prac.midButton,mouse_prac.rightButton,mouse_prac.clicked_name,similarity,mouse_10.x,mouse_10.y,mouse_10.leftButton,mouse_10.midButton,mouse_10.rightButton,mouse_10.clicked_name,mouse_catch_prac.x,mouse_catch_prac.y,mouse_catch_prac.leftButton,mouse_catch_prac.midButton,mouse_catch_prac.rightButton,catchnumberprac,mouse_6.x,mouse_6.y,mouse_6.leftButton,mouse_6.midButton,mouse_6.rightButton,during_prac.thisRepN,during_prac.thisTrialN,during_prac.thisN,during_prac.thisIndex,during_prac.ran,trailimage1,trial1adress,trailimage2,trial2adress,participant,session,date,expName,psychopyVersion,OS,frameRate,PROLIFIC_PID,STUDY_ID,SESSION_ID,mouse_catch_prac.clicked_name,catchprac,mouse_6.clicked_name,key_resp_22.keys,key_resp_22.rt,mouse.x,mouse.y,mouse.leftButton,mouse.midButton,mouse.rightButton,mouse.clicked_name,response_time,mouse_2.x,mouse_2.y,mouse_2.leftButton,mouse_2.midButton,mouse_2.rightButton,mouse_2.clicked_name,mouse_3.x,mouse_3.y,mouse_3.leftButton,mouse_3.midButton,mouse_3.rightButton,catchresponse,catchnumber,catchtrialorder,mouse_11.x,mouse_11.y,mouse_11.leftButton,mouse_11.midButton,mouse_11.rightButton,trials_2.thisRepN,trials_2.thisTrialN,trials_2.thisN,trials_2.thisIndex,trials_2.ran,image1,image1adress,image2,image2adress,mouse_3.clicked_name,mouse_11.clicked_name
space,2.6706,space,27.7968,space,5.4797,space,15.5749,space,26.1136,space,7.8053,123,33,1,0,0,response1disk_5,3,-3,1,1,0,0,rectangle_8,-3,1,1,0,0,-1,-3,1,1,0,0,0,0,0,3,1,trail2,trail2.jpg,trail2,trail2.jpg,615e262996a338cda227b1eb,001,2021-12-17_09h05.59.929,jm_natural_scene_simialrity_2-12-2021_version2,2021.2.3,Win32,60.08893162,615e262996a338cda227b1eb,61bbc5c79a1c66460f44041e,61bbc6346452c682923ba30f,,,,,,,,,,,,,,,,,,,,,,,,,,,,,,,,,,,,,,,,,,
,,,,,,,,,,,,-87,-46,1,0,0,response5disk_5,-2,0,2,1,0,0,rectangle_8,0,2,1,0,0,-1,0,2,1,0,0,0,1,1,1,1,trail1,trail1.jpg,trail2,trail2.jpg,615e262996a338cda227b1eb,001,2021-12-17_09h05.59.929,jm_natural_scene_simialrity_2-12-2021_version2,2021.2.3,Win32,60.08893162,615e262996a338cda227b1eb,61bbc5c79a1c66460f44041e,61bbc6346452c682923ba30f,,,,,,,,,,,,,,,,,,,,,,,,,,,,,,,,,,,,,,,,,,
,,,,,,,,,,,,46,-115,1,0,0,response3disk_5,1,-2,2,1,0,0,rectangle_8,-2,2,1,0,0,-1,-2,2,1,0,0,0,2,2,2,1,trail1,trail1.jpg,trail3,trail3.jpg,615e262996a338cda227b1eb,001,2021-12-17_09h05.59.929,jm_natural_scene_simialrity_2-12-2021_version2,2021.2.3,Win32,60.08893162,615e262996a338cda227b1eb,61bbc5c79a1c66460f44041e,61bbc6346452c682923ba30f,,,,,,,,,,,,,,,,,,,,,,,,,,,,,,,,,,,,,,,,,,
,,,,,,,,,,,,44,99,1,0,0,response1disk_5,4,-2,3,1,0,0,rectangle_8,-53,-116,1,0,0,-1,-2,3,1,0,0,0,3,3,5,1,trail3,trail3.jpg,trail3,trail3.jpg,615e262996a338cda227b1eb,001,2021-12-17_09h05.59.929,jm_natural_scene_simialrity_2-12-2021_version2,2021.2.3,Win32,60.08893162,615e262996a338cda227b1eb,61bbc5c79a1c66460f44041e,61bbc6346452c682923ba30f,response5disk_7,-1,rectangle_4,,,,,,,,,,,,,,,,,,,,,,,,,,,,,,,,,,,,,,,
,,,,,,,,,,,,-43,83,1,0,0,response7disk_5,-4,0,1,1,0,0,rectangle_8,0,1,1,0,0,-1,0,1,1,0,0,0,4,4,4,1,trail2,trail2.jpg,trail3,trail3.jpg,615e262996a338cda227b1eb,001,2021-12-17_09h05.59.929,jm_natural_scene_simialrity_2-12-2021_version2,2021.2.3,Win32,60.08893162,615e262996a338cda227b1eb,61bbc5c79a1c66460f44041e,61bbc6346452c682923ba30f,,,,,,,,,,,,,,,,,,,,,,,,,,,,,,,,,,,,,,,,,,
,,,,,,,,,,,,51,100,1,0,0,response1disk_5,4,0,3,1,0,0,rectangle_8,0,3,1,0,0,-1,0,3,1,0,0,0,5,5,0,1,trail1,trail1.jpg,trail1,trail1.jpg,615e262996a338cda227b1eb,001,2021-12-17_09h05.59.929,jm_natural_scene_simialrity_2-12-2021_version2,2021.2.3,Win32,60.08893162,615e262996a338cda227b1eb,61bbc5c79a1c66460f44041e,61bbc6346452c682923ba30f,,,,,,,,,,,,,,,,,,,,,,,,,,,,,,,,,,,,,,,,,,
,,,,,,,,,,,,,,,,,,-4,,,,,,,,,,,,,,,,,,,,,,,,,,,615e262996a338cda227b1eb,001,2021-12-17_09h05.59.929,jm_natural_scene_simialrity_2-12-2021_version2,2021.2.3,Win32,60.08893162,615e262996a338cda227b1eb,61bbc5c79a1c66460f44041e,61bbc6346452c682923ba30f,,,,space,2.7954,-58,101,1,0,0,response7disk,3.9213,-1,3,1,0,0,rectangle,-1,3,1,0,0,,-3,"[57,143,31,80,147,25,79,3,86,139]",-1,3,1,0,0,0,0,0,61,1,Turquiose,Turquiose.jpg,LightGreen,LightGreen.jpg,,
,,,,,,,,,,,,,,,,,,-4,,,,,,,,,,,,,,,,,,,,,,,,,,,615e262996a338cda227b1eb,001,2021-12-17_09h05.59.929,jm_natural_scene_simialrity_2-12-2021_version2,2021.2.3,Win32,60.08893162,615e262996a338cda227b1eb,61bbc5c79a1c66460f44041e,61bbc6346452c682923ba30f,,,,,,-35,94,1,0,0,response7disk,1.7306,0,3,1,0,0,rectangle,0,3,1,0,0,,3,"[57,143,31,80,147,25,79,3,86,139]",0,3,1,0,0,0,1,1,54,1,DarkGreen,DarkGreen.jpg,Yellow,Yellow.jpg,,
,,,,,,,,,,,,,,,,,,-4,,,,,,,,,,,,,,,,,,,,,,,,,,,615e262996a338cda227b1eb,001,2021-12-17_09h05.59.929,jm_natural_scene_simialrity_2-12-2021_version2,2021.2.3,Win32,60.08893162,615e262996a338cda227b1eb,61bbc5c79a1c66460f44041e,61bbc6346452c682923ba30f,,,,,,-46,96,1,0,0,response7disk,2.7197,0,3,1,0,0,rectangle,115,42,1,0,0,3,3,"[57,143,31,80,147,25,79,3,86,139]",0,3,1,0,0,0,2,2,16,1,Yellow,Yellow.jpg,Purple,Purple.jpg,response1disk_3,rectangle
,,,,,,,,,,,,,,,,,,-2,,,,,,,,,,,,,,,,,,,,,,,,,,,615e262996a338cda227b1eb,001,2021-12-17_09h05.59.929,jm_natural_scene_simialrity_2-12-2021_version2,2021.2.3,Win32,60.08893162,615e262996a338cda227b1eb,61bbc5c79a1c66460f44041e,61bbc6346452c682923ba30f,,,,,,-89,-40,1,0,0,response5disk,3.4035,-1,6,1,0,0,rectangle,-1,6,1,0,0,3,1,"[57,143,31,80,147,25,79,3,86,139]",-1,6,1,0,0,0,3,3,77,1,Purple,Purple.jpg,LightBlue,LightBlue.jpg,,
,,,,,,,,,,,,,,,,,,-4,,,,,,,,,,,,,,,,,,,,,,,,,,,615e262996a338cda227b1eb,001,2021-12-17_09h05.59.929,jm_natural_scene_simialrity_2-12-2021_version2,2021.2.3,Win32,60.08893162,615e262996a338cda227b1eb,61bbc5c79a1c66460f44041e,61bbc6346452c682923ba30f,,,,,,-64,82,1,0,0,response7disk,2.9363,1,0,1,0,0,rectangle,1,0,1,0,0,3,1,"[57,143,31,80,147,25,79,3,86,139]",1,0,1,0,0,0,4,4,26,1,DarkGreen,DarkGreen.jpg,LightBlue,LightBlue.jpg,,
,,,,,,,,,,,,,,,,,,-4,,,,,,,,,,,,,,,,,,,,,,,,,,,615e262996a338cda227b1eb,001,2021-12-17_09h05.59.929,jm_natural_scene_simialrity_2-12-2021_version2,2021.2.3,Win32,60.08893162,615e262996a338cda227b1eb,61bbc5c79a1c66460f44041e,61bbc6346452c682923ba30f,,,,,,-51,99,1,0,0,response7disk,1.368,-4,0,1,0,0,rectangle,-4,0,1,0,0,3,2,"[57,143,31,80,147,25,79,3,86,139]",-4,0,1,0,0,0,5,5,69,1,Pink,Pink.jpg,DarkGreen,DarkGreen.jpg,,
,,,,,,,,,,,,,,,,,,-4,,,,,,,,,,,,,,,,,,,,,,,,,,,615e262996a338cda227b1eb,001,2021-12-17_09h05.59.929,jm_natural_scene_simialrity_2-12-2021_version2,2021.2.3,Win32,60.08893162,615e262996a338cda227b1eb,61bbc5c79a1c66460f44041e,61bbc6346452c682923ba30f,,,,,,-31,79,1,0,0,response7disk,1.3012,-1,2,1,0,0,rectangle,-1,2,1,0,0,3,-1,"[57,143,31,80,147,25,79,3,86,139]",-1,2,1,0,0,0,6,6,5,1,Red,Red.jpg,LightBlue,LightBlue.jpg,,
,,,,,,,,,,,,,,,,,,-3,,,,,,,,,,,,,,,,,,,,,,,,,,,615e262996a338cda227b1eb,001,2021-12-17_09h05.59.929,jm_natural_scene_simialrity_2-12-2021_version2,2021.2.3,Win32,60.08893162,615e262996a338cda227b1eb,61bbc5c79a1c66460f44041e,61bbc6346452c682923ba30f,,,,,,-90,45,1,0,0,response7disk,4.2375,-1,2,1,0,0,rectangle,-1,2,1,0,0,3,-3,"[57,143,31,80,147,25,79,3,86,139]",-1,2,1,0,0,0,7,7,43,1,Pink,Pink.jpg,Purple,Purple.jpg,,
,,,,,,,,,,,,,,,,,,4,,,,,,,,,,,,,,,,,,,,,,,,,,,615e262996a338cda227b1eb,001,2021-12-17_09h05.59.929,jm_natural_scene_simialrity_2-12-2021_version2,2021.2.3,Win32,60.08893162,615e262996a338cda227b1eb,61bbc5c79a1c66460f44041e,61bbc6346452c682923ba30f,,,,,,48,79,1,0,0,response1disk,0.9143,-1,-3,1,0,0,rectangle,-1,-3,1,0,0,3,-1,"[57,143,31,80,147,25,79,3,86,139]",-1,-3,1,0,0,0,8,8,0,1,Red,Red.jpg,Red,Red.jpg,,
,,,,,,,,,,,,,,,,,,-4,,,,,,,,,,,,,,,,,,,,,,,,,,,615e262996a338cda227b1eb,001,2021-12-17_09h05.59.929,jm_natural_scene_simialrity_2-12-2021_version2,2021.2.3,Win32,60.08893162,615e262996a338cda227b1eb,61bbc5c79a1c66460f44041e,61bbc6346452c682923ba30f,,,,,,-50,88,1,0,0,response7disk,1.7807,-2,5,1,0,0,rectangle,-2,5,1,0,0,3,-1,"[57,143,31,80,147,25,79,3,86,139]",-2,5,1,0,0,0,9,9,28,1,DarkGreen,DarkGreen.jpg,Pink,Pink.jpg,,
,,,,,,,,,,,,,,,,,,-1,,,,,,,,,,,,,,,,,,,,,,,,,,,615e262996a338cda227b1eb,001,2021-12-17_09h05.59.929,jm_natural_scene_simialrity_2-12-2021_version2,2021.2.3,Win32,60.08893162,615e262996a338cda227b1eb,61bbc5c79a1c66460f44041e,61bbc6346452c682923ba30f,,,,,,-65,-107,1,0,0,response5disk,3.3529,1,4,1,0,0,rectangle,1,4,1,0,0,3,1,"[57,143,31,80,147,25,79,3,86,139]",1,4,1,0,0,0,10,10,32,1,Turquiose,Turquiose.jpg,DarkBlue,DarkBlue.jpg,,
,,,,,,,,,,,,,,,,,,-4,,,,,,,,,,,,,,,,,,,,,,,,,,,615e262996a338cda227b1eb,001,2021-12-17_09h05.59.929,jm_natural_scene_simialrity_2-12-2021_version2,2021.2.3,Win32,60.08893162,615e262996a338cda227b1eb,61bbc5c79a1c66460f44041e,61bbc6346452c682923ba30f,,,,,,-50,85,1,0,0,response7disk,1.2347,-3,0,1,0,0,rectangle,-3,0,1,0,0,3,-2,"[57,143,31,80,147,25,79,3,86,139]",-3,0,1,0,0,0,11,11,33,1,Turquiose,Turquiose.jpg,Pink,Pink.jpg,,
,,,,,,,,,,,,,,,,,,-3,,,,,,,,,,,,,,,,,,,,,,,,,,,615e262996a338cda227b1eb,001,2021-12-17_09h05.59.929,jm_natural_scene_simialrity_2-12-2021_version2,2021.2.3,Win32,60.08893162,615e262996a338cda227b1eb,61bbc5c79a1c66460f44041e,61bbc6346452c682923ba30f,,,,,,-87,54,1,0,0,response7disk,4.5005,-2,2,1,0,0,rectangle,-2,2,1,0,0,3,-2,"[57,143,31,80,147,25,79,3,86,139]",-2,2,1,0,0,0,12,12,52,1,Purple,Purple.jpg,Red,Red.jpg,,
,,,,,,,,,,,,,,,,,,-4,,,,,,,,,,,,,,,,,,,,,,,,,,,615e262996a338cda227b1eb,001,2021-12-17_09h05.59.929,jm_natural_scene_simialrity_2-12-2021_version2,2021.2.3,Win32,60.08893162,615e262996a338cda227b1eb,61bbc5c79a1c66460f44041e,61bbc6346452c682923ba30f,,,,,,-35,70,1,0,0,response7disk,1.5683,0,4,1,0,0,rectangle,0,4,1,0,0,3,-4,"[57,143,31,80,147,25,79,3,86,139]",0,4,1,0,0,0,13,13,76,1,Pink,Pink.jpg,LightBlue,LightBlue.jpg,,
,,,,,,,,,,,,,,,,,,-1,,,,,,,,,,,,,,,,,,,,,,,,,,,615e262996a338cda227b1eb,001,2021-12-17_09h05.59.929,jm_natural_scene_simialrity_2-12-2021_version2,2021.2.3,Win32,60.08893162,615e262996a338cda227b1eb,61bbc5c79a1c66460f44041e,61bbc6346452c682923ba30f,,,,,,-48,-91,1,0,0,response5disk,2.8746,0,7,1,0,0,rectangle,0,7,1,0,0,3,-3,"[57,143,31,80,147,25,79,3,86,139]",0,7,1,0,0,0,14,14,71,1,LightBlue,LightBlue.jpg,Turquiose,Turquiose.jpg,,
,,,,,,,,,,,,,,,,,,-3,,,,,,,,,,,,,,,,,,,,,,,,,,,615e262996a338cda227b1eb,001,2021-12-17_09h05.59.929,jm_natural_scene_simialrity_2-12-2021_version2,2021.2.3,Win32,60.08893162,615e262996a338cda227b1eb,61bbc5c79a1c66460f44041e,61bbc6346452c682923ba30f,,,,,,-102,57,1,0,0,response7disk,6.1731,-4,2,1,0,0,rectangle,-4,2,1,0,0,3,-4,"[57,143,31,80,147,25,79,3,86,139]",-4,2,1,0,0,0,15,15,59,1,Purple,Purple.jpg,Yellow,Yellow.jpg,,
,,,,,,,,,,,,,,,,,,4,,,,,,,,,,,,,,,,,,,,,,,,,,,615e262996a338cda227b1eb,001,2021-12-17_09h05.59.929,jm_natural_scene_simialrity_2-12-2021_version2,2021.2.3,Win32,60.08893162,615e262996a338cda227b1eb,61bbc5c79a1c66460f44041e,61bbc6346452c682923ba30f,,,,,,30,81,1,0,0,response1disk,0.7839,3,4,1,0,0,rectangle,3,4,1,0,0,3,2,"[57,143,31,80,147,25,79,3,86,139]",3,4,1,0,0,0,16,16,24,1,DarkGreen,DarkGreen.jpg,DarkGreen,DarkGreen.jpg,,
,,,,,,,,,,,,,,,,,,1,,,,,,,,,,,,,,,,,,,,,,,,,,,615e262996a338cda227b1eb,001,2021-12-17_09h05.59.929,jm_natural_scene_simialrity_2-12-2021_version2,2021.2.3,Win32,60.08893162,615e262996a338cda227b1eb,61bbc5c79a1c66460f44041e,61bbc6346452c682923ba30f,,,,,,49,-93,1,0,0,response3disk,3.4537,4,1,1,0,0,rectangle,4,1,1,0,0,3,-4,"[57,143,31,80,147,25,79,3,86,139]",4,1,1,0,0,0,17,17,38,1,LightBlue,LightBlue.jpg,Purple,Purple.jpg,,
,,,,,,,,,,,,,,,,,,-4,,,,,,,,,,,,,,,,,,,,,,,,,,,615e262996a338cda227b1eb,001,2021-12-17_09h05.59.929,jm_natural_scene_simialrity_2-12-2021_version2,2021.2.3,Win32,60.08893162,615e262996a338cda227b1eb,61bbc5c79a1c66460f44041e,61bbc6346452c682923ba30f,,,,,,-46,67,1,0,0,response7disk,4.3711,1,-5,1,0,0,rectangle,1,-5,1,0,0,3,1,"[57,143,31,80,147,25,79,3,86,139]",1,-5,1,0,0,0,18,18,55,1,Turquiose,Turquiose.jpg,Yellow,Yellow.jpg,,
,,,,,,,,,,,,,,,,,,-4,,,,,,,,,,,,,,,,,,,,,,,,,,,615e262996a338cda227b1eb,001,2021-12-17_09h05.59.929,jm_natural_scene_simialrity_2-12-2021_version2,2021.2.3,Win32,60.08893162,615e262996a338cda227b1eb,61bbc5c79a1c66460f44041e,61bbc6346452c682923ba30f,,,,,,-36,87,1,0,0,response7disk,1.7518,3,0,1,0,0,rectangle,3,0,1,0,0,3,-3,"[57,143,31,80,147,25,79,3,86,139]",3,0,1,0,0,0,19,19,64,1,Pink,Pink.jpg,LightGreen,LightGreen.jpg,,
,,,,,,,,,,,,,,,,,,-2,,,,,,,,,,,,,,,,,,,,,,,,,,,615e262996a338cda227b1eb,001,2021-12-17_09h05.59.929,jm_natural_scene_simialrity_2-12-2021_version2,2021.2.3,Win32,60.08893162,615e262996a338cda227b1eb,61bbc5c79a1c66460f44041e,61bbc6346452c682923ba30f,,,,,,-103,-47,1,0,0,response5disk,2.8363,-6,7,1,0,0,rectangle,-6,7,1,0,0,3,-4,"[57,143,31,80,147,25,79,3,86,139]",-6,7,1,0,0,0,20,20,8,1,Red,Red.jpg,Purple,Purple.jpg,,
,,,,,,,,,,,,,,,,,,-3,,,,,,,,,,,,,,,,,,,,,,,,,,,615e262996a338cda227b1eb,001,2021-12-17_09h05.59.929,jm_natural_scene_simialrity_2-12-2021_version2,2021.2.3,Win32,60.08893162,615e262996a338cda227b1eb,61bbc5c79a1c66460f44041e,61bbc6346452c682923ba30f,,,,,,-129,64,1,0,0,response7disk,4.0875,-5,6,1,0,0,rectangle,-5,6,1,0,0,3,-3,"[57,143,31,80,147,25,79,3,86,139]",-5,6,1,0,0,0,21,21,36,1,LightBlue,LightBlue.jpg,DarkBlue,DarkBlue.jpg,,
,,,,,,,,,,,,,,,,,,3,,,,,,,,,,,,,,,,,,,,,,,,,,,615e262996a338cda227b1eb,001,2021-12-17_09h05.59.929,jm_natural_scene_simialrity_2-12-2021_version2,2021.2.3,Win32,60.08893162,615e262996a338cda227b1eb,61bbc5c79a1c66460f44041e,61bbc6346452c682923ba30f,,,,,,93,44,1,0,0,response1disk,2.6693,1,8,1,0,0,rectangle,1,8,1,0,0,3,1,"[57,143,31,80,147,25,79,3,86,139]",1,8,1,0,0,0,22,22,60,1,DarkGreen,DarkGreen.jpg,LightGreen,LightGreen.jpg,,
,,,,,,,,,,,,,,,,,,-3,,,,,,,,,,,,,,,,,,,,,,,,,,,615e262996a338cda227b1eb,001,2021-12-17_09h05.59.929,jm_natural_scene_simialrity_2-12-2021_version2,2021.2.3,Win32,60.08893162,615e262996a338cda227b1eb,61bbc5c79a1c66460f44041e,61bbc6346452c682923ba30f,,,,,,-102,50,1,0,0,response7disk,2.7528,-6,1,1,0,0,rectangle,-6,1,1,0,0,3,-4,"[57,143,31,80,147,25,79,3,86,139]",-6,1,1,0,0,0,23,23,29,1,DarkGreen,DarkGreen.jpg,Purple,Purple.jpg,,
,,,,,,,,,,,,,,,,,,1,,,,,,,,,,,,,,,,,,,,,,,,,,,615e262996a338cda227b1eb,001,2021-12-17_09h05.59.929,jm_natural_scene_simialrity_2-12-2021_version2,2021.2.3,Win32,60.08893162,615e262996a338cda227b1eb,61bbc5c79a1c66460f44041e,61bbc6346452c682923ba30f,,,,,,47,-91,1,0,0,response3disk,5.1549,-6,-2,1,0,0,rectangle,-54,85,1,0,0,-4,-4,"[57,143,31,80,147,25,79,3,86,139]",-6,2,1,0,0,0,24,24,15,1,Yellow,Yellow.jpg,Pink,Pink.jpg,response7disk_3,rectangle
,,,,,,,,,,,,,,,,,,-4,,,,,,,,,,,,,,,,,,,,,,,,,,,615e262996a338cda227b1eb,001,2021-12-17_09h05.59.929,jm_natural_scene_simialrity_2-12-2021_version2,2021.2.3,Win32,60.08893162,615e262996a338cda227b1eb,61bbc5c79a1c66460f44041e,61bbc6346452c682923ba30f,,,,,,-55,89,1,0,0,response7disk,3.0364,-7,1,1,0,0,rectangle,-7,1,1,0,0,-4,-2,"[57,143,31,80,147,25,79,3,86,139]",-7,1,1,0,0,0,25,25,74,1,Purple,Purple.jpg,Turquiose,Turquiose.jpg,,
,,,,,,,,,,,,,,,,,,4,,,,,,,,,,,,,,,,,,,,,,,,,,,615e262996a338cda227b1eb,001,2021-12-17_09h05.59.929,jm_natural_scene_simialrity_2-12-2021_version2,2021.2.3,Win32,60.08893162,615e262996a338cda227b1eb,61bbc5c79a1c66460f44041e,61bbc6346452c682923ba30f,,,,,,44,78,1,0,0,response1disk,0.8342,3,3,1,0,0,rectangle,3,3,1,0,0,-4,2,"[57,143,31,80,147,25,79,3,86,139]",3,3,1,0,0,0,26,26,44,1,Purple,Purple.jpg,Purple,Purple.jpg,,
,,,,,,,,,,,,,,,,,,-4,,,,,,,,,,,,,,,,,,,,,,,,,,,615e262996a338cda227b1eb,001,2021-12-17_09h05.59.929,jm_natural_scene_simialrity_2-12-2021_version2,2021.2.3,Win32,60.08893162,615e262996a338cda227b1eb,61bbc5c79a1c66460f44041e,61bbc6346452c682923ba30f,,,,,,-58,78,1,0,0,response7disk,4.2042,3,4,1,0,0,rectangle,3,4,1,0,0,-4,3,"[57,143,31,80,147,25,79,3,86,139]",3,4,1,0,0,0,27,27,37,1,LightBlue,LightBlue.jpg,Pink,Pink.jpg,,
,,,,,,,,,,,,,,,,,,-1,,,,,,,,,,,,,,,,,,,,,,,,,,,615e262996a338cda227b1eb,001,2021-12-17_09h05.59.929,jm_natural_scene_simialrity_2-12-2021_version2,2021.2.3,Win32,60.08893162,615e262996a338cda227b1eb,61bbc5c79a1c66460f44041e,61bbc6346452c682923ba30f,,,,,,-55,-115,1,0,0,response5disk,4.7379,-8,7,1,0,0,rectangle,-8,7,1,0,0,-4,-4,"[57,143,31,80,147,25,79,3,86,139]",-8,7,1,0,0,0,28,28,31,1,Turquiose,Turquiose.jpg,LightBlue,LightBlue.jpg,,
,,,,,,,,,,,,,,,,,,-4,,,,,,,,,,,,,,,,,,,,,,,,,,,615e262996a338cda227b1eb,001,2021-12-17_09h05.59.929,jm_natural_scene_simialrity_2-12-2021_version2,2021.2.3,Win32,60.08893162,615e262996a338cda227b1eb,61bbc5c79a1c66460f44041e,61bbc6346452c682923ba30f,,,,,,-38,79,1,0,0,response7disk,1.8519,0,-5,1,0,0,rectangle,0,-5,1,0,0,-4,1,"[57,143,31,80,147,25,79,3,86,139]",0,-5,1,0,0,0,29,29,75,1,DarkBlue,DarkBlue.jpg,LightBlue,LightBlue.jpg,,
,,,,,,,,,,,,,,,,,,-1,,,,,,,,,,,,,,,,,,,,,,,,,,,615e262996a338cda227b1eb,001,2021-12-17_09h05.59.929,jm_natural_scene_simialrity_2-12-2021_version2,2021.2.3,Win32,60.08893162,615e262996a338cda227b1eb,61bbc5c79a1c66460f44041e,61bbc6346452c682923ba30f,,,,,,-20,-88,1,0,0,response5disk,8.192,1,2,1,0,0,rectangle,50,-90,1,0,0,1,1,"[57,143,31,80,147,25,79,3,86,139]",6,-3,1,0,0,0,30,30,58,1,Pink,Pink.jpg,Yellow,Yellow.jpg,response3disk_3,rectangle
,,,,,,,,,,,,,,,,,,-4,,,,,,,,,,,,,,,,,,,,,,,,,,,615e262996a338cda227b1eb,001,2021-12-17_09h05.59.929,jm_natural_scene_simialrity_2-12-2021_version2,2021.2.3,Win32,60.08893162,615e262996a338cda227b1eb,61bbc5c79a1c66460f44041e,61bbc6346452c682923ba30f,,,,,,-68,109,1,0,0,response7disk,1.2182,2,5,1,0,0,rectangle,2,5,1,0,0,1,-1,"[57,143,31,80,147,25,79,3,86,139]",2,5,1,0,0,0,31,31,57,1,DarkBlue,DarkBlue.jpg,Yellow,Yellow.jpg,,
,,,,,,,,,,,,,,,,,,1,,,,,,,,,,,,,,,,,,,,,,,,,,,615e262996a338cda227b1eb,001,2021-12-17_09h05.59.929,jm_natural_scene_simialrity_2-12-2021_version2,2021.2.3,Win32,60.08893162,615e262996a338cda227b1eb,61bbc5c79a1c66460f44041e,61bbc6346452c682923ba30f,,,,,,42,-91,1,0,0,response3disk,2.9718,-4,5,1,0,0,rectangle,-4,5,1,0,0,1,-2,"[57,143,31,80,147,25,79,3,86,139]",-4,5,1,0,0,0,32,32,34,1,Turquiose,Turquiose.jpg,Purple,Purple.jpg,,
,,,,,,,,,,,,,,,,,,2,,,,,,,,,,,,,,,,,,,,,,,,,,,615e262996a338cda227b1eb,001,2021-12-17_09h05.59.929,jm_natural_scene_simialrity_2-12-2021_version2,2021.2.3,Win32,60.08893162,615e262996a338cda227b1eb,61bbc5c79a1c66460f44041e,61bbc6346452c682923ba30f,,,,,,86,-48,1,0,0,response3disk,2.0022,-4,1,1,0,0,rectangle,-4,1,1,0,0,1,2,"[57,143,31,80,147,25,79,3,86,139]",-4,1,1,0,0,0,33,33,63,1,DarkBlue,DarkBlue.jpg,LightGreen,LightGreen.jpg,,
,,,,,,,,,,,,,,,,,,-4,,,,,,,,,,,,,,,,,,,,,,,,,,,615e262996a338cda227b1eb,001,2021-12-17_09h05.59.929,jm_natural_scene_simialrity_2-12-2021_version2,2021.2.3,Win32,60.08893162,615e262996a338cda227b1eb,61bbc5c79a1c66460f44041e,61bbc6346452c682923ba30f,,,,,,-43,90,1,0,0,response7disk,1.2348,-8,0,1,0,0,rectangle,-8,0,1,0,0,1,-1,"[57,143,31,80,147,25,79,3,86,139]",-8,0,1,0,0,0,34,34,73,1,Pink,Pink.jpg,Turquiose,Turquiose.jpg,,
,,,,,,,,,,,,,,,,,,-3,,,,,,,,,,,,,,,,,,,,,,,,,,,615e262996a338cda227b1eb,001,2021-12-17_09h05.59.929,jm_natural_scene_simialrity_2-12-2021_version2,2021.2.3,Win32,60.08893162,615e262996a338cda227b1eb,61bbc5c79a1c66460f44041e,61bbc6346452c682923ba30f,,,,,,-79,31,1,0,0,response7disk,3.1697,0,-9,1,0,0,rectangle,0,-9,1,0,0,1,2,"[57,143,31,80,147,25,79,3,86,139]",0,-9,1,0,0,0,35,35,70,1,Purple,Purple.jpg,DarkGreen,DarkGreen.jpg,,
,,,,,,,,,,,,,,,,,,-1,,,,,,,,,,,,,,,,,,,,,,,,,,,615e262996a338cda227b1eb,001,2021-12-17_09h05.59.929,jm_natural_scene_simialrity_2-12-2021_version2,2021.2.3,Win32,60.08893162,615e262996a338cda227b1eb,61bbc5c79a1c66460f44041e,61bbc6346452c682923ba30f,,,,,,-58,-90,1,0,0,response5disk,3.7369,-10,3,1,0,0,rectangle,-10,3,1,0,0,1,-3,"[57,143,31,80,147,25,79,3,86,139]",-10,3,1,0,0,0,36,36,21,1,LightGreen,LightGreen.jpg,DarkBlue,DarkBlue.jpg,,
,,,,,,,,,,,,,,,,,,1,,,,,,,,,,,,,,,,,,,,,,,,,,,615e262996a338cda227b1eb,001,2021-12-17_09h05.59.929,jm_natural_scene_simialrity_2-12-2021_version2,2021.2.3,Win32,60.08893162,615e262996a338cda227b1eb,61bbc5c79a1c66460f44041e,61bbc6346452c682923ba30f,,,,,,43,-79,1,0,0,response3disk,2.1355,-3,-9,1,0,0,rectangle,-3,-9,1,0,0,1,2,"[57,143,31,80,147,25,79,3,86,139]",-3,-9,1,0,0,0,37,37,51,1,Pink,Pink.jpg,Red,Red.jpg,,
,,,,,,,,,,,,,,,,,,-4,,,,,,,,,,,,,,,,,,,,,,,,,,,615e262996a338cda227b1eb,001,2021-12-17_09h05.59.929,jm_natural_scene_simialrity_2-12-2021_version2,2021.2.3,Win32,60.08893162,615e262996a338cda227b1eb,61bbc5c79a1c66460f44041e,61bbc6346452c682923ba30f,,,,,,-33,74,1,0,0,response7disk,2.2189,-5,3,1,0,0,rectangle,-5,3,1,0,0,1,-3,"[57,143,31,80,147,25,79,3,86,139]",-5,3,1,0,0,0,38,38,2,1,Red,Red.jpg,LightGreen,LightGreen.jpg,,
,,,,,,,,,,,,,,,,,,4,,,,,,,,,,,,,,,,,,,,,,,,,,,615e262996a338cda227b1eb,001,2021-12-17_09h05.59.929,jm_natural_scene_simialrity_2-12-2021_version2,2021.2.3,Win32,60.08893162,615e262996a338cda227b1eb,61bbc5c79a1c66460f44041e,61bbc6346452c682923ba30f,,,,,,58,80,1,0,0,response1disk,0.7842,-15,6,1,0,0,rectangle,-15,6,1,0,0,1,1,"[57,143,31,80,147,25,79,3,86,139]",-15,6,1,0,0,0,39,39,35,1,LightBlue,LightBlue.jpg,LightBlue,LightBlue.jpg,,
,,,,,,,,,,,,,,,,,,-4,,,,,,,,,,,,,,,,,,,,,,,,,,,615e262996a338cda227b1eb,001,2021-12-17_09h05.59.929,jm_natural_scene_simialrity_2-12-2021_version2,2021.2.3,Win32,60.08893162,615e262996a338cda227b1eb,61bbc5c79a1c66460f44041e,61bbc6346452c682923ba30f,,,,,,-56,103,1,0,0,response7disk,2.0355,-8,9,1,0,0,rectangle,-8,9,1,0,0,1,2,"[57,143,31,80,147,25,79,3,86,139]",-8,9,1,0,0,0,40,40,10,1,Yellow,Yellow.jpg,LightGreen,LightGreen.jpg,,
,,,,,,,,,,,,,,,,,,-4,,,,,,,,,,,,,,,,,,,,,,,,,,,615e262996a338cda227b1eb,001,2021-12-17_09h05.59.929,jm_natural_scene_simialrity_2-12-2021_version2,2021.2.3,Win32,60.08893162,615e262996a338cda227b1eb,61bbc5c79a1c66460f44041e,61bbc6346452c682923ba30f,,,,,,-33,68,1,0,0,response7disk,1.0894,-6,0,1,0,0,rectangle,-6,0,1,0,0,1,-4,"[57,143,31,80,147,25,79,3,86,139]",-6,0,1,0,0,0,41,41,40,1,DarkBlue,DarkBlue.jpg,Pink,Pink.jpg,,
,,,,,,,,,,,,,,,,,,-4,,,,,,,,,,,,,,,,,,,,,,,,,,,615e262996a338cda227b1eb,001,2021-12-17_09h05.59.929,jm_natural_scene_simialrity_2-12-2021_version2,2021.2.3,Win32,60.08893162,615e262996a338cda227b1eb,61bbc5c79a1c66460f44041e,61bbc6346452c682923ba30f,,,,,,-39,71,1,0,0,response7disk,1.7185,7,-2,1,0,0,rectangle,7,-2,1,0,0,1,3,"[57,143,31,80,147,25,79,3,86,139]",7,-2,1,0,0,0,42,42,4,1,Red,Red.jpg,Turquiose,Turquiose.jpg,,
,,,,,,,,,,,,,,,,,,-4,,,,,,,,,,,,,,,,,,,,,,,,,,,615e262996a338cda227b1eb,001,2021-12-17_09h05.59.929,jm_natural_scene_simialrity_2-12-2021_version2,2021.2.3,Win32,60.08893162,615e262996a338cda227b1eb,61bbc5c79a1c66460f44041e,61bbc6346452c682923ba30f,,,,,,-60,85,1,0,0,response7disk,1.0635,-6,2,1,0,0,rectangle,-6,2,1,0,0,1,2,"[57,143,31,80,147,25,79,3,86,139]",-6,2,1,0,0,0,43,43,11,1,Yellow,Yellow.jpg,DarkGreen,DarkGreen.jpg,,
,,,,,,,,,,,,,,,,,,2,,,,,,,,,,,,,,,,,,,,,,,,,,,615e262996a338cda227b1eb,001,2021-12-17_09h05.59.929,jm_natural_scene_simialrity_2-12-2021_version2,2021.2.3,Win32,60.08893162,615e262996a338cda227b1eb,61bbc5c79a1c66460f44041e,61bbc6346452c682923ba30f,,,,,,66,-32,1,0,0,response3disk,4.004,-11,10,1,0,0,rectangle,-11,10,1,0,0,1,1,"[57,143,31,80,147,25,79,3,86,139]",-11,10,1,0,0,0,44,44,1,1,Red,Red.jpg,Yellow,Yellow.jpg,,
,,,,,,,,,,,,,,,,,,2,,,,,,,,,,,,,,,,,,,,,,,,,,,615e262996a338cda227b1eb,001,2021-12-17_09h05.59.929,jm_natural_scene_simialrity_2-12-2021_version2,2021.2.3,Win32,60.08893162,615e262996a338cda227b1eb,61bbc5c79a1c66460f44041e,61bbc6346452c682923ba30f,,,,,,74,-46,1,0,0,response3disk,1.4016,-11,-1,1,0,0,rectangle,-11,-1,1,0,0,1,2,"[57,143,31,80,147,25,79,3,86,139]",-11,-1,1,0,0,0,45,45,19,1,LightGreen,LightGreen.jpg,Turquiose,Turquiose.jpg,,
,,,,,,,,,,,,,,,,,,-4,,,,,,,,,,,,,,,,,,,,,,,,,,,615e262996a338cda227b1eb,001,2021-12-17_09h05.59.929,jm_natural_scene_simialrity_2-12-2021_version2,2021.2.3,Win32,60.08893162,615e262996a338cda227b1eb,61bbc5c79a1c66460f44041e,61bbc6346452c682923ba30f,,,,,,-46,80,1,0,0,response7disk,1.2344,-1,2,1,0,0,rectangle,-1,2,1,0,0,1,-2,"[57,143,31,80,147,25,79,3,86,139]",-1,2,1,0,0,0,46,46,56,1,LightBlue,LightBlue.jpg,Yellow,Yellow.jpg,,
,,,,,,,,,,,,,,,,,,1,,,,,,,,,,,,,,,,,,,,,,,,,,,615e262996a338cda227b1eb,001,2021-12-17_09h05.59.929,jm_natural_scene_simialrity_2-12-2021_version2,2021.2.3,Win32,60.08893162,615e262996a338cda227b1eb,61bbc5c79a1c66460f44041e,61bbc6346452c682923ba30f,,,,,,48,-104,1,0,0,response3disk,1.4514,-8,2,1,0,0,rectangle,-8,2,1,0,0,1,-2,"[57,143,31,80,147,25,79,3,86,139]",-8,2,1,0,0,0,47,47,80,1,Purple,Purple.jpg,Pink,Pink.jpg,,
,,,,,,,,,,,,,,,,,,4,,,,,,,,,,,,,,,,,,,,,,,,,,,615e262996a338cda227b1eb,001,2021-12-17_09h05.59.929,jm_natural_scene_simialrity_2-12-2021_version2,2021.2.3,Win32,60.08893162,615e262996a338cda227b1eb,61bbc5c79a1c66460f44041e,61bbc6346452c682923ba30f,,,,,,29,84,1,0,0,response1disk,0.8058,8,3,1,0,0,rectangle,8,3,1,0,0,1,-2,"[57,143,31,80,147,25,79,3,86,139]",8,3,1,0,0,0,48,48,42,1,Pink,Pink.jpg,Pink,Pink.jpg,,
,,,,,,,,,,,,,,,,,,-4,,,,,,,,,,,,,,,,,,,,,,,,,,,615e262996a338cda227b1eb,001,2021-12-17_09h05.59.929,jm_natural_scene_simialrity_2-12-2021_version2,2021.2.3,Win32,60.08893162,615e262996a338cda227b1eb,61bbc5c79a1c66460f44041e,61bbc6346452c682923ba30f,,,,,,-33,81,1,0,0,response7disk,1.0132,3,-4,1,0,0,rectangle,3,-4,1,0,0,1,1,"[57,143,31,80,147,25,79,3,86,139]",3,-4,1,0,0,0,49,49,12,1,Yellow,Yellow.jpg,Turquiose,Turquiose.jpg,,
,,,,,,,,,,,,,,,,,,2,,,,,,,,,,,,,,,,,,,,,,,,,,,615e262996a338cda227b1eb,001,2021-12-17_09h05.59.929,jm_natural_scene_simialrity_2-12-2021_version2,2021.2.3,Win32,60.08893162,615e262996a338cda227b1eb,61bbc5c79a1c66460f44041e,61bbc6346452c682923ba30f,,,,,,69,-34,1,0,0,response3disk,2.1522,-5,8,1,0,0,rectangle,-5,8,1,0,0,1,-3,"[57,143,31,80,147,25,79,3,86,139]",-5,8,1,0,0,0,50,50,66,1,Turquiose,Turquiose.jpg,DarkGreen,DarkGreen.jpg,,
,,,,,,,,,,,,,,,,,,-4,,,,,,,,,,,,,,,,,,,,,,,,,,,615e262996a338cda227b1eb,001,2021-12-17_09h05.59.929,jm_natural_scene_simialrity_2-12-2021_version2,2021.2.3,Win32,60.08893162,615e262996a338cda227b1eb,61bbc5c79a1c66460f44041e,61bbc6346452c682923ba30f,,,,,,-44,77,1,0,0,response7disk,2.7578,9,-12,1,0,0,rectangle,9,-12,1,0,0,1,1,"[57,143,31,80,147,25,79,3,86,139]",9,-12,1,0,0,0,51,51,23,1,LightGreen,LightGreen.jpg,Purple,Purple.jpg,,
,,,,,,,,,,,,,,,,,,1,,,,,,,,,,,,,,,,,,,,,,,,,,,615e262996a338cda227b1eb,001,2021-12-17_09h05.59.929,jm_natural_scene_simialrity_2-12-2021_version2,2021.2.3,Win32,60.08893162,615e262996a338cda227b1eb,61bbc5c79a1c66460f44041e,61bbc6346452c682923ba30f,,,,,,31,-92,1,0,0,response3disk,2.9563,-2,4,1,0,0,rectangle,-2,4,1,0,0,1,-2,"[57,143,31,80,147,25,79,3,86,139]",-2,4,1,0,0,0,52,52,27,1,DarkGreen,DarkGreen.jpg,DarkBlue,DarkBlue.jpg,,
,,,,,,,,,,,,,,,,,,-4,,,,,,,,,,,,,,,,,,,,,,,,,,,615e262996a338cda227b1eb,001,2021-12-17_09h05.59.929,jm_natural_scene_simialrity_2-12-2021_version2,2021.2.3,Win32,60.08893162,615e262996a338cda227b1eb,61bbc5c79a1c66460f44041e,61bbc6346452c682923ba30f,,,,,,-42,77,1,0,0,response7disk,1.3679,-10,6,1,0,0,rectangle,-10,6,1,0,0,1,-4,"[57,143,31,80,147,25,79,3,86,139]",-10,6,1,0,0,0,53,53,22,1,LightGreen,LightGreen.jpg,Pink,Pink.jpg,,
,,,,,,,,,,,,,,,,,,3,,,,,,,,,,,,,,,,,,,,,,,,,,,615e262996a338cda227b1eb,001,2021-12-17_09h05.59.929,jm_natural_scene_simialrity_2-12-2021_version2,2021.2.3,Win32,60.08893162,615e262996a338cda227b1eb,61bbc5c79a1c66460f44041e,61bbc6346452c682923ba30f,,,,,,122,25,1,0,0,response1disk,2.0522,10,2,1,0,0,rectangle,10,2,1,0,0,1,2,"[57,143,31,80,147,25,79,3,86,139]",10,2,1,0,0,0,54,54,18,1,LightGreen,LightGreen.jpg,DarkGreen,DarkGreen.jpg,,
,,,,,,,,,,,,,,,,,,-4,,,,,,,,,,,,,,,,,,,,,,,,,,,615e262996a338cda227b1eb,001,2021-12-17_09h05.59.929,jm_natural_scene_simialrity_2-12-2021_version2,2021.2.3,Win32,60.08893162,615e262996a338cda227b1eb,61bbc5c79a1c66460f44041e,61bbc6346452c682923ba30f,,,,,,-30,66,1,0,0,response7disk,1.0353,-9,-1,1,0,0,rectangle,-9,-1,1,0,0,1,2,"[57,143,31,80,147,25,79,3,86,139]",-9,-1,1,0,0,0,55,55,3,1,Red,Red.jpg,DarkGreen,DarkGreen.jpg,,
,,,,,,,,,,,,,,,,,,2,,,,,,,,,,,,,,,,,,,,,,,,,,,615e262996a338cda227b1eb,001,2021-12-17_09h05.59.929,jm_natural_scene_simialrity_2-12-2021_version2,2021.2.3,Win32,60.08893162,615e262996a338cda227b1eb,61bbc5c79a1c66460f44041e,61bbc6346452c682923ba30f,,,,,,116,-35,1,0,0,response3disk,4.755,-7,14,1,0,0,rectangle,57,42,1,0,0,3,3,"[57,143,31,80,147,25,79,3,86,139]",-5,3,1,0,0,0,56,56,25,1,DarkGreen,DarkGreen.jpg,Turquiose,Turquiose.jpg,response1disk_3,rectangle
,,,,,,,,,,,,,,,,,,4,,,,,,,,,,,,,,,,,,,,,,,,,,,615e262996a338cda227b1eb,001,2021-12-17_09h05.59.929,jm_natural_scene_simialrity_2-12-2021_version2,2021.2.3,Win32,60.08893162,615e262996a338cda227b1eb,61bbc5c79a1c66460f44041e,61bbc6346452c682923ba30f,,,,,,39,88,1,0,0,response1disk,0.8176,2,-5,1,0,0,rectangle,2,-5,1,0,0,3,2,"[57,143,31,80,147,25,79,3,86,139]",2,-5,1,0,0,0,57,57,39,1,DarkBlue,DarkBlue.jpg,DarkBlue,DarkBlue.jpg,,
,,,,,,,,,,,,,,,,,,3,,,,,,,,,,,,,,,,,,,,,,,,,,,615e262996a338cda227b1eb,001,2021-12-17_09h05.59.929,jm_natural_scene_simialrity_2-12-2021_version2,2021.2.3,Win32,60.08893162,615e262996a338cda227b1eb,61bbc5c79a1c66460f44041e,61bbc6346452c682923ba30f,,,,,,82,41,1,0,0,response1disk,2.7242,5,2,1,0,0,rectangle,5,2,1,0,0,3,3,"[57,143,31,80,147,25,79,3,86,139]",5,2,1,0,0,0,58,58,7,1,Red,Red.jpg,Pink,Pink.jpg,,
,,,,,,,,,,,,,,,,,,-4,,,,,,,,,,,,,,,,,,,,,,,,,,,615e262996a338cda227b1eb,001,2021-12-17_09h05.59.929,jm_natural_scene_simialrity_2-12-2021_version2,2021.2.3,Win32,60.08893162,615e262996a338cda227b1eb,61bbc5c79a1c66460f44041e,61bbc6346452c682923ba30f,,,,,,-35,80,1,0,0,response7disk,1.5012,4,-4,1,0,0,rectangle,4,-4,1,0,0,3,-4,"[57,143,31,80,147,25,79,3,86,139]",4,-4,1,0,0,0,59,59,49,1,LightBlue,LightBlue.jpg,Red,Red.jpg,,
,,,,,,,,,,,,,,,,,,-4,,,,,,,,,,,,,,,,,,,,,,,,,,,615e262996a338cda227b1eb,001,2021-12-17_09h05.59.929,jm_natural_scene_simialrity_2-12-2021_version2,2021.2.3,Win32,60.08893162,615e262996a338cda227b1eb,61bbc5c79a1c66460f44041e,61bbc6346452c682923ba30f,,,,,,-34,81,1,0,0,response7disk,0.9677,-2,0,1,0,0,rectangle,-2,0,1,0,0,3,3,"[57,143,31,80,147,25,79,3,86,139]",-2,0,1,0,0,0,60,60,6,1,Red,Red.jpg,DarkBlue,DarkBlue.jpg,,
,,,,,,,,,,,,,,,,,,-4,,,,,,,,,,,,,,,,,,,,,,,,,,,615e262996a338cda227b1eb,001,2021-12-17_09h05.59.929,jm_natural_scene_simialrity_2-12-2021_version2,2021.2.3,Win32,60.08893162,615e262996a338cda227b1eb,61bbc5c79a1c66460f44041e,61bbc6346452c682923ba30f,,,,,,-39,87,1,0,0,response7disk,3.42,-12,-2,1,0,0,rectangle,-12,-2,1,0,0,3,2,"[57,143,31,80,147,25,79,3,86,139]",-12,-2,1,0,0,0,61,61,53,1,LightGreen,LightGreen.jpg,Yellow,Yellow.jpg,,
,,,,,,,,,,,,,,,,,,-2,,,,,,,,,,,,,,,,,,,,,,,,,,,615e262996a338cda227b1eb,001,2021-12-17_09h05.59.929,jm_natural_scene_simialrity_2-12-2021_version2,2021.2.3,Win32,60.08893162,615e262996a338cda227b1eb,61bbc5c79a1c66460f44041e,61bbc6346452c682923ba30f,,,,,,-73,-37,1,0,0,response5disk,2.5693,8,1,1,0,0,rectangle,8,1,1,0,0,3,-4,"[57,143,31,80,147,25,79,3,86,139]",8,1,1,0,0,0,62,62,62,1,LightBlue,LightBlue.jpg,LightGreen,LightGreen.jpg,,
,,,,,,,,,,,,,,,,,,1,,,,,,,,,,,,,,,,,,,,,,,,,,,615e262996a338cda227b1eb,001,2021-12-17_09h05.59.929,jm_natural_scene_simialrity_2-12-2021_version2,2021.2.3,Win32,60.08893162,615e262996a338cda227b1eb,61bbc5c79a1c66460f44041e,61bbc6346452c682923ba30f,,,,,,31,-91,1,0,0,response3disk,1.9188,1,5,1,0,0,rectangle,1,5,1,0,0,3,3,"[57,143,31,80,147,25,79,3,86,139]",1,5,1,0,0,0,63,63,72,1,DarkBlue,DarkBlue.jpg,Turquiose,Turquiose.jpg,,
,,,,,,,,,,,,,,,,,,-4,,,,,,,,,,,,,,,,,,,,,,,,,,,615e262996a338cda227b1eb,001,2021-12-17_09h05.59.929,jm_natural_scene_simialrity_2-12-2021_version2,2021.2.3,Win32,60.08893162,615e262996a338cda227b1eb,61bbc5c79a1c66460f44041e,61bbc6346452c682923ba30f,,,,,,-43,88,1,0,0,response7disk,1.0346,3,-1,1,0,0,rectangle,3,-1,1,0,0,3,1,"[57,143,31,80,147,25,79,3,86,139]",3,-1,1,0,0,0,64,64,67,1,LightBlue,LightBlue.jpg,DarkGreen,DarkGreen.jpg,,
,,,,,,,,,,,,,,,,,,4,,,,,,,,,,,,,,,,,,,,,,,,,,,615e262996a338cda227b1eb,001,2021-12-17_09h05.59.929,jm_natural_scene_simialrity_2-12-2021_version2,2021.2.3,Win32,60.08893162,615e262996a338cda227b1eb,61bbc5c79a1c66460f44041e,61bbc6346452c682923ba30f,,,,,,39,75,1,0,0,response1disk,1.1346,7,0,1,0,0,rectangle,7,0,1,0,0,3,-3,"[57,143,31,80,147,25,79,3,86,139]",7,0,1,0,0,0,65,65,9,1,Yellow,Yellow.jpg,Yellow,Yellow.jpg,,
,,,,,,,,,,,,,,,,,,2,,,,,,,,,,,,,,,,,,,,,,,,,,,615e262996a338cda227b1eb,001,2021-12-17_09h05.59.929,jm_natural_scene_simialrity_2-12-2021_version2,2021.2.3,Win32,60.08893162,615e262996a338cda227b1eb,61bbc5c79a1c66460f44041e,61bbc6346452c682923ba30f,,,,,,108,-35,1,0,0,response3disk,5.005,10,-4,1,0,0,rectangle,10,-4,1,0,0,3,2,"[57,143,31,80,147,25,79,3,86,139]",10,-4,1,0,0,0,66,66,68,1,DarkBlue,DarkBlue.jpg,DarkGreen,DarkGreen.jpg,,
,,,,,,,,,,,,,,,,,,-1,,,,,,,,,,,,,,,,,,,,,,,,,,,615e262996a338cda227b1eb,001,2021-12-17_09h05.59.929,jm_natural_scene_simialrity_2-12-2021_version2,2021.2.3,Win32,60.08893162,615e262996a338cda227b1eb,61bbc5c79a1c66460f44041e,61bbc6346452c682923ba30f,,,,,,-35,-77,1,0,0,response5disk,1.9352,-4,5,1,0,0,rectangle,-4,5,1,0,0,3,3,"[57,143,31,80,147,25,79,3,86,139]",-4,5,1,0,0,0,67,67,65,1,Purple,Purple.jpg,LightGreen,LightGreen.jpg,,
,,,,,,,,,,,,,,,,,,-3,,,,,,,,,,,,,,,,,,,,,,,,,,,615e262996a338cda227b1eb,001,2021-12-17_09h05.59.929,jm_natural_scene_simialrity_2-12-2021_version2,2021.2.3,Win32,60.08893162,615e262996a338cda227b1eb,61bbc5c79a1c66460f44041e,61bbc6346452c682923ba30f,,,,,,-78,31,1,0,0,response7disk,1.7855,-1,7,1,0,0,rectangle,-1,7,1,0,0,3,1,"[57,143,31,80,147,25,79,3,86,139]",-1,7,1,0,0,0,68,68,79,1,Purple,Purple.jpg,DarkBlue,DarkBlue.jpg,,
,,,,,,,,,,,,,,,,,,-4,,,,,,,,,,,,,,,,,,,,,,,,,,,615e262996a338cda227b1eb,001,2021-12-17_09h05.59.929,jm_natural_scene_simialrity_2-12-2021_version2,2021.2.3,Win32,60.08893162,615e262996a338cda227b1eb,61bbc5c79a1c66460f44041e,61bbc6346452c682923ba30f,,,,,,-32,74,1,0,0,response7disk,1.0229,3,6,1,0,0,rectangle,3,6,1,0,0,3,-4,"[57,143,31,80,147,25,79,3,86,139]",3,6,1,0,0,0,69,69,46,1,LightGreen,LightGreen.jpg,Red,Red.jpg,,
,,,,,,,,,,,,,,,,,,4,,,,,,,,,,,,,,,,,,,,,,,,,,,615e262996a338cda227b1eb,001,2021-12-17_09h05.59.929,jm_natural_scene_simialrity_2-12-2021_version2,2021.2.3,Win32,60.08893162,615e262996a338cda227b1eb,61bbc5c79a1c66460f44041e,61bbc6346452c682923ba30f,,,,,,37,73,1,0,0,response1disk,0.6839,-4,-4,1,0,0,rectangle,-4,-4,1,0,0,3,1,"[57,143,31,80,147,25,79,3,86,139]",-4,-4,1,0,0,0,70,70,30,1,Turquiose,Turquiose.jpg,Turquiose,Turquiose.jpg,,
,,,,,,,,,,,,,,,,,,-2,,,,,,,,,,,,,,,,,,,,,,,,,,,615e262996a338cda227b1eb,001,2021-12-17_09h05.59.929,jm_natural_scene_simialrity_2-12-2021_version2,2021.2.3,Win32,60.08893162,615e262996a338cda227b1eb,61bbc5c79a1c66460f44041e,61bbc6346452c682923ba30f,,,,,,-70,-32,1,0,0,response5disk,4.2878,-13,1,1,0,0,rectangle,-13,1,1,0,0,3,-3,"[57,143,31,80,147,25,79,3,86,139]",-13,1,1,0,0,0,71,71,20,1,LightGreen,LightGreen.jpg,LightBlue,LightBlue.jpg,,
,,,,,,,,,,,,,,,,,,-4,,,,,,,,,,,,,,,,,,,,,,,,,,,615e262996a338cda227b1eb,001,2021-12-17_09h05.59.929,jm_natural_scene_simialrity_2-12-2021_version2,2021.2.3,Win32,60.08893162,615e262996a338cda227b1eb,61bbc5c79a1c66460f44041e,61bbc6346452c682923ba30f,,,,,,-35,76,1,0,0,response7disk,0.8842,-8,3,1,0,0,rectangle,-8,3,1,0,0,3,3,"[57,143,31,80,147,25,79,3,86,139]",-8,3,1,0,0,0,72,72,50,1,DarkBlue,DarkBlue.jpg,Red,Red.jpg,,
,,,,,,,,,,,,,,,,,,2,,,,,,,,,,,,,,,,,,,,,,,,,,,615e262996a338cda227b1eb,001,2021-12-17_09h05.59.929,jm_natural_scene_simialrity_2-12-2021_version2,2021.2.3,Win32,60.08893162,615e262996a338cda227b1eb,61bbc5c79a1c66460f44041e,61bbc6346452c682923ba30f,,,,,,66,-40,1,0,0,response3disk,2.5527,10,10,1,0,0,rectangle,10,10,1,0,0,3,-4,"[57,143,31,80,147,25,79,3,86,139]",10,10,1,0,0,0,73,73,45,1,Yellow,Yellow.jpg,Red,Red.jpg,,
,,,,,,,,,,,,,,,,,,-4,,,,,,,,,,,,,,,,,,,,,,,,,,,615e262996a338cda227b1eb,001,2021-12-17_09h05.59.929,jm_natural_scene_simialrity_2-12-2021_version2,2021.2.3,Win32,60.08893162,615e262996a338cda227b1eb,61bbc5c79a1c66460f44041e,61bbc6346452c682923ba30f,,,,,,-29,68,1,0,0,response7disk,0.8175,6,4,1,0,0,rectangle,6,4,1,0,0,3,-2,"[57,143,31,80,147,25,79,3,86,139]",6,4,1,0,0,0,74,74,48,1,Turquiose,Turquiose.jpg,Red,Red.jpg,,
,,,,,,,,,,,,,,,,,,-4,,,,,,,,,,,,,,,,,,,,,,,,,,,615e262996a338cda227b1eb,001,2021-12-17_09h05.59.929,jm_natural_scene_simialrity_2-12-2021_version2,2021.2.3,Win32,60.08893162,615e262996a338cda227b1eb,61bbc5c79a1c66460f44041e,61bbc6346452c682923ba30f,,,,,,-29,65,1,0,0,response7disk,0.8893,-2,5,1,0,0,rectangle,-2,5,1,0,0,3,3,"[57,143,31,80,147,25,79,3,86,139]",-2,5,1,0,0,0,75,75,78,1,Pink,Pink.jpg,DarkBlue,DarkBlue.jpg,,
,,,,,,,,,,,,,,,,,,-4,,,,,,,,,,,,,,,,,,,,,,,,,,,615e262996a338cda227b1eb,001,2021-12-17_09h05.59.929,jm_natural_scene_simialrity_2-12-2021_version2,2021.2.3,Win32,60.08893162,615e262996a338cda227b1eb,61bbc5c79a1c66460f44041e,61bbc6346452c682923ba30f,,,,,,-39,72,1,0,0,response7disk,0.8511,1,-17,1,0,0,rectangle,1,-17,1,0,0,3,-4,"[57,143,31,80,147,25,79,3,86,139]",1,-17,1,0,0,0,76,76,13,1,Yellow,Yellow.jpg,LightBlue,LightBlue.jpg,,
,,,,,,,,,,,,,,,,,,-4,,,,,,,,,,,,,,,,,,,,,,,,,,,615e262996a338cda227b1eb,001,2021-12-17_09h05.59.929,jm_natural_scene_simialrity_2-12-2021_version2,2021.2.3,Win32,60.08893162,615e262996a338cda227b1eb,61bbc5c79a1c66460f44041e,61bbc6346452c682923ba30f,,,,,,-30,63,1,0,0,response7disk,1.2512,14,-14,1,0,0,rectangle,14,-14,1,0,0,3,1,"[57,143,31,80,147,25,79,3,86,139]",14,-14,1,0,0,0,77,77,47,1,DarkGreen,DarkGreen.jpg,Red,Red.jpg,,
,,,,,,,,,,,,,,,,,,-4,,,,,,,,,,,,,,,,,,,,,,,,,,,615e262996a338cda227b1eb,001,2021-12-17_09h05.59.929,jm_natural_scene_simialrity_2-12-2021_version2,2021.2.3,Win32,60.08893162,615e262996a338cda227b1eb,61bbc5c79a1c66460f44041e,61bbc6346452c682923ba30f,,,,,,-36,64,1,0,0,response7disk,1.8183,3,3,1,0,0,rectangle,105,-67,1,0,0,2,2,"[57,143,31,80,147,25,79,3,86,139]",-6,2,1,0,0,0,78,78,41,1,DarkBlue,DarkBlue.jpg,Purple,Purple.jpg,response3disk_3,rectangle
,,,,,,,,,,,,,,,,,,4,,,,,,,,,,,,,,,,,,,,,,,,,,,615e262996a338cda227b1eb,001,2021-12-17_09h05.59.929,jm_natural_scene_simialrity_2-12-2021_version2,2021.2.3,Win32,60.08893162,615e262996a338cda227b1eb,61bbc5c79a1c66460f44041e,61bbc6346452c682923ba30f,,,,,,31,77,1,0,0,response1disk,0.739,7,7,1,0,0,rectangle,124,48,1,0,0,3,3,"[57,143,31,80,147,25,79,3,86,139]",-6,8,1,0,0,0,79,79,17,1,LightGreen,LightGreen.jpg,LightGreen,LightGreen.jpg,response1disk_3,rectangle
,,,,,,,,,,,,,,,,,,-4,,,,,,,,,,,,,,,,,,,,,,,,,,,615e262996a338cda227b1eb,001,2021-12-17_09h05.59.929,jm_natural_scene_simialrity_2-12-2021_version2,2021.2.3,Win32,60.08893162,615e262996a338cda227b1eb,61bbc5c79a1c66460f44041e,61bbc6346452c682923ba30f,,,,,,-40,87,1,0,0,response7disk,0.7895,-10,-3,1,0,0,rectangle,-10,-3,1,0,0,3,-4,"[57,143,31,80,147,25,79,3,86,139]",-10,-3,1,0,0,0,80,80,14,1,Yellow,Yellow.jpg,DarkBlue,DarkBlue.jpg,,
,,,,,,,,,,,,,,,,,,4,,,,,,,,,,,,,,,,,,,,,,,,,,,615e262996a338cda227b1eb,001,2021-12-17_09h05.59.929,jm_natural_scene_simialrity_2-12-2021_version2,2021.2.3,Win32,60.08893162,615e262996a338cda227b1eb,61bbc5c79a1c66460f44041e,61bbc6346452c682923ba30f,,,,,,32,73,1,0,0,response1disk,0.7569,-13,-5,1,0,0,rectangle,-13,-5,1,0,0,3,-4,"[57,143,31,80,147,25,79,3,86,139]",-13,-5,1,0,0,1,0,81,44,1,Purple,Purple.jpg,Purple,Purple.jpg,,
,,,,,,,,,,,,,,,,,,-4,,,,,,,,,,,,,,,,,,,,,,,,,,,615e262996a338cda227b1eb,001,2021-12-17_09h05.59.929,jm_natural_scene_simialrity_2-12-2021_version2,2021.2.3,Win32,60.08893162,615e262996a338cda227b1eb,61bbc5c79a1c66460f44041e,61bbc6346452c682923ba30f,,,,,,-37,94,1,0,0,response7disk,0.8175,-9,5,1,0,0,rectangle,-9,5,1,0,0,3,-3,"[57,143,31,80,147,25,79,3,86,139]",-9,5,1,0,0,1,1,82,55,1,Turquiose,Turquiose.jpg,Yellow,Yellow.jpg,,
,,,,,,,,,,,,,,,,,,-4,,,,,,,,,,,,,,,,,,,,,,,,,,,615e262996a338cda227b1eb,001,2021-12-17_09h05.59.929,jm_natural_scene_simialrity_2-12-2021_version2,2021.2.3,Win32,60.08893162,615e262996a338cda227b1eb,61bbc5c79a1c66460f44041e,61bbc6346452c682923ba30f,,,,,,-44,85,1,0,0,response7disk,0.7888,-2,-2,1,0,0,rectangle,-2,-2,1,0,0,3,-1,"[57,143,31,80,147,25,79,3,86,139]",-2,-2,1,0,0,1,2,83,12,1,Yellow,Yellow.jpg,Turquiose,Turquiose.jpg,,
,,,,,,,,,,,,,,,,,,-1,,,,,,,,,,,,,,,,,,,,,,,,,,,615e262996a338cda227b1eb,001,2021-12-17_09h05.59.929,jm_natural_scene_simialrity_2-12-2021_version2,2021.2.3,Win32,60.08893162,615e262996a338cda227b1eb,61bbc5c79a1c66460f44041e,61bbc6346452c682923ba30f,,,,,,-44,-91,1,0,0,response5disk,3.3868,10,12,1,0,0,rectangle,10,12,1,0,0,3,-2,"[57,143,31,80,147,25,79,3,86,139]",10,12,1,0,0,1,3,84,20,1,LightGreen,LightGreen.jpg,LightBlue,LightBlue.jpg,,
,,,,,,,,,,,,,,,,,,-3,,,,,,,,,,,,,,,,,,,,,,,,,,,615e262996a338cda227b1eb,001,2021-12-17_09h05.59.929,jm_natural_scene_simialrity_2-12-2021_version2,2021.2.3,Win32,60.08893162,615e262996a338cda227b1eb,61bbc5c79a1c66460f44041e,61bbc6346452c682923ba30f,,,,,,-64,35,1,0,0,response7disk,3.4068,4,7,1,0,0,rectangle,-83,42,1,0,0,-3,-3,"[57,143,31,80,147,25,79,3,86,139]",8,-3,1,0,0,1,4,85,21,1,LightGreen,LightGreen.jpg,DarkBlue,DarkBlue.jpg,response7disk_3,rectangle
,,,,,,,,,,,,,,,,,,-4,,,,,,,,,,,,,,,,,,,,,,,,,,,615e262996a338cda227b1eb,001,2021-12-17_09h05.59.929,jm_natural_scene_simialrity_2-12-2021_version2,2021.2.3,Win32,60.08893162,615e262996a338cda227b1eb,61bbc5c79a1c66460f44041e,61bbc6346452c682923ba30f,,,,,,-32,70,1,0,0,response7disk,0.7223,-8,-5,1,0,0,rectangle,-8,-5,1,0,0,-3,1,"[57,143,31,80,147,25,79,3,86,139]",-8,-5,1,0,0,1,5,86,5,1,Red,Red.jpg,LightBlue,LightBlue.jpg,,
,,,,,,,,,,,,,,,,,,2,,,,,,,,,,,,,,,,,,,,,,,,,,,615e262996a338cda227b1eb,001,2021-12-17_09h05.59.929,jm_natural_scene_simialrity_2-12-2021_version2,2021.2.3,Win32,60.08893162,615e262996a338cda227b1eb,61bbc5c79a1c66460f44041e,61bbc6346452c682923ba30f,,,,,,91,-46,1,0,0,response3disk,3.27,-3,6,1,0,0,rectangle,-3,6,1,0,0,-3,1,"[57,143,31,80,147,25,79,3,86,139]",-3,6,1,0,0,1,6,87,19,1,LightGreen,LightGreen.jpg,Turquiose,Turquiose.jpg,,
,,,,,,,,,,,,,,,,,,-3,,,,,,,,,,,,,,,,,,,,,,,,,,,615e262996a338cda227b1eb,001,2021-12-17_09h05.59.929,jm_natural_scene_simialrity_2-12-2021_version2,2021.2.3,Win32,60.08893162,615e262996a338cda227b1eb,61bbc5c79a1c66460f44041e,61bbc6346452c682923ba30f,,,,,,-87,42,1,0,0,response7disk,1.1798,-7,-1,1,0,0,rectangle,-7,-1,1,0,0,-3,-1,"[57,143,31,80,147,25,79,3,86,139]",-7,-1,1,0,0,1,7,88,43,1,Pink,Pink.jpg,Purple,Purple.jpg,,
,,,,,,,,,,,,,,,,,,-4,,,,,,,,,,,,,,,,,,,,,,,,,,,615e262996a338cda227b1eb,001,2021-12-17_09h05.59.929,jm_natural_scene_simialrity_2-12-2021_version2,2021.2.3,Win32,60.08893162,615e262996a338cda227b1eb,61bbc5c79a1c66460f44041e,61bbc6346452c682923ba30f,,,,,,-38,74,1,0,0,response7disk,0.8677,5,-4,1,0,0,rectangle,5,-4,1,0,0,-3,-2,"[57,143,31,80,147,25,79,3,86,139]",5,-4,1,0,0,1,8,89,47,1,DarkGreen,DarkGreen.jpg,Red,Red.jpg,,
,,,,,,,,,,,,,,,,,,-2,,,,,,,,,,,,,,,,,,,,,,,,,,,615e262996a338cda227b1eb,001,2021-12-17_09h05.59.929,jm_natural_scene_simialrity_2-12-2021_version2,2021.2.3,Win32,60.08893162,615e262996a338cda227b1eb,61bbc5c79a1c66460f44041e,61bbc6346452c682923ba30f,,,,,,-55,-28,1,0,0,response5disk,1.54,1,-5,1,0,0,rectangle,1,-5,1,0,0,-3,2,"[57,143,31,80,147,25,79,3,86,139]",1,-5,1,0,0,1,9,90,26,1,DarkGreen,DarkGreen.jpg,LightBlue,LightBlue.jpg,,
,,,,,,,,,,,,,,,,,,3,,,,,,,,,,,,,,,,,,,,,,,,,,,615e262996a338cda227b1eb,001,2021-12-17_09h05.59.929,jm_natural_scene_simialrity_2-12-2021_version2,2021.2.3,Win32,60.08893162,615e262996a338cda227b1eb,61bbc5c79a1c66460f44041e,61bbc6346452c682923ba30f,,,,,,63,36,1,0,0,response1disk,2.1356,2,2,1,0,0,rectangle,2,2,1,0,0,-3,3,"[57,143,31,80,147,25,79,3,86,139]",2,2,1,0,0,1,10,91,38,1,LightBlue,LightBlue.jpg,Purple,Purple.jpg,,
,,,,,,,,,,,,,,,,,,-3,,,,,,,,,,,,,,,,,,,,,,,,,,,615e262996a338cda227b1eb,001,2021-12-17_09h05.59.929,jm_natural_scene_simialrity_2-12-2021_version2,2021.2.3,Win32,60.08893162,615e262996a338cda227b1eb,61bbc5c79a1c66460f44041e,61bbc6346452c682923ba30f,,,,,,-66,49,1,0,0,response7disk,2.436,4,-1,1,0,0,rectangle,4,-1,1,0,0,-3,1,"[57,143,31,80,147,25,79,3,86,139]",4,-1,1,0,0,1,11,92,76,1,Pink,Pink.jpg,LightBlue,LightBlue.jpg,,
,,,,,,,,,,,,,,,,,,-3,,,,,,,,,,,,,,,,,,,,,,,,,,,615e262996a338cda227b1eb,001,2021-12-17_09h05.59.929,jm_natural_scene_simialrity_2-12-2021_version2,2021.2.3,Win32,60.08893162,615e262996a338cda227b1eb,61bbc5c79a1c66460f44041e,61bbc6346452c682923ba30f,,,,,,-79,38,1,0,0,response7disk,1.4898,4,3,1,0,0,rectangle,4,3,1,0,0,-3,3,"[57,143,31,80,147,25,79,3,86,139]",4,3,1,0,0,1,12,93,70,1,Purple,Purple.jpg,DarkGreen,DarkGreen.jpg,,
,,,,,,,,,,,,,,,,,,-4,,,,,,,,,,,,,,,,,,,,,,,,,,,615e262996a338cda227b1eb,001,2021-12-17_09h05.59.929,jm_natural_scene_simialrity_2-12-2021_version2,2021.2.3,Win32,60.08893162,615e262996a338cda227b1eb,61bbc5c79a1c66460f44041e,61bbc6346452c682923ba30f,,,,,,-28,61,1,0,0,response7disk,0.934,-2,-17,1,0,0,rectangle,-2,-17,1,0,0,-3,-1,"[57,143,31,80,147,25,79,3,86,139]",-2,-17,1,0,0,1,13,94,4,1,Red,Red.jpg,Turquiose,Turquiose.jpg,,
,,,,,,,,,,,,,,,,,,2,,,,,,,,,,,,,,,,,,,,,,,,,,,615e262996a338cda227b1eb,001,2021-12-17_09h05.59.929,jm_natural_scene_simialrity_2-12-2021_version2,2021.2.3,Win32,60.08893162,615e262996a338cda227b1eb,61bbc5c79a1c66460f44041e,61bbc6346452c682923ba30f,,,,,,71,-41,1,0,0,response3disk,2.8695,1,-9,1,0,0,rectangle,1,-9,1,0,0,-3,-2,"[57,143,31,80,147,25,79,3,86,139]",1,-9,1,0,0,1,14,95,1,1,Red,Red.jpg,Yellow,Yellow.jpg,,
,,,,,,,,,,,,,,,,,,-3,,,,,,,,,,,,,,,,,,,,,,,,,,,615e262996a338cda227b1eb,001,2021-12-17_09h05.59.929,jm_natural_scene_simialrity_2-12-2021_version2,2021.2.3,Win32,60.08893162,615e262996a338cda227b1eb,61bbc5c79a1c66460f44041e,61bbc6346452c682923ba30f,,,,,,-65,28,1,0,0,response7disk,1.2178,7,-5,1,0,0,rectangle,7,-5,1,0,0,-3,-2,"[57,143,31,80,147,25,79,3,86,139]",7,-5,1,0,0,1,15,96,41,1,DarkBlue,DarkBlue.jpg,Purple,Purple.jpg,,
,,,,,,,,,,,,,,,,,,4,,,,,,,,,,,,,,,,,,,,,,,,,,,615e262996a338cda227b1eb,001,2021-12-17_09h05.59.929,jm_natural_scene_simialrity_2-12-2021_version2,2021.2.3,Win32,60.08893162,615e262996a338cda227b1eb,61bbc5c79a1c66460f44041e,61bbc6346452c682923ba30f,,,,,,32,52,1,0,0,response1disk,1.0345,2,3,1,0,0,rectangle,2,3,1,0,0,-3,2,"[57,143,31,80,147,25,79,3,86,139]",2,3,1,0,0,1,16,97,39,1,DarkBlue,DarkBlue.jpg,DarkBlue,DarkBlue.jpg,,
,,,,,,,,,,,,,,,,,,-4,,,,,,,,,,,,,,,,,,,,,,,,,,,615e262996a338cda227b1eb,001,2021-12-17_09h05.59.929,jm_natural_scene_simialrity_2-12-2021_version2,2021.2.3,Win32,60.08893162,615e262996a338cda227b1eb,61bbc5c79a1c66460f44041e,61bbc6346452c682923ba30f,,,,,,-43,97,1,0,0,response7disk,2.5191,4,5,1,0,0,rectangle,4,5,1,0,0,-3,-1,"[57,143,31,80,147,25,79,3,86,139]",4,5,1,0,0,1,17,98,53,1,LightGreen,LightGreen.jpg,Yellow,Yellow.jpg,,
,,,,,,,,,,,,,,,,,,1,,,,,,,,,,,,,,,,,,,,,,,,,,,615e262996a338cda227b1eb,001,2021-12-17_09h05.59.929,jm_natural_scene_simialrity_2-12-2021_version2,2021.2.3,Win32,60.08893162,615e262996a338cda227b1eb,61bbc5c79a1c66460f44041e,61bbc6346452c682923ba30f,,,,,,45,-84,1,0,0,response3disk,2.3521,1,-1,1,0,0,rectangle,1,-1,1,0,0,-3,-4,"[57,143,31,80,147,25,79,3,86,139]",1,-1,1,0,0,1,18,99,74,1,Purple,Purple.jpg,Turquiose,Turquiose.jpg,,
,,,,,,,,,,,,,,,,,,-3,,,,,,,,,,,,,,,,,,,,,,,,,,,615e262996a338cda227b1eb,001,2021-12-17_09h05.59.929,jm_natural_scene_simialrity_2-12-2021_version2,2021.2.3,Win32,60.08893162,615e262996a338cda227b1eb,61bbc5c79a1c66460f44041e,61bbc6346452c682923ba30f,,,,,,-138,55,1,0,0,response7disk,1.1344,7,-15,1,0,0,rectangle,7,-15,1,0,0,-3,-4,"[57,143,31,80,147,25,79,3,86,139]",7,-15,1,0,0,1,19,100,49,1,LightBlue,LightBlue.jpg,Red,Red.jpg,,
,,,,,,,,,,,,,,,,,,2,,,,,,,,,,,,,,,,,,,,,,,,,,,615e262996a338cda227b1eb,001,2021-12-17_09h05.59.929,jm_natural_scene_simialrity_2-12-2021_version2,2021.2.3,Win32,60.08893162,615e262996a338cda227b1eb,61bbc5c79a1c66460f44041e,61bbc6346452c682923ba30f,,,,,,86,-38,1,0,0,response3disk,2.4356,3,-4,1,0,0,rectangle,3,-4,1,0,0,-3,1,"[57,143,31,80,147,25,79,3,86,139]",3,-4,1,0,0,1,20,101,45,1,Yellow,Yellow.jpg,Red,Red.jpg,,
,,,,,,,,,,,,,,,,,,-4,,,,,,,,,,,,,,,,,,,,,,,,,,,615e262996a338cda227b1eb,001,2021-12-17_09h05.59.929,jm_natural_scene_simialrity_2-12-2021_version2,2021.2.3,Win32,60.08893162,615e262996a338cda227b1eb,61bbc5c79a1c66460f44041e,61bbc6346452c682923ba30f,,,,,,-42,72,1,0,0,response7disk,0.8342,-2,2,1,0,0,rectangle,-2,2,1,0,0,-3,2,"[57,143,31,80,147,25,79,3,86,139]",-2,2,1,0,0,1,21,102,56,1,LightBlue,LightBlue.jpg,Yellow,Yellow.jpg,,
,,,,,,,,,,,,,,,,,,4,,,,,,,,,,,,,,,,,,,,,,,,,,,615e262996a338cda227b1eb,001,2021-12-17_09h05.59.929,jm_natural_scene_simialrity_2-12-2021_version2,2021.2.3,Win32,60.08893162,615e262996a338cda227b1eb,61bbc5c79a1c66460f44041e,61bbc6346452c682923ba30f,,,,,,32,67,1,0,0,response1disk,0.6558,-5,2,1,0,0,rectangle,-5,2,1,0,0,-3,1,"[57,143,31,80,147,25,79,3,86,139]",-5,2,1,0,0,1,22,103,42,1,Pink,Pink.jpg,Pink,Pink.jpg,,
,,,,,,,,,,,,,,,,,,-4,,,,,,,,,,,,,,,,,,,,,,,,,,,615e262996a338cda227b1eb,001,2021-12-17_09h05.59.929,jm_natural_scene_simialrity_2-12-2021_version2,2021.2.3,Win32,60.08893162,615e262996a338cda227b1eb,61bbc5c79a1c66460f44041e,61bbc6346452c682923ba30f,,,,,,-38,84,1,0,0,response7disk,0.922,6,-2,1,0,0,rectangle,6,-2,1,0,0,-3,-4,"[57,143,31,80,147,25,79,3,86,139]",6,-2,1,0,0,1,23,104,13,1,Yellow,Yellow.jpg,LightBlue,LightBlue.jpg,,
,,,,,,,,,,,,,,,,,,4,,,,,,,,,,,,,,,,,,,,,,,,,,,615e262996a338cda227b1eb,001,2021-12-17_09h05.59.929,jm_natural_scene_simialrity_2-12-2021_version2,2021.2.3,Win32,60.08893162,615e262996a338cda227b1eb,61bbc5c79a1c66460f44041e,61bbc6346452c682923ba30f,,,,,,39,71,1,0,0,response1disk,0.6674,6,-6,1,0,0,rectangle,6,-6,1,0,0,-3,2,"[57,143,31,80,147,25,79,3,86,139]",6,-6,1,0,0,1,24,105,35,1,LightBlue,LightBlue.jpg,LightBlue,LightBlue.jpg,,
,,,,,,,,,,,,,,,,,,2,,,,,,,,,,,,,,,,,,,,,,,,,,,615e262996a338cda227b1eb,001,2021-12-17_09h05.59.929,jm_natural_scene_simialrity_2-12-2021_version2,2021.2.3,Win32,60.08893162,615e262996a338cda227b1eb,61bbc5c79a1c66460f44041e,61bbc6346452c682923ba30f,,,,,,92,-39,1,0,0,response3disk,2.3857,0,4,1,0,0,rectangle,0,4,1,0,0,-3,3,"[57,143,31,80,147,25,79,3,86,139]",0,4,1,0,0,1,25,106,18,1,LightGreen,LightGreen.jpg,DarkGreen,DarkGreen.jpg,,
,,,,,,,,,,,,,,,,,,2,,,,,,,,,,,,,,,,,,,,,,,,,,,615e262996a338cda227b1eb,001,2021-12-17_09h05.59.929,jm_natural_scene_simialrity_2-12-2021_version2,2021.2.3,Win32,60.08893162,615e262996a338cda227b1eb,61bbc5c79a1c66460f44041e,61bbc6346452c682923ba30f,,,,,,86,-56,1,0,0,response3disk,2.1021,16,-3,1,0,0,rectangle,16,-3,1,0,0,-3,1,"[57,143,31,80,147,25,79,3,86,139]",16,-3,1,0,0,1,26,107,27,1,DarkGreen,DarkGreen.jpg,DarkBlue,DarkBlue.jpg,,
,,,,,,,,,,,,,,,,,,-4,,,,,,,,,,,,,,,,,,,,,,,,,,,615e262996a338cda227b1eb,001,2021-12-17_09h05.59.929,jm_natural_scene_simialrity_2-12-2021_version2,2021.2.3,Win32,60.08893162,615e262996a338cda227b1eb,61bbc5c79a1c66460f44041e,61bbc6346452c682923ba30f,,,,,,-37,99,1,0,0,response7disk,1.6517,4,-7,1,0,0,rectangle,4,-7,1,0,0,-3,-4,"[57,143,31,80,147,25,79,3,86,139]",4,-7,1,0,0,1,27,108,57,1,DarkBlue,DarkBlue.jpg,Yellow,Yellow.jpg,,
,,,,,,,,,,,,,,,,,,-4,,,,,,,,,,,,,,,,,,,,,,,,,,,615e262996a338cda227b1eb,001,2021-12-17_09h05.59.929,jm_natural_scene_simialrity_2-12-2021_version2,2021.2.3,Win32,60.08893162,615e262996a338cda227b1eb,61bbc5c79a1c66460f44041e,61bbc6346452c682923ba30f,,,,,,-37,67,1,0,0,response7disk,0.8509,-5,-7,1,0,0,rectangle,-5,-7,1,0,0,-3,3,"[57,143,31,80,147,25,79,3,86,139]",-5,-7,1,0,0,1,28,109,28,1,DarkGreen,DarkGreen.jpg,Pink,Pink.jpg,,
,,,,,,,,,,,,,,,,,,3,,,,,,,,,,,,,,,,,,,,,,,,,,,615e262996a338cda227b1eb,001,2021-12-17_09h05.59.929,jm_natural_scene_simialrity_2-12-2021_version2,2021.2.3,Win32,60.08893162,615e262996a338cda227b1eb,61bbc5c79a1c66460f44041e,61bbc6346452c682923ba30f,,,,,,94,41,1,0,0,response1disk,1.3803,-7,-1,1,0,0,rectangle,-7,-1,1,0,0,-3,-4,"[57,143,31,80,147,25,79,3,86,139]",-7,-1,1,0,0,1,29,110,51,1,Pink,Pink.jpg,Red,Red.jpg,,
,,,,,,,,,,,,,,,,,,2,,,,,,,,,,,,,,,,,,,,,,,,,,,615e262996a338cda227b1eb,001,2021-12-17_09h05.59.929,jm_natural_scene_simialrity_2-12-2021_version2,2021.2.3,Win32,60.08893162,615e262996a338cda227b1eb,61bbc5c79a1c66460f44041e,61bbc6346452c682923ba30f,,,,,,104,-43,1,0,0,response3disk,1.9881,-3,10,1,0,0,rectangle,-3,10,1,0,0,-3,-2,"[57,143,31,80,147,25,79,3,86,139]",-3,10,1,0,0,1,30,111,80,1,Purple,Purple.jpg,Pink,Pink.jpg,,
,,,,,,,,,,,,,,,,,,2,,,,,,,,,,,,,,,,,,,,,,,,,,,615e262996a338cda227b1eb,001,2021-12-17_09h05.59.929,jm_natural_scene_simialrity_2-12-2021_version2,2021.2.3,Win32,60.08893162,615e262996a338cda227b1eb,61bbc5c79a1c66460f44041e,61bbc6346452c682923ba30f,,,,,,71,-34,1,0,0,response3disk,2.0021,-5,1,1,0,0,rectangle,-5,1,1,0,0,-3,-1,"[57,143,31,80,147,25,79,3,86,139]",-5,1,1,0,0,1,31,112,34,1,Turquiose,Turquiose.jpg,Purple,Purple.jpg,,
,,,,,,,,,,,,,,,,,,-3,,,,,,,,,,,,,,,,,,,,,,,,,,,615e262996a338cda227b1eb,001,2021-12-17_09h05.59.929,jm_natural_scene_simialrity_2-12-2021_version2,2021.2.3,Win32,60.08893162,615e262996a338cda227b1eb,61bbc5c79a1c66460f44041e,61bbc6346452c682923ba30f,,,,,,-65,31,1,0,0,response7disk,3.6037,-2,3,1,0,0,rectangle,-2,3,1,0,0,-3,-3,"[57,143,31,80,147,25,79,3,86,139]",-2,3,1,0,0,1,32,113,36,1,LightBlue,LightBlue.jpg,DarkBlue,DarkBlue.jpg,,
,,,,,,,,,,,,,,,,,,1,,,,,,,,,,,,,,,,,,,,,,,,,,,615e262996a338cda227b1eb,001,2021-12-17_09h05.59.929,jm_natural_scene_simialrity_2-12-2021_version2,2021.2.3,Win32,60.08893162,615e262996a338cda227b1eb,61bbc5c79a1c66460f44041e,61bbc6346452c682923ba30f,,,,,,36,-76,1,0,0,response3disk,1.6352,3,-4,1,0,0,rectangle,3,-4,1,0,0,-3,3,"[57,143,31,80,147,25,79,3,86,139]",3,-4,1,0,0,1,33,114,32,1,Turquiose,Turquiose.jpg,DarkBlue,DarkBlue.jpg,,
,,,,,,,,,,,,,,,,,,4,,,,,,,,,,,,,,,,,,,,,,,,,,,615e262996a338cda227b1eb,001,2021-12-17_09h05.59.929,jm_natural_scene_simialrity_2-12-2021_version2,2021.2.3,Win32,60.08893162,615e262996a338cda227b1eb,61bbc5c79a1c66460f44041e,61bbc6346452c682923ba30f,,,,,,24,95,1,0,0,response1disk,0.8511,7,-9,1,0,0,rectangle,7,-9,1,0,0,-3,-2,"[57,143,31,80,147,25,79,3,86,139]",7,-9,1,0,0,1,34,115,9,1,Yellow,Yellow.jpg,Yellow,Yellow.jpg,,
,,,,,,,,,,,,,,,,,,-3,,,,,,,,,,,,,,,,,,,,,,,,,,,615e262996a338cda227b1eb,001,2021-12-17_09h05.59.929,jm_natural_scene_simialrity_2-12-2021_version2,2021.2.3,Win32,60.08893162,615e262996a338cda227b1eb,61bbc5c79a1c66460f44041e,61bbc6346452c682923ba30f,,,,,,-70,49,1,0,0,response7disk,1.7518,0,7,1,0,0,rectangle,0,7,1,0,0,-3,-2,"[57,143,31,80,147,25,79,3,86,139]",0,7,1,0,0,1,35,116,2,1,Red,Red.jpg,LightGreen,LightGreen.jpg,,
,,,,,,,,,,,,,,,,,,-4,,,,,,,,,,,,,,,,,,,,,,,,,,,615e262996a338cda227b1eb,001,2021-12-17_09h05.59.929,jm_natural_scene_simialrity_2-12-2021_version2,2021.2.3,Win32,60.08893162,615e262996a338cda227b1eb,61bbc5c79a1c66460f44041e,61bbc6346452c682923ba30f,,,,,,-29,87,1,0,0,response7disk,1.0011,-7,5,1,0,0,rectangle,-7,5,1,0,0,-3,3,"[57,143,31,80,147,25,79,3,86,139]",-7,5,1,0,0,1,36,117,14,1,Yellow,Yellow.jpg,DarkBlue,DarkBlue.jpg,,
,,,,,,,,,,,,,,,,,,-4,,,,,,,,,,,,,,,,,,,,,,,,,,,615e262996a338cda227b1eb,001,2021-12-17_09h05.59.929,jm_natural_scene_simialrity_2-12-2021_version2,2021.2.3,Win32,60.08893162,615e262996a338cda227b1eb,61bbc5c79a1c66460f44041e,61bbc6346452c682923ba30f,,,,,,-41,81,1,0,0,response7disk,1.0846,-6,0,1,0,0,rectangle,-6,0,1,0,0,-3,-2,"[57,143,31,80,147,25,79,3,86,139]",-6,0,1,0,0,1,37,118,78,1,Pink,Pink.jpg,DarkBlue,DarkBlue.jpg,,
,,,,,,,,,,,,,,,,,,1,,,,,,,,,,,,,,,,,,,,,,,,,,,615e262996a338cda227b1eb,001,2021-12-17_09h05.59.929,jm_natural_scene_simialrity_2-12-2021_version2,2021.2.3,Win32,60.08893162,615e262996a338cda227b1eb,61bbc5c79a1c66460f44041e,61bbc6346452c682923ba30f,,,,,,61,-94,1,0,0,response3disk,4.2711,-2,7,1,0,0,rectangle,-2,7,1,0,0,-3,-4,"[57,143,31,80,147,25,79,3,86,139]",-2,7,1,0,0,1,38,119,68,1,DarkBlue,DarkBlue.jpg,DarkGreen,DarkGreen.jpg,,
,,,,,,,,,,,,,,,,,,-4,,,,,,,,,,,,,,,,,,,,,,,,,,,615e262996a338cda227b1eb,001,2021-12-17_09h05.59.929,jm_natural_scene_simialrity_2-12-2021_version2,2021.2.3,Win32,60.08893162,615e262996a338cda227b1eb,61bbc5c79a1c66460f44041e,61bbc6346452c682923ba30f,,,,,,-45,99,1,0,0,response7disk,0.7341,-4,1,1,0,0,rectangle,-4,1,1,0,0,-3,-1,"[57,143,31,80,147,25,79,3,86,139]",-4,1,1,0,0,1,39,120,22,1,LightGreen,LightGreen.jpg,Pink,Pink.jpg,,
,,,,,,,,,,,,,,,,,,-4,,,,,,,,,,,,,,,,,,,,,,,,,,,615e262996a338cda227b1eb,001,2021-12-17_09h05.59.929,jm_natural_scene_simialrity_2-12-2021_version2,2021.2.3,Win32,60.08893162,615e262996a338cda227b1eb,61bbc5c79a1c66460f44041e,61bbc6346452c682923ba30f,,,,,,-53,95,1,0,0,response7disk,2.1875,-8,8,1,0,0,rectangle,-8,8,1,0,0,-3,1,"[57,143,31,80,147,25,79,3,86,139]",-8,8,1,0,0,1,40,121,58,1,Pink,Pink.jpg,Yellow,Yellow.jpg,,
,,,,,,,,,,,,,,,,,,-4,,,,,,,,,,,,,,,,,,,,,,,,,,,615e262996a338cda227b1eb,001,2021-12-17_09h05.59.929,jm_natural_scene_simialrity_2-12-2021_version2,2021.2.3,Win32,60.08893162,615e262996a338cda227b1eb,61bbc5c79a1c66460f44041e,61bbc6346452c682923ba30f,,,,,,-34,65,1,0,0,response7disk,0.7342,0,-15,1,0,0,rectangle,0,-15,1,0,0,-3,-4,"[57,143,31,80,147,25,79,3,86,139]",0,-15,1,0,0,1,41,122,10,1,Yellow,Yellow.jpg,LightGreen,LightGreen.jpg,,
,,,,,,,,,,,,,,,,,,-4,,,,,,,,,,,,,,,,,,,,,,,,,,,615e262996a338cda227b1eb,001,2021-12-17_09h05.59.929,jm_natural_scene_simialrity_2-12-2021_version2,2021.2.3,Win32,60.08893162,615e262996a338cda227b1eb,61bbc5c79a1c66460f44041e,61bbc6346452c682923ba30f,,,,,,-43,80,1,0,0,response7disk,2.0855,-8,-8,1,0,0,rectangle,-8,-8,1,0,0,-3,-3,"[57,143,31,80,147,25,79,3,86,139]",-8,-8,1,0,0,1,42,123,67,1,LightBlue,LightBlue.jpg,DarkGreen,DarkGreen.jpg,,
,,,,,,,,,,,,,,,,,,1,,,,,,,,,,,,,,,,,,,,,,,,,,,615e262996a338cda227b1eb,001,2021-12-17_09h05.59.929,jm_natural_scene_simialrity_2-12-2021_version2,2021.2.3,Win32,60.08893162,615e262996a338cda227b1eb,61bbc5c79a1c66460f44041e,61bbc6346452c682923ba30f,,,,,,17,-67,1,0,0,response3disk,1.8474,-6,2,1,0,0,rectangle,-6,2,1,0,0,-3,1,"[57,143,31,80,147,25,79,3,86,139]",-6,2,1,0,0,1,43,124,15,1,Yellow,Yellow.jpg,Pink,Pink.jpg,,
,,,,,,,,,,,,,,,,,,2,,,,,,,,,,,,,,,,,,,,,,,,,,,615e262996a338cda227b1eb,001,2021-12-17_09h05.59.929,jm_natural_scene_simialrity_2-12-2021_version2,2021.2.3,Win32,60.08893162,615e262996a338cda227b1eb,61bbc5c79a1c66460f44041e,61bbc6346452c682923ba30f,,,,,,92,-64,1,0,0,response3disk,3.003,-4,7,1,0,0,rectangle,-4,7,1,0,0,-3,3,"[57,143,31,80,147,25,79,3,86,139]",-4,7,1,0,0,1,44,125,25,1,DarkGreen,DarkGreen.jpg,Turquiose,Turquiose.jpg,,
,,,,,,,,,,,,,,,,,,2,,,,,,,,,,,,,,,,,,,,,,,,,,,615e262996a338cda227b1eb,001,2021-12-17_09h05.59.929,jm_natural_scene_simialrity_2-12-2021_version2,2021.2.3,Win32,60.08893162,615e262996a338cda227b1eb,61bbc5c79a1c66460f44041e,61bbc6346452c682923ba30f,,,,,,73,-49,1,0,0,response3disk,1.0893,-1,-11,1,0,0,rectangle,-1,-11,1,0,0,-3,-3,"[57,143,31,80,147,25,79,3,86,139]",-1,-11,1,0,0,1,45,126,66,1,Turquiose,Turquiose.jpg,DarkGreen,DarkGreen.jpg,,
,,,,,,,,,,,,,,,,,,1,,,,,,,,,,,,,,,,,,,,,,,,,,,615e262996a338cda227b1eb,001,2021-12-17_09h05.59.929,jm_natural_scene_simialrity_2-12-2021_version2,2021.2.3,Win32,60.08893162,615e262996a338cda227b1eb,61bbc5c79a1c66460f44041e,61bbc6346452c682923ba30f,,,,,,34,-96,1,0,0,response3disk,2.1686,-4,-4,1,0,0,rectangle,-4,-4,1,0,0,-3,-1,"[57,143,31,80,147,25,79,3,86,139]",-4,-4,1,0,0,1,46,127,31,1,Turquiose,Turquiose.jpg,LightBlue,LightBlue.jpg,,
,,,,,,,,,,,,,,,,,,-3,,,,,,,,,,,,,,,,,,,,,,,,,,,615e262996a338cda227b1eb,001,2021-12-17_09h05.59.929,jm_natural_scene_simialrity_2-12-2021_version2,2021.2.3,Win32,60.08893162,615e262996a338cda227b1eb,61bbc5c79a1c66460f44041e,61bbc6346452c682923ba30f,,,,,,-65,47,1,0,0,response7disk,1.3135,-3,-6,1,0,0,rectangle,-3,-6,1,0,0,-3,1,"[57,143,31,80,147,25,79,3,86,139]",-3,-6,1,0,0,1,47,128,37,1,LightBlue,LightBlue.jpg,Pink,Pink.jpg,,
,,,,,,,,,,,,,,,,,,-4,,,,,,,,,,,,,,,,,,,,,,,,,,,615e262996a338cda227b1eb,001,2021-12-17_09h05.59.929,jm_natural_scene_simialrity_2-12-2021_version2,2021.2.3,Win32,60.08893162,615e262996a338cda227b1eb,61bbc5c79a1c66460f44041e,61bbc6346452c682923ba30f,,,,,,-31,79,1,0,0,response7disk,0.7008,-1,-9,1,0,0,rectangle,-1,-9,1,0,0,-3,-1,"[57,143,31,80,147,25,79,3,86,139]",-1,-9,1,0,0,1,48,129,64,1,Pink,Pink.jpg,LightGreen,LightGreen.jpg,,
,,,,,,,,,,,,,,,,,,-3,,,,,,,,,,,,,,,,,,,,,,,,,,,615e262996a338cda227b1eb,001,2021-12-17_09h05.59.929,jm_natural_scene_simialrity_2-12-2021_version2,2021.2.3,Win32,60.08893162,615e262996a338cda227b1eb,61bbc5c79a1c66460f44041e,61bbc6346452c682923ba30f,,,,,,-93,45,1,0,0,response7disk,2.3195,-8,5,1,0,0,rectangle,-8,5,1,0,0,-3,-4,"[57,143,31,80,147,25,79,3,86,139]",-8,5,1,0,0,1,49,130,46,1,LightGreen,LightGreen.jpg,Red,Red.jpg,,
,,,,,,,,,,,,,,,,,,4,,,,,,,,,,,,,,,,,,,,,,,,,,,615e262996a338cda227b1eb,001,2021-12-17_09h05.59.929,jm_natural_scene_simialrity_2-12-2021_version2,2021.2.3,Win32,60.08893162,615e262996a338cda227b1eb,61bbc5c79a1c66460f44041e,61bbc6346452c682923ba30f,,,,,,33,76,1,0,0,response1disk,0.684,1,-16,1,0,0,rectangle,1,-16,1,0,0,-3,3,"[57,143,31,80,147,25,79,3,86,139]",1,-16,1,0,0,1,50,131,30,1,Turquiose,Turquiose.jpg,Turquiose,Turquiose.jpg,,
,,,,,,,,,,,,,,,,,,4,,,,,,,,,,,,,,,,,,,,,,,,,,,615e262996a338cda227b1eb,001,2021-12-17_09h05.59.929,jm_natural_scene_simialrity_2-12-2021_version2,2021.2.3,Win32,60.08893162,615e262996a338cda227b1eb,61bbc5c79a1c66460f44041e,61bbc6346452c682923ba30f,,,,,,22,41,1,0,0,response1disk,0.689,-8,-18,1,0,0,rectangle,-8,-18,1,0,0,-3,-4,"[57,143,31,80,147,25,79,3,86,139]",-8,-18,1,0,0,1,51,132,24,1,DarkGreen,DarkGreen.jpg,DarkGreen,DarkGreen.jpg,,
,,,,,,,,,,,,,,,,,,-4,,,,,,,,,,,,,,,,,,,,,,,,,,,615e262996a338cda227b1eb,001,2021-12-17_09h05.59.929,jm_natural_scene_simialrity_2-12-2021_version2,2021.2.3,Win32,60.08893162,615e262996a338cda227b1eb,61bbc5c79a1c66460f44041e,61bbc6346452c682923ba30f,,,,,,-42,58,1,0,0,response7disk,1.3677,4,4,1,0,0,rectangle,4,4,1,0,0,-3,3,"[57,143,31,80,147,25,79,3,86,139]",4,4,1,0,0,1,52,133,79,1,Purple,Purple.jpg,DarkBlue,DarkBlue.jpg,,
,,,,,,,,,,,,,,,,,,-4,,,,,,,,,,,,,,,,,,,,,,,,,,,615e262996a338cda227b1eb,001,2021-12-17_09h05.59.929,jm_natural_scene_simialrity_2-12-2021_version2,2021.2.3,Win32,60.08893162,615e262996a338cda227b1eb,61bbc5c79a1c66460f44041e,61bbc6346452c682923ba30f,,,,,,-30,73,1,0,0,response7disk,0.7642,-11,8,1,0,0,rectangle,-11,8,1,0,0,-3,3,"[57,143,31,80,147,25,79,3,86,139]",-11,8,1,0,0,1,53,134,54,1,DarkGreen,DarkGreen.jpg,Yellow,Yellow.jpg,,
,,,,,,,,,,,,,,,,,,-3,,,,,,,,,,,,,,,,,,,,,,,,,,,615e262996a338cda227b1eb,001,2021-12-17_09h05.59.929,jm_natural_scene_simialrity_2-12-2021_version2,2021.2.3,Win32,60.08893162,615e262996a338cda227b1eb,61bbc5c79a1c66460f44041e,61bbc6346452c682923ba30f,,,,,,-77,48,1,0,0,response7disk,1.5016,-1,-3,1,0,0,rectangle,-1,-3,1,0,0,-3,-2,"[57,143,31,80,147,25,79,3,86,139]",-1,-3,1,0,0,1,54,135,3,1,Red,Red.jpg,DarkGreen,DarkGreen.jpg,,
,,,,,,,,,,,,,,,,,,-4,,,,,,,,,,,,,,,,,,,,,,,,,,,615e262996a338cda227b1eb,001,2021-12-17_09h05.59.929,jm_natural_scene_simialrity_2-12-2021_version2,2021.2.3,Win32,60.08893162,615e262996a338cda227b1eb,61bbc5c79a1c66460f44041e,61bbc6346452c682923ba30f,,,,,,-42,63,1,0,0,response7disk,0.7392,-4,-8,1,0,0,rectangle,-4,-8,1,0,0,-3,-3,"[57,143,31,80,147,25,79,3,86,139]",-4,-8,1,0,0,1,55,136,73,1,Pink,Pink.jpg,Turquiose,Turquiose.jpg,,
,,,,,,,,,,,,,,,,,,-2,,,,,,,,,,,,,,,,,,,,,,,,,,,615e262996a338cda227b1eb,001,2021-12-17_09h05.59.929,jm_natural_scene_simialrity_2-12-2021_version2,2021.2.3,Win32,60.08893162,615e262996a338cda227b1eb,61bbc5c79a1c66460f44041e,61bbc6346452c682923ba30f,,,,,,-88,-35,1,0,0,response5disk,8.3083,-2,-8,1,0,0,rectangle,-2,-8,1,0,0,-3,3,"[57,143,31,80,147,25,79,3,86,139]",-2,-8,1,0,0,1,56,137,29,1,DarkGreen,DarkGreen.jpg,Purple,Purple.jpg,,
,,,,,,,,,,,,,,,,,,-4,,,,,,,,,,,,,,,,,,,,,,,,,,,615e262996a338cda227b1eb,001,2021-12-17_09h05.59.929,jm_natural_scene_simialrity_2-12-2021_version2,2021.2.3,Win32,60.08893162,615e262996a338cda227b1eb,61bbc5c79a1c66460f44041e,61bbc6346452c682923ba30f,,,,,,-31,72,1,0,0,response7disk,0.6874,0,-3,1,0,0,rectangle,-79,-24,1,0,0,-3,-2,"[57,143,31,80,147,25,79,3,86,139]",-11,2,1,0,0,1,57,138,69,1,Pink,Pink.jpg,DarkGreen,DarkGreen.jpg,response5disk_3,rectangle
,,,,,,,,,,,,,,,,,,4,,,,,,,,,,,,,,,,,,,,,,,,,,,615e262996a338cda227b1eb,001,2021-12-17_09h05.59.929,jm_natural_scene_simialrity_2-12-2021_version2,2021.2.3,Win32,60.08893162,615e262996a338cda227b1eb,61bbc5c79a1c66460f44041e,61bbc6346452c682923ba30f,,,,,,45,98,1,0,0,response1disk,0.7644,-2,6,1,0,0,rectangle,-2,6,1,0,0,-3,-3,"[57,143,31,80,147,25,79,3,86,139]",-2,6,1,0,0,1,58,139,17,1,LightGreen,LightGreen.jpg,LightGreen,LightGreen.jpg,,
,,,,,,,,,,,,,,,,,,-2,,,,,,,,,,,,,,,,,,,,,,,,,,,615e262996a338cda227b1eb,001,2021-12-17_09h05.59.929,jm_natural_scene_simialrity_2-12-2021_version2,2021.2.3,Win32,60.08893162,615e262996a338cda227b1eb,61bbc5c79a1c66460f44041e,61bbc6346452c682923ba30f,,,,,,-52,-29,1,0,0,response5disk,6.1947,-1,8,1,0,0,rectangle,-1,8,1,0,0,-3,-2,"[57,143,31,80,147,25,79,3,86,139]",-1,8,1,0,0,1,59,140,59,1,Purple,Purple.jpg,Yellow,Yellow.jpg,,
,,,,,,,,,,,,,,,,,,-3,,,,,,,,,,,,,,,,,,,,,,,,,,,615e262996a338cda227b1eb,001,2021-12-17_09h05.59.929,jm_natural_scene_simialrity_2-12-2021_version2,2021.2.3,Win32,60.08893162,615e262996a338cda227b1eb,61bbc5c79a1c66460f44041e,61bbc6346452c682923ba30f,,,,,,-79,31,1,0,0,response7disk,3.3869,0,0,1,0,0,rectangle,0,0,1,0,0,-3,-2,"[57,143,31,80,147,25,79,3,86,139]",0,0,1,0,0,1,60,141,65,1,Purple,Purple.jpg,LightGreen,LightGreen.jpg,,
,,,,,,,,,,,,,,,,,,-4,,,,,,,,,,,,,,,,,,,,,,,,,,,615e262996a338cda227b1eb,001,2021-12-17_09h05.59.929,jm_natural_scene_simialrity_2-12-2021_version2,2021.2.3,Win32,60.08893162,615e262996a338cda227b1eb,61bbc5c79a1c66460f44041e,61bbc6346452c682923ba30f,,,,,,-40,66,1,0,0,response7disk,0.968,-5,0,1,0,0,rectangle,-25,85,1,0,0,-4,-4,"[57,143,31,80,147,25,79,3,86,139]",-10,-1,1,0,0,1,61,142,48,1,Turquiose,Turquiose.jpg,Red,Red.jpg,response7disk_3,rectangle
,,,,,,,,,,,,,,,,,,-3,,,,,,,,,,,,,,,,,,,,,,,,,,,615e262996a338cda227b1eb,001,2021-12-17_09h05.59.929,jm_natural_scene_simialrity_2-12-2021_version2,2021.2.3,Win32,60.08893162,615e262996a338cda227b1eb,61bbc5c79a1c66460f44041e,61bbc6346452c682923ba30f,,,,,,-61,32,1,0,0,response7disk,2.0356,-10,-8,1,0,0,rectangle,-10,-8,1,0,0,-4,-4,"[57,143,31,80,147,25,79,3,86,139]",-10,-8,1,0,0,1,62,143,71,1,LightBlue,LightBlue.jpg,Turquiose,Turquiose.jpg,,
,,,,,,,,,,,,,,,,,,2,,,,,,,,,,,,,,,,,,,,,,,,,,,615e262996a338cda227b1eb,001,2021-12-17_09h05.59.929,jm_natural_scene_simialrity_2-12-2021_version2,2021.2.3,Win32,60.08893162,615e262996a338cda227b1eb,61bbc5c79a1c66460f44041e,61bbc6346452c682923ba30f,,,,,,77,-29,1,0,0,response3disk,2.2478,-5,9,1,0,0,rectangle,-5,9,1,0,0,-4,2,"[57,143,31,80,147,25,79,3,86,139]",-5,9,1,0,0,1,63,144,72,1,DarkBlue,DarkBlue.jpg,Turquiose,Turquiose.jpg,,
,,,,,,,,,,,,,,,,,,-4,,,,,,,,,,,,,,,,,,,,,,,,,,,615e262996a338cda227b1eb,001,2021-12-17_09h05.59.929,jm_natural_scene_simialrity_2-12-2021_version2,2021.2.3,Win32,60.08893162,615e262996a338cda227b1eb,61bbc5c79a1c66460f44041e,61bbc6346452c682923ba30f,,,,,,-39,86,1,0,0,response7disk,0.6174,-1,2,1,0,0,rectangle,-1,2,1,0,0,-4,-2,"[57,143,31,80,147,25,79,3,86,139]",-1,2,1,0,0,1,64,145,11,1,Yellow,Yellow.jpg,DarkGreen,DarkGreen.jpg,,
,,,,,,,,,,,,,,,,,,-4,,,,,,,,,,,,,,,,,,,,,,,,,,,615e262996a338cda227b1eb,001,2021-12-17_09h05.59.929,jm_natural_scene_simialrity_2-12-2021_version2,2021.2.3,Win32,60.08893162,615e262996a338cda227b1eb,61bbc5c79a1c66460f44041e,61bbc6346452c682923ba30f,,,,,,-24,67,1,0,0,response7disk,0.901,-5,6,1,0,0,rectangle,-60,91,1,0,0,-4,-4,"[57,143,31,80,147,25,79,3,86,139]",0,2,1,0,0,1,65,146,6,1,Red,Red.jpg,DarkBlue,DarkBlue.jpg,response7disk_3,rectangle
,,,,,,,,,,,,,,,,,,-4,,,,,,,,,,,,,,,,,,,,,,,,,,,615e262996a338cda227b1eb,001,2021-12-17_09h05.59.929,jm_natural_scene_simialrity_2-12-2021_version2,2021.2.3,Win32,60.08893162,615e262996a338cda227b1eb,61bbc5c79a1c66460f44041e,61bbc6346452c682923ba30f,,,,,,-45,80,1,0,0,response7disk,1.4515,-2,1,1,0,0,rectangle,-2,1,1,0,0,-4,-2,"[57,143,31,80,147,25,79,3,86,139]",-2,1,1,0,0,1,66,147,33,1,Turquiose,Turquiose.jpg,Pink,Pink.jpg,,
,,,,,,,,,,,,,,,,,,2,,,,,,,,,,,,,,,,,,,,,,,,,,,615e262996a338cda227b1eb,001,2021-12-17_09h05.59.929,jm_natural_scene_simialrity_2-12-2021_version2,2021.2.3,Win32,60.08893162,615e262996a338cda227b1eb,61bbc5c79a1c66460f44041e,61bbc6346452c682923ba30f,,,,,,83,-40,1,0,0,response3disk,1.7685,14,5,1,0,0,rectangle,14,5,1,0,0,-4,-1,"[57,143,31,80,147,25,79,3,86,139]",14,5,1,0,0,1,67,148,77,1,Purple,Purple.jpg,LightBlue,LightBlue.jpg,,
,,,,,,,,,,,,,,,,,,4,,,,,,,,,,,,,,,,,,,,,,,,,,,615e262996a338cda227b1eb,001,2021-12-17_09h05.59.929,jm_natural_scene_simialrity_2-12-2021_version2,2021.2.3,Win32,60.08893162,615e262996a338cda227b1eb,61bbc5c79a1c66460f44041e,61bbc6346452c682923ba30f,,,,,,33,79,1,0,0,response1disk,0.589,3,1,1,0,0,rectangle,3,1,1,0,0,-4,-2,"[57,143,31,80,147,25,79,3,86,139]",3,1,1,0,0,1,68,149,0,1,Red,Red.jpg,Red,Red.jpg,,
,,,,,,,,,,,,,,,,,,-3,,,,,,,,,,,,,,,,,,,,,,,,,,,615e262996a338cda227b1eb,001,2021-12-17_09h05.59.929,jm_natural_scene_simialrity_2-12-2021_version2,2021.2.3,Win32,60.08893162,615e262996a338cda227b1eb,61bbc5c79a1c66460f44041e,61bbc6346452c682923ba30f,,,,,,-66,38,1,0,0,response7disk,1.3181,-7,2,1,0,0,rectangle,-7,2,1,0,0,-4,-1,"[57,143,31,80,147,25,79,3,86,139]",-7,2,1,0,0,1,69,150,50,1,DarkBlue,DarkBlue.jpg,Red,Red.jpg,,
,,,,,,,,,,,,,,,,,,2,,,,,,,,,,,,,,,,,,,,,,,,,,,615e262996a338cda227b1eb,001,2021-12-17_09h05.59.929,jm_natural_scene_simialrity_2-12-2021_version2,2021.2.3,Win32,60.08893162,615e262996a338cda227b1eb,61bbc5c79a1c66460f44041e,61bbc6346452c682923ba30f,,,,,,90,-42,1,0,0,response3disk,2.1856,5,-5,1,0,0,rectangle,5,-5,1,0,0,-4,3,"[57,143,31,80,147,25,79,3,86,139]",5,-5,1,0,0,1,70,151,52,1,Purple,Purple.jpg,Red,Red.jpg,,
,,,,,,,,,,,,,,,,,,-4,,,,,,,,,,,,,,,,,,,,,,,,,,,615e262996a338cda227b1eb,001,2021-12-17_09h05.59.929,jm_natural_scene_simialrity_2-12-2021_version2,2021.2.3,Win32,60.08893162,615e262996a338cda227b1eb,61bbc5c79a1c66460f44041e,61bbc6346452c682923ba30f,,,,,,-34,59,1,0,0,response7disk,0.7674,-1,-11,1,0,0,rectangle,-1,-11,1,0,0,-4,-3,"[57,143,31,80,147,25,79,3,86,139]",-1,-11,1,0,0,1,71,152,40,1,DarkBlue,DarkBlue.jpg,Pink,Pink.jpg,,
,,,,,,,,,,,,,,,,,,3,,,,,,,,,,,,,,,,,,,,,,,,,,,615e262996a338cda227b1eb,001,2021-12-17_09h05.59.929,jm_natural_scene_simialrity_2-12-2021_version2,2021.2.3,Win32,60.08893162,615e262996a338cda227b1eb,61bbc5c79a1c66460f44041e,61bbc6346452c682923ba30f,,,,,,101,35,1,0,0,response1disk,1.2842,4,2,1,0,0,rectangle,4,2,1,0,0,-4,-4,"[57,143,31,80,147,25,79,3,86,139]",4,2,1,0,0,1,72,153,61,1,Turquiose,Turquiose.jpg,LightGreen,LightGreen.jpg,,
,,,,,,,,,,,,,,,,,,-2,,,,,,,,,,,,,,,,,,,,,,,,,,,615e262996a338cda227b1eb,001,2021-12-17_09h05.59.929,jm_natural_scene_simialrity_2-12-2021_version2,2021.2.3,Win32,60.08893162,615e262996a338cda227b1eb,61bbc5c79a1c66460f44041e,61bbc6346452c682923ba30f,,,,,,-71,-33,1,0,0,response5disk,3.4202,1,1,1,0,0,rectangle,1,1,1,0,0,-4,3,"[57,143,31,80,147,25,79,3,86,139]",1,1,1,0,0,1,73,154,62,1,LightBlue,LightBlue.jpg,LightGreen,LightGreen.jpg,,
,,,,,,,,,,,,,,,,,,2,,,,,,,,,,,,,,,,,,,,,,,,,,,615e262996a338cda227b1eb,001,2021-12-17_09h05.59.929,jm_natural_scene_simialrity_2-12-2021_version2,2021.2.3,Win32,60.08893162,615e262996a338cda227b1eb,61bbc5c79a1c66460f44041e,61bbc6346452c682923ba30f,,,,,,64,-29,1,0,0,response3disk,1.6518,5,-2,1,0,0,rectangle,5,-2,1,0,0,-4,-1,"[57,143,31,80,147,25,79,3,86,139]",5,-2,1,0,0,1,74,155,63,1,DarkBlue,DarkBlue.jpg,LightGreen,LightGreen.jpg,,
,,,,,,,,,,,,,,,,,,-1,,,,,,,,,,,,,,,,,,,,,,,,,,,615e262996a338cda227b1eb,001,2021-12-17_09h05.59.929,jm_natural_scene_simialrity_2-12-2021_version2,2021.2.3,Win32,60.08893162,615e262996a338cda227b1eb,61bbc5c79a1c66460f44041e,61bbc6346452c682923ba30f,,,,,,-50,-100,1,0,0,response5disk,2.0856,-4,-8,1,0,0,rectangle,-4,-8,1,0,0,-4,-1,"[57,143,31,80,147,25,79,3,86,139]",-4,-8,1,0,0,1,75,156,8,1,Red,Red.jpg,Purple,Purple.jpg,,
,,,,,,,,,,,,,,,,,,-3,,,,,,,,,,,,,,,,,,,,,,,,,,,615e262996a338cda227b1eb,001,2021-12-17_09h05.59.929,jm_natural_scene_simialrity_2-12-2021_version2,2021.2.3,Win32,60.08893162,615e262996a338cda227b1eb,61bbc5c79a1c66460f44041e,61bbc6346452c682923ba30f,,,,,,-95,68,1,0,0,response7disk,2.0854,-17,-10,1,0,0,rectangle,-17,-10,1,0,0,-4,-3,"[57,143,31,80,147,25,79,3,86,139]",-17,-10,1,0,0,1,76,157,23,1,LightGreen,LightGreen.jpg,Purple,Purple.jpg,,
,,,,,,,,,,,,,,,,,,-2,,,,,,,,,,,,,,,,,,,,,,,,,,,615e262996a338cda227b1eb,001,2021-12-17_09h05.59.929,jm_natural_scene_simialrity_2-12-2021_version2,2021.2.3,Win32,60.08893162,615e262996a338cda227b1eb,61bbc5c79a1c66460f44041e,61bbc6346452c682923ba30f,,,,,,-74,-33,1,0,0,response5disk,1.7849,-2,4,1,0,0,rectangle,-2,4,1,0,0,-4,3,"[57,143,31,80,147,25,79,3,86,139]",-2,4,1,0,0,1,77,158,75,1,DarkBlue,DarkBlue.jpg,LightBlue,LightBlue.jpg,,
,,,,,,,,,,,,,,,,,,3,,,,,,,,,,,,,,,,,,,,,,,,,,,615e262996a338cda227b1eb,001,2021-12-17_09h05.59.929,jm_natural_scene_simialrity_2-12-2021_version2,2021.2.3,Win32,60.08893162,615e262996a338cda227b1eb,61bbc5c79a1c66460f44041e,61bbc6346452c682923ba30f,,,,,,99,30,1,0,0,response1disk,1.3348,3,-1,1,0,0,rectangle,3,-1,1,0,0,-4,1,"[57,143,31,80,147,25,79,3,86,139]",3,-1,1,0,0,1,78,159,60,1,DarkGreen,DarkGreen.jpg,LightGreen,LightGreen.jpg,,
,,,,,,,,,,,,,,,,,,2,,,,,,,,,,,,,,,,,,,,,,,,,,,615e262996a338cda227b1eb,001,2021-12-17_09h05.59.929,jm_natural_scene_simialrity_2-12-2021_version2,2021.2.3,Win32,60.08893162,615e262996a338cda227b1eb,61bbc5c79a1c66460f44041e,61bbc6346452c682923ba30f,,,,,,94,-60,1,0,0,response3disk,5.7725,8,-9,1,0,0,rectangle,8,-9,1,0,0,-4,-4,"[57,143,31,80,147,25,79,3,86,139]",8,-9,1,0,0,1,79,160,7,1,Red,Red.jpg,Pink,Pink.jpg,,
,,,,,,,,,,,,,,,,,,-3,,,,,,,,,,,,,,,,,,,,,,,,,,,615e262996a338cda227b1eb,001,2021-12-17_09h05.59.929,jm_natural_scene_simialrity_2-12-2021_version2,2021.2.3,Win32,60.08893162,615e262996a338cda227b1eb,61bbc5c79a1c66460f44041e,61bbc6346452c682923ba30f,,,,,,-93,27,1,0,0,response7disk,2.0023,-16,-8,1,0,0,rectangle,-16,-8,1,0,0,-4,-2,"[57,143,31,80,147,25,79,3,86,139]",-16,-8,1,0,0,1,80,161,16,1,Yellow,Yellow.jpg,Purple,Purple.jpg,,
