key_resp.keys,key_resp.rt,key_resp_16.keys,key_resp_16.rt,key_resp_2.keys,key_resp_2.rt,key_resp_3.keys,key_resp_3.rt,key_resp_19.keys,key_resp_19.rt,key_resp_10.keys,key_resp_10.rt,mouse_prac.x,mouse_prac.y,mouse_prac.leftButton,mouse_prac.midButton,mouse_prac.rightButton,mouse_prac.clicked_name,similarity,mouse_10.x,mouse_10.y,mouse_10.leftButton,mouse_10.midButton,mouse_10.rightButton,mouse_10.clicked_name,mouse_catch_prac.x,mouse_catch_prac.y,mouse_catch_prac.leftButton,mouse_catch_prac.midButton,mouse_catch_prac.rightButton,mouse_catch_prac.clicked_name,catchprac,catchnumberprac,mouse_6.x,mouse_6.y,mouse_6.leftButton,mouse_6.midButton,mouse_6.rightButton,mouse_6.clicked_name,during_prac.thisRepN,during_prac.thisTrialN,during_prac.thisN,during_prac.thisIndex,during_prac.ran,trailimage1,trial1adress,trailimage2,trial2adress,participant,session,date,expName,psychopyVersion,OS,frameRate,PROLIFIC_PID,STUDY_ID,SESSION_ID,key_resp_22.keys,key_resp_22.rt,mouse.x,mouse.y,mouse.leftButton,mouse.midButton,mouse.rightButton,mouse.clicked_name,response_time,mouse_2.x,mouse_2.y,mouse_2.leftButton,mouse_2.midButton,mouse_2.rightButton,mouse_2.clicked_name,mouse_3.x,mouse_3.y,mouse_3.leftButton,mouse_3.midButton,mouse_3.rightButton,catchresponse,catchnumber,catchtrialorder,mouse_11.x,mouse_11.y,mouse_11.leftButton,mouse_11.midButton,mouse_11.rightButton,trials_2.thisRepN,trials_2.thisTrialN,trials_2.thisN,trials_2.thisIndex,trials_2.ran,image1,image1adress,image2,image2adress,mouse_3.clicked_name,mouse_11.clicked_name
space,4.5026,space,52.557,space,14.1947,space,16.381,space,35.1954,space,14.1004,-38.3999403,-96.80000788,1,0,0,response5disk_5,-1,-2.399939764,-6.4373E-06,1,0,0,rectangle_8,-35.19998908,-104.000008,1,0,0,response5disk_7,-1,-1,9.600060415,-7.200006545,1,0,0,rectangle_4,0,0,0,4,1,trail2,trail2.jpg,trail3,trail3.jpg,617282cc1f75d7414cdb74d8,001,2021-12-16_23h06.22.450,jm_natural_scene_simialrity_2-12-2021_version2,2021.2.3,Win32,59.9880024,617282cc1f75d7414cdb74d8,61bbc5c79a1c66460f44041e,61bbc611dc64863bfc6bf38d,,,,,,,,,,,,,,,,,,,,,,,,,,,,,,,,,,,,,,,
,,,,,,,,,,,,-49.5999893,-112.8000081,1,0,0,response5disk_5,-1,1.14441E-05,-2.400006473,1,0,0,rectangle_8,1.14441E-05,-2.400006473,1,0,0,,,-1,1.14441E-05,-2.400006473,1,0,0,,0,1,1,3,1,trail2,trail2.jpg,trail2,trail2.jpg,617282cc1f75d7414cdb74d8,001,2021-12-16_23h06.22.450,jm_natural_scene_simialrity_2-12-2021_version2,2021.2.3,Win32,59.9880024,617282cc1f75d7414cdb74d8,61bbc5c79a1c66460f44041e,61bbc611dc64863bfc6bf38d,,,,,,,,,,,,,,,,,,,,,,,,,,,,,,,,,,,,,,,
,,,,,,,,,,,,63.20001239,82.39999479,1,0,0,response1disk_5,4,-0.799988568,-6.400006533,1,0,0,rectangle_8,-0.799988568,-6.400006533,1,0,0,,,-1,-0.799988568,-6.400006533,1,0,0,,0,2,2,5,1,trail3,trail3.jpg,trail3,trail3.jpg,617282cc1f75d7414cdb74d8,001,2021-12-16_23h06.22.450,jm_natural_scene_simialrity_2-12-2021_version2,2021.2.3,Win32,59.9880024,617282cc1f75d7414cdb74d8,61bbc5c79a1c66460f44041e,61bbc611dc64863bfc6bf38d,,,,,,,,,,,,,,,,,,,,,,,,,,,,,,,,,,,,,,,
,,,,,,,,,,,,50.4000122,123.199971,1,0,0,response1disk_5,4,-7.999988675,11.19999373,1,0,0,rectangle_8,-7.999988675,11.19999373,1,0,0,,,-1,-7.999988675,11.19999373,1,0,0,,0,3,3,0,1,trail1,trail1.jpg,trail1,trail1.jpg,617282cc1f75d7414cdb74d8,001,2021-12-16_23h06.22.450,jm_natural_scene_simialrity_2-12-2021_version2,2021.2.3,Win32,59.9880024,617282cc1f75d7414cdb74d8,61bbc5c79a1c66460f44041e,61bbc611dc64863bfc6bf38d,,,,,,,,,,,,,,,,,,,,,,,,,,,,,,,,,,,,,,,
,,,,,,,,,,,,-42.39994036,27.99999398,1,0,0,response7disk_5,-3,1.14441E-05,0.799993575,1,0,0,rectangle_8,1.14441E-05,0.799993575,1,0,0,,,-1,1.14441E-05,0.799993575,1,0,0,,0,4,4,1,1,trail1,trail1.jpg,trail2,trail2.jpg,617282cc1f75d7414cdb74d8,001,2021-12-16_23h06.22.450,jm_natural_scene_simialrity_2-12-2021_version2,2021.2.3,Win32,59.9880024,617282cc1f75d7414cdb74d8,61bbc5c79a1c66460f44041e,61bbc611dc64863bfc6bf38d,,,,,,,,,,,,,,,,,,,,,,,,,,,,,,,,,,,,,,,
,,,,,,,,,,,,53.60001224,-76.00000757,1,0,0,response3disk_5,1,-3.199988604,-3.200006485,1,0,0,rectangle_8,-3.199988604,-3.200006485,1,0,0,,,-1,-3.199988604,-3.200006485,1,0,0,,0,5,5,2,1,trail1,trail1.jpg,trail3,trail3.jpg,617282cc1f75d7414cdb74d8,001,2021-12-16_23h06.22.450,jm_natural_scene_simialrity_2-12-2021_version2,2021.2.3,Win32,59.9880024,617282cc1f75d7414cdb74d8,61bbc5c79a1c66460f44041e,61bbc611dc64863bfc6bf38d,,,,,,,,,,,,,,,,,,,,,,,,,,,,,,,,,,,,,,,
,,,,,,,,,,,,,,,,,,-4,,,,,,,,,,,,,,,,,,,,,,,,,,,,,,617282cc1f75d7414cdb74d8,001,2021-12-16_23h06.22.450,jm_natural_scene_simialrity_2-12-2021_version2,2021.2.3,Win32,59.9880024,617282cc1f75d7414cdb74d8,61bbc5c79a1c66460f44041e,61bbc611dc64863bfc6bf38d,space,4.039,-25.59998894,64.79999453,1,0,0,response7disk,3.3484,-13.59998876,3.999993622,1,0,0,rectangle,-13.59998876,3.999993622,1,0,0,,-4,"[45,47,118,47,133,35,25,69,70,38]",-13.59998876,3.999993622,1,0,0,0,0,0,61,1,Turquiose,Turquiose.jpg,LightGreen,LightGreen.jpg,,
,,,,,,,,,,,,,,,,,,-4,,,,,,,,,,,,,,,,,,,,,,,,,,,,,,617282cc1f75d7414cdb74d8,001,2021-12-16_23h06.22.450,jm_natural_scene_simialrity_2-12-2021_version2,2021.2.3,Win32,59.9880024,617282cc1f75d7414cdb74d8,61bbc5c79a1c66460f44041e,61bbc611dc64863bfc6bf38d,,,-24.79998893,55.9999944,1,0,0,response7disk,1.7833,-11.19998872,-0.800006449,1,0,0,rectangle,-11.19998872,-0.800006449,1,0,0,,-1,"[45,47,118,47,133,35,25,69,70,38]",-11.19998872,-0.800006449,1,0,0,0,1,1,54,1,DarkGreen,DarkGreen.jpg,Yellow,Yellow.jpg,,
,,,,,,,,,,,,,,,,,,-2,,,,,,,,,,,,,,,,,,,,,,,,,,,,,,617282cc1f75d7414cdb74d8,001,2021-12-16_23h06.22.450,jm_natural_scene_simialrity_2-12-2021_version2,2021.2.3,Win32,59.9880024,617282cc1f75d7414cdb74d8,61bbc5c79a1c66460f44041e,61bbc611dc64863bfc6bf38d,,,-61.59998947,-43.20000708,1,0,0,response5disk,3.3996,-5.599988639,-2.400006473,1,0,0,rectangle,-5.599988639,-2.400006473,1,0,0,,2,"[45,47,118,47,133,35,25,69,70,38]",-5.599988639,-2.400006473,1,0,0,0,2,2,16,1,Yellow,Yellow.jpg,Purple,Purple.jpg,,
,,,,,,,,,,,,,,,,,,2,,,,,,,,,,,,,,,,,,,,,,,,,,,,,,617282cc1f75d7414cdb74d8,001,2021-12-16_23h06.22.450,jm_natural_scene_simialrity_2-12-2021_version2,2021.2.3,Win32,59.9880024,617282cc1f75d7414cdb74d8,61bbc5c79a1c66460f44041e,61bbc611dc64863bfc6bf38d,,,104.800013,-37.600007,1,0,0,response3disk,1.6166,-15.19998878,7.19999367,1,0,0,rectangle,-15.19998878,7.19999367,1,0,0,,-3,"[45,47,118,47,133,35,25,69,70,38]",-15.19998878,7.19999367,1,0,0,0,3,3,77,1,Purple,Purple.jpg,LightBlue,LightBlue.jpg,,
,,,,,,,,,,,,,,,,,,-1,,,,,,,,,,,,,,,,,,,,,,,,,,,,,,617282cc1f75d7414cdb74d8,001,2021-12-16_23h06.22.450,jm_natural_scene_simialrity_2-12-2021_version2,2021.2.3,Win32,59.9880024,617282cc1f75d7414cdb74d8,61bbc5c79a1c66460f44041e,61bbc611dc64863bfc6bf38d,,,-32.79998904,-64.8000074,1,0,0,response5disk,2.1156,12.80001163,-2.400006473,1,0,0,rectangle,12.80001163,-2.400006473,1,0,0,,3,"[45,47,118,47,133,35,25,69,70,38]",12.80001163,-2.400006473,1,0,0,0,4,4,26,1,DarkGreen,DarkGreen.jpg,LightBlue,LightBlue.jpg,,
,,,,,,,,,,,,,,,,,,-4,,,,,,,,,,,,,,,,,,,,,,,,,,,,,,617282cc1f75d7414cdb74d8,001,2021-12-16_23h06.22.450,jm_natural_scene_simialrity_2-12-2021_version2,2021.2.3,Win32,59.9880024,617282cc1f75d7414cdb74d8,61bbc5c79a1c66460f44041e,61bbc611dc64863bfc6bf38d,,,-27.99998897,77.59999472,1,0,0,response7disk,1.5498,-10.39993988,-12.00000662,1,0,0,rectangle,-10.39993988,-12.00000662,1,0,0,,-2,"[45,47,118,47,133,35,25,69,70,38]",-10.39993988,-12.00000662,1,0,0,0,5,5,69,1,Pink,Pink.jpg,DarkGreen,DarkGreen.jpg,,
,,,,,,,,,,,,,,,,,,-3,,,,,,,,,,,,,,,,,,,,,,,,,,,,,,617282cc1f75d7414cdb74d8,001,2021-12-16_23h06.22.450,jm_natural_scene_simialrity_2-12-2021_version2,2021.2.3,Win32,59.9880024,617282cc1f75d7414cdb74d8,61bbc5c79a1c66460f44041e,61bbc611dc64863bfc6bf38d,,,-57.59998941,24.79999393,1,0,0,response7disk,1.7671,-13.59998876,7.999993682,1,0,0,rectangle,-13.59998876,7.999993682,1,0,0,,3,"[45,47,118,47,133,35,25,69,70,38]",-13.59998876,7.999993682,1,0,0,0,6,6,5,1,Red,Red.jpg,LightBlue,LightBlue.jpg,,
,,,,,,,,,,,,,,,,,,-2,,,,,,,,,,,,,,,,,,,,,,,,,,,,,,617282cc1f75d7414cdb74d8,001,2021-12-16_23h06.22.450,jm_natural_scene_simialrity_2-12-2021_version2,2021.2.3,Win32,59.9880024,617282cc1f75d7414cdb74d8,61bbc5c79a1c66460f44041e,61bbc611dc64863bfc6bf38d,,,-80.79998976,-24.00000679,1,0,0,response5disk,3.5323,5.600060356,1.599993587,1,0,0,rectangle,5.600060356,1.599993587,1,0,0,,3,"[45,47,118,47,133,35,25,69,70,38]",5.600060356,1.599993587,1,0,0,0,7,7,43,1,Pink,Pink.jpg,Purple,Purple.jpg,,
,,,,,,,,,,,,,,,,,,4,,,,,,,,,,,,,,,,,,,,,,,,,,,,,,617282cc1f75d7414cdb74d8,001,2021-12-16_23h06.22.450,jm_natural_scene_simialrity_2-12-2021_version2,2021.2.3,Win32,59.9880024,617282cc1f75d7414cdb74d8,61bbc5c79a1c66460f44041e,61bbc611dc64863bfc6bf38d,,,46.40001214,76.79999471,1,0,0,response1disk,1.5664,-9.599988699,5.599993646,1,0,0,rectangle,-9.599988699,5.599993646,1,0,0,,1,"[45,47,118,47,133,35,25,69,70,38]",-9.599988699,5.599993646,1,0,0,0,8,8,0,1,Red,Red.jpg,Red,Red.jpg,,
,,,,,,,,,,,,,,,,,,-4,,,,,,,,,,,,,,,,,,,,,,,,,,,,,,617282cc1f75d7414cdb74d8,001,2021-12-16_23h06.22.450,jm_natural_scene_simialrity_2-12-2021_version2,2021.2.3,Win32,59.9880024,617282cc1f75d7414cdb74d8,61bbc5c79a1c66460f44041e,61bbc611dc64863bfc6bf38d,,,-42.39994036,80.79999477,1,0,0,response7disk,2.0001,-15.19998878,7.999993682,1,0,0,rectangle,-15.19998878,7.999993682,1,0,0,,-3,"[45,47,118,47,133,35,25,69,70,38]",-15.19998878,7.999993682,1,0,0,0,9,9,28,1,DarkGreen,DarkGreen.jpg,Pink,Pink.jpg,,
,,,,,,,,,,,,,,,,,,1,,,,,,,,,,,,,,,,,,,,,,,,,,,,,,617282cc1f75d7414cdb74d8,001,2021-12-16_23h06.22.450,jm_natural_scene_simialrity_2-12-2021_version2,2021.2.3,Win32,59.9880024,617282cc1f75d7414cdb74d8,61bbc5c79a1c66460f44041e,61bbc611dc64863bfc6bf38d,,,27.20001185,-47.20000714,1,0,0,response3disk,2.0343,-3.199988604,7.999993682,1,0,0,rectangle,-3.199988604,7.999993682,1,0,0,,-4,"[45,47,118,47,133,35,25,69,70,38]",-3.199988604,7.999993682,1,0,0,0,10,10,32,1,Turquiose,Turquiose.jpg,DarkBlue,DarkBlue.jpg,,
,,,,,,,,,,,,,,,,,,-3,,,,,,,,,,,,,,,,,,,,,,,,,,,,,,617282cc1f75d7414cdb74d8,001,2021-12-16_23h06.22.450,jm_natural_scene_simialrity_2-12-2021_version2,2021.2.3,Win32,59.9880024,617282cc1f75d7414cdb74d8,61bbc5c79a1c66460f44041e,61bbc611dc64863bfc6bf38d,,,-49.5999893,33.59999406,1,0,0,response7disk,2.5867,3.200011492,-4.800006509,1,0,0,rectangle,3.200011492,-4.800006509,1,0,0,,-2,"[45,47,118,47,133,35,25,69,70,38]",3.200011492,-4.800006509,1,0,0,0,11,11,33,1,Turquiose,Turquiose.jpg,Pink,Pink.jpg,,
,,,,,,,,,,,,,,,,,,-2,,,,,,,,,,,,,,,,,,,,,,,,,,,,,,617282cc1f75d7414cdb74d8,001,2021-12-16_23h06.22.450,jm_natural_scene_simialrity_2-12-2021_version2,2021.2.3,Win32,59.9880024,617282cc1f75d7414cdb74d8,61bbc5c79a1c66460f44041e,61bbc611dc64863bfc6bf38d,,,-59.19998944,-23.20000678,1,0,0,response5disk,1.4141,-6.399939823,-1.600006461,1,0,0,rectangle,-6.399939823,-1.600006461,1,0,0,,-4,"[45,47,118,47,133,35,25,69,70,38]",-6.399939823,-1.600006461,1,0,0,0,12,12,52,1,Purple,Purple.jpg,Red,Red.jpg,,
,,,,,,,,,,,,,,,,,,-3,,,,,,,,,,,,,,,,,,,,,,,,,,,,,,617282cc1f75d7414cdb74d8,001,2021-12-16_23h06.22.450,jm_natural_scene_simialrity_2-12-2021_version2,2021.2.3,Win32,59.9880024,617282cc1f75d7414cdb74d8,61bbc5c79a1c66460f44041e,61bbc611dc64863bfc6bf38d,,,-48.79998928,36.79999411,1,0,0,response7disk,2.2001,12.00001162,-3.200006485,1,0,0,rectangle,12.00001162,-3.200006485,1,0,0,,1,"[45,47,118,47,133,35,25,69,70,38]",12.00001162,-3.200006485,1,0,0,0,13,13,76,1,Pink,Pink.jpg,LightBlue,LightBlue.jpg,,
,,,,,,,,,,,,,,,,,,2,,,,,,,,,,,,,,,,,,,,,,,,,,,,,,617282cc1f75d7414cdb74d8,001,2021-12-16_23h06.22.450,jm_natural_scene_simialrity_2-12-2021_version2,2021.2.3,Win32,59.9880024,617282cc1f75d7414cdb74d8,61bbc5c79a1c66460f44041e,61bbc611dc64863bfc6bf38d,,,36.00001198,-25.60000682,1,0,0,response3disk,1.75,-1.59998858,3.19999361,1,0,0,rectangle,-1.59998858,3.19999361,1,0,0,,-1,"[45,47,118,47,133,35,25,69,70,38]",-1.59998858,3.19999361,1,0,0,0,14,14,71,1,LightBlue,LightBlue.jpg,Turquiose,Turquiose.jpg,,
,,,,,,,,,,,,,,,,,,-4,,,,,,,,,,,,,,,,,,,,,,,,,,,,,,617282cc1f75d7414cdb74d8,001,2021-12-16_23h06.22.450,jm_natural_scene_simialrity_2-12-2021_version2,2021.2.3,Win32,59.9880024,617282cc1f75d7414cdb74d8,61bbc5c79a1c66460f44041e,61bbc611dc64863bfc6bf38d,,,-24.79998893,76.79999471,1,0,0,response7disk,3.9663,18.40001172,-3.200006485,1,0,0,rectangle,18.40001172,-3.200006485,1,0,0,,3,"[45,47,118,47,133,35,25,69,70,38]",18.40001172,-3.200006485,1,0,0,0,15,15,59,1,Purple,Purple.jpg,Yellow,Yellow.jpg,,
,,,,,,,,,,,,,,,,,,4,,,,,,,,,,,,,,,,,,,,,,,,,,,,,,617282cc1f75d7414cdb74d8,001,2021-12-16_23h06.22.450,jm_natural_scene_simialrity_2-12-2021_version2,2021.2.3,Win32,59.9880024,617282cc1f75d7414cdb74d8,61bbc5c79a1c66460f44041e,61bbc611dc64863bfc6bf38d,,,40.00001204,78.39999473,1,0,0,response1disk,1.3166,-13.59998876,17.59999382,1,0,0,rectangle,-13.59998876,17.59999382,1,0,0,,-3,"[45,47,118,47,133,35,25,69,70,38]",-13.59998876,17.59999382,1,0,0,0,16,16,24,1,DarkGreen,DarkGreen.jpg,DarkGreen,DarkGreen.jpg,,
,,,,,,,,,,,,,,,,,,3,,,,,,,,,,,,,,,,,,,,,,,,,,,,,,617282cc1f75d7414cdb74d8,001,2021-12-16_23h06.22.450,jm_natural_scene_simialrity_2-12-2021_version2,2021.2.3,Win32,59.9880024,617282cc1f75d7414cdb74d8,61bbc5c79a1c66460f44041e,61bbc611dc64863bfc6bf38d,,,93.60001284,27.99999398,1,0,0,response1disk,2.0166,-5.599988639,10.39999372,1,0,0,rectangle,-5.599988639,10.39999372,1,0,0,,1,"[45,47,118,47,133,35,25,69,70,38]",-5.599988639,10.39999372,1,0,0,0,17,17,38,1,LightBlue,LightBlue.jpg,Purple,Purple.jpg,,
,,,,,,,,,,,,,,,,,,-3,,,,,,,,,,,,,,,,,,,,,,,,,,,,,,617282cc1f75d7414cdb74d8,001,2021-12-16_23h06.22.450,jm_natural_scene_simialrity_2-12-2021_version2,2021.2.3,Win32,59.9880024,617282cc1f75d7414cdb74d8,61bbc5c79a1c66460f44041e,61bbc611dc64863bfc6bf38d,,,-39.19998914,27.99999398,1,0,0,response7disk,2.1165,-7.199988663,1.599993587,1,0,0,rectangle,-7.199988663,1.599993587,1,0,0,,2,"[45,47,118,47,133,35,25,69,70,38]",-7.199988663,1.599993587,1,0,0,0,18,18,55,1,Turquiose,Turquiose.jpg,Yellow,Yellow.jpg,,
,,,,,,,,,,,,,,,,,,-4,,,,,,,,,,,,,,,,,,,,,,,,,,,,,,617282cc1f75d7414cdb74d8,001,2021-12-16_23h06.22.450,jm_natural_scene_simialrity_2-12-2021_version2,2021.2.3,Win32,59.9880024,617282cc1f75d7414cdb74d8,61bbc5c79a1c66460f44041e,61bbc611dc64863bfc6bf38d,,,-19.99998885,31.19996961,1,0,0,response7disk,2.1,1.14441E-05,-6.4373E-06,1,0,0,rectangle,1.14441E-05,-6.4373E-06,1,0,0,,-4,"[45,47,118,47,133,35,25,69,70,38]",1.14441E-05,-6.4373E-06,1,0,0,0,19,19,64,1,Pink,Pink.jpg,LightGreen,LightGreen.jpg,,
,,,,,,,,,,,,,,,,,,1,,,,,,,,,,,,,,,,,,,,,,,,,,,,,,617282cc1f75d7414cdb74d8,001,2021-12-16_23h06.22.450,jm_natural_scene_simialrity_2-12-2021_version2,2021.2.3,Win32,59.9880024,617282cc1f75d7414cdb74d8,61bbc5c79a1c66460f44041e,61bbc611dc64863bfc6bf38d,,,30.4000119,-45.60000712,1,0,0,response3disk,3.1502,0.800011456,-4.000006497,1,0,0,rectangle,0.800011456,-4.000006497,1,0,0,,2,"[45,47,118,47,133,35,25,69,70,38]",0.800011456,-4.000006497,1,0,0,0,20,20,8,1,Red,Red.jpg,Purple,Purple.jpg,,
,,,,,,,,,,,,,,,,,,2,,,,,,,,,,,,,,,,,,,,,,,,,,,,,,617282cc1f75d7414cdb74d8,001,2021-12-16_23h06.22.450,jm_natural_scene_simialrity_2-12-2021_version2,2021.2.3,Win32,59.9880024,617282cc1f75d7414cdb74d8,61bbc5c79a1c66460f44041e,61bbc611dc64863bfc6bf38d,,,36.00001198,-24.00000679,1,0,0,response3disk,1.5529,-3.999988616,-8.800006568,1,0,0,rectangle,-3.999988616,-8.800006568,1,0,0,,-3,"[45,47,118,47,133,35,25,69,70,38]",-3.999988616,-8.800006568,1,0,0,0,21,21,36,1,LightBlue,LightBlue.jpg,DarkBlue,DarkBlue.jpg,,
,,,,,,,,,,,,,,,,,,3,,,,,,,,,,,,,,,,,,,,,,,,,,,,,,617282cc1f75d7414cdb74d8,001,2021-12-16_23h06.22.450,jm_natural_scene_simialrity_2-12-2021_version2,2021.2.3,Win32,59.9880024,617282cc1f75d7414cdb74d8,61bbc5c79a1c66460f44041e,61bbc611dc64863bfc6bf38d,,,69.60001248,46.39999425,1,0,0,response1disk,1.3003,-2.399939764,18.39999384,1,0,0,rectangle,-2.399939764,18.39999384,1,0,0,,-1,"[45,47,118,47,133,35,25,69,70,38]",-2.399939764,18.39999384,1,0,0,0,22,22,60,1,DarkGreen,DarkGreen.jpg,LightGreen,LightGreen.jpg,,
,,,,,,,,,,,,,,,,,,-2,,,,,,,,,,,,,,,,,,,,,,,,,,,,,,617282cc1f75d7414cdb74d8,001,2021-12-16_23h06.22.450,jm_natural_scene_simialrity_2-12-2021_version2,2021.2.3,Win32,59.9880024,617282cc1f75d7414cdb74d8,61bbc5c79a1c66460f44041e,61bbc611dc64863bfc6bf38d,,,-100.7999901,-48.00000715,1,0,0,response5disk,2.0496,11.20001161,7.999993682,1,0,0,rectangle,11.20001161,7.999993682,1,0,0,,-2,"[45,47,118,47,133,35,25,69,70,38]",11.20001161,7.999993682,1,0,0,0,23,23,29,1,DarkGreen,DarkGreen.jpg,Purple,Purple.jpg,,
,,,,,,,,,,,,,,,,,,3,,,,,,,,,,,,,,,,,,,,,,,,,,,,,,617282cc1f75d7414cdb74d8,001,2021-12-16_23h06.22.450,jm_natural_scene_simialrity_2-12-2021_version2,2021.2.3,Win32,59.9880024,617282cc1f75d7414cdb74d8,61bbc5c79a1c66460f44041e,61bbc611dc64863bfc6bf38d,,,64.80001241,41.59999418,1,0,0,response1disk,1.7831,-15.19998878,-5.600006521,1,0,0,rectangle,94.40001285,-52.00000721,1,0,0,2,2,"[45,47,118,47,133,35,25,69,70,38]",1.14441E-05,-17.6000067,1,0,0,0,24,24,15,1,Yellow,Yellow.jpg,Pink,Pink.jpg,response3disk_3,rectangle
,,,,,,,,,,,,,,,,,,2,,,,,,,,,,,,,,,,,,,,,,,,,,,,,,617282cc1f75d7414cdb74d8,001,2021-12-16_23h06.22.450,jm_natural_scene_simialrity_2-12-2021_version2,2021.2.3,Win32,59.9880024,617282cc1f75d7414cdb74d8,61bbc5c79a1c66460f44041e,61bbc611dc64863bfc6bf38d,,,78.40001261,-52.00000721,1,0,0,response3disk,3.5847,-4.799988627,2.399993598,1,0,0,rectangle,-4.799988627,2.399993598,1,0,0,2,-2,"[45,47,118,47,133,35,25,69,70,38]",-4.799988627,2.399993598,1,0,0,0,25,25,74,1,Purple,Purple.jpg,Turquiose,Turquiose.jpg,,
,,,,,,,,,,,,,,,,,,4,,,,,,,,,,,,,,,,,,,,,,,,,,,,,,617282cc1f75d7414cdb74d8,001,2021-12-16_23h06.22.450,jm_natural_scene_simialrity_2-12-2021_version2,2021.2.3,Win32,59.9880024,617282cc1f75d7414cdb74d8,61bbc5c79a1c66460f44041e,61bbc611dc64863bfc6bf38d,,,62.40001237,123.199971,1,0,0,response1disk,1.2167,-2.399939764,11.19999373,1,0,0,rectangle,-2.399939764,11.19999373,1,0,0,2,1,"[45,47,118,47,133,35,25,69,70,38]",-2.399939764,11.19999373,1,0,0,0,26,26,44,1,Purple,Purple.jpg,Purple,Purple.jpg,,
,,,,,,,,,,,,,,,,,,-3,,,,,,,,,,,,,,,,,,,,,,,,,,,,,,617282cc1f75d7414cdb74d8,001,2021-12-16_23h06.22.450,jm_natural_scene_simialrity_2-12-2021_version2,2021.2.3,Win32,59.9880024,617282cc1f75d7414cdb74d8,61bbc5c79a1c66460f44041e,61bbc611dc64863bfc6bf38d,,,-35.99998909,21.59999388,1,0,0,response7disk,2.2168,-18.39994,8.799993694,1,0,0,rectangle,-18.39994,8.799993694,1,0,0,2,2,"[45,47,118,47,133,35,25,69,70,38]",-18.39994,8.799993694,1,0,0,0,27,27,37,1,LightBlue,LightBlue.jpg,Pink,Pink.jpg,,
,,,,,,,,,,,,,,,,,,3,,,,,,,,,,,,,,,,,,,,,,,,,,,,,,617282cc1f75d7414cdb74d8,001,2021-12-16_23h06.22.450,jm_natural_scene_simialrity_2-12-2021_version2,2021.2.3,Win32,59.9880024,617282cc1f75d7414cdb74d8,61bbc5c79a1c66460f44041e,61bbc611dc64863bfc6bf38d,,,64.80001241,28.79999399,1,0,0,response1disk,4.3665,13.60006047,-3.200006485,1,0,0,rectangle,13.60006047,-3.200006485,1,0,0,2,1,"[45,47,118,47,133,35,25,69,70,38]",13.60006047,-3.200006485,1,0,0,0,28,28,31,1,Turquiose,Turquiose.jpg,LightBlue,LightBlue.jpg,,
,,,,,,,,,,,,,,,,,,2,,,,,,,,,,,,,,,,,,,,,,,,,,,,,,617282cc1f75d7414cdb74d8,001,2021-12-16_23h06.22.450,jm_natural_scene_simialrity_2-12-2021_version2,2021.2.3,Win32,59.9880024,617282cc1f75d7414cdb74d8,61bbc5c79a1c66460f44041e,61bbc611dc64863bfc6bf38d,,,44.0000121,-27.20000684,1,0,0,response3disk,1.3693,0.800011456,-8.800006568,1,0,0,rectangle,0.800011456,-8.800006568,1,0,0,2,-3,"[45,47,118,47,133,35,25,69,70,38]",0.800011456,-8.800006568,1,0,0,0,29,29,75,1,DarkBlue,DarkBlue.jpg,LightBlue,LightBlue.jpg,,
,,,,,,,,,,,,,,,,,,3,,,,,,,,,,,,,,,,,,,,,,,,,,,,,,617282cc1f75d7414cdb74d8,001,2021-12-16_23h06.22.450,jm_natural_scene_simialrity_2-12-2021_version2,2021.2.3,Win32,59.9880024,617282cc1f75d7414cdb74d8,61bbc5c79a1c66460f44041e,61bbc611dc64863bfc6bf38d,,,85.60001272,30.39999402,1,0,0,response1disk,2.0662,-17.59998882,-1.600006461,1,0,0,rectangle,-17.59998882,-1.600006461,1,0,0,2,-4,"[45,47,118,47,133,35,25,69,70,38]",-17.59998882,-1.600006461,1,0,0,0,30,30,58,1,Pink,Pink.jpg,Yellow,Yellow.jpg,,
,,,,,,,,,,,,,,,,,,-3,,,,,,,,,,,,,,,,,,,,,,,,,,,,,,617282cc1f75d7414cdb74d8,001,2021-12-16_23h06.22.450,jm_natural_scene_simialrity_2-12-2021_version2,2021.2.3,Win32,59.9880024,617282cc1f75d7414cdb74d8,61bbc5c79a1c66460f44041e,61bbc611dc64863bfc6bf38d,,,-73.59998965,28.79999399,1,0,0,response7disk,2.2666,8.800011575,0.799993575,1,0,0,rectangle,8.800011575,0.799993575,1,0,0,2,-3,"[45,47,118,47,133,35,25,69,70,38]",8.800011575,0.799993575,1,0,0,0,31,31,57,1,DarkBlue,DarkBlue.jpg,Yellow,Yellow.jpg,,
,,,,,,,,,,,,,,,,,,1,,,,,,,,,,,,,,,,,,,,,,,,,,,,,,617282cc1f75d7414cdb74d8,001,2021-12-16_23h06.22.450,jm_natural_scene_simialrity_2-12-2021_version2,2021.2.3,Win32,59.9880024,617282cc1f75d7414cdb74d8,61bbc5c79a1c66460f44041e,61bbc611dc64863bfc6bf38d,,,18.40001172,-34.40000695,1,0,0,response3disk,1.7166,4.800011516,6.399993658,1,0,0,rectangle,4.800011516,6.399993658,1,0,0,2,2,"[45,47,118,47,133,35,25,69,70,38]",4.800011516,6.399993658,1,0,0,0,32,32,34,1,Turquiose,Turquiose.jpg,Purple,Purple.jpg,,
,,,,,,,,,,,,,,,,,,-2,,,,,,,,,,,,,,,,,,,,,,,,,,,,,,617282cc1f75d7414cdb74d8,001,2021-12-16_23h06.22.450,jm_natural_scene_simialrity_2-12-2021_version2,2021.2.3,Win32,59.9880024,617282cc1f75d7414cdb74d8,61bbc5c79a1c66460f44041e,61bbc611dc64863bfc6bf38d,,,-63.1999895,-49.60000718,1,0,0,response5disk,2.0168,7.200011551,-9.60000658,1,0,0,rectangle,7.200011551,-9.60000658,1,0,0,2,-3,"[45,47,118,47,133,35,25,69,70,38]",7.200011551,-9.60000658,1,0,0,0,33,33,63,1,DarkBlue,DarkBlue.jpg,LightGreen,LightGreen.jpg,,
,,,,,,,,,,,,,,,,,,-3,,,,,,,,,,,,,,,,,,,,,,,,,,,,,,617282cc1f75d7414cdb74d8,001,2021-12-16_23h06.22.450,jm_natural_scene_simialrity_2-12-2021_version2,2021.2.3,Win32,59.9880024,617282cc1f75d7414cdb74d8,61bbc5c79a1c66460f44041e,61bbc611dc64863bfc6bf38d,,,-77.59998971,29.599994,1,0,0,response7disk,1.5497,23.20001179,3.999993622,1,0,0,rectangle,122.4000133,58.39999443,1,0,0,3,3,"[45,47,118,47,133,35,25,69,70,38]",3.200011492,2.399993598,1,0,0,0,34,34,73,1,Pink,Pink.jpg,Turquiose,Turquiose.jpg,response1disk_3,rectangle
,,,,,,,,,,,,,,,,,,-2,,,,,,,,,,,,,,,,,,,,,,,,,,,,,,617282cc1f75d7414cdb74d8,001,2021-12-16_23h06.22.450,jm_natural_scene_simialrity_2-12-2021_version2,2021.2.3,Win32,59.9880024,617282cc1f75d7414cdb74d8,61bbc5c79a1c66460f44041e,61bbc611dc64863bfc6bf38d,,,-62.39994066,-26.40000683,1,0,0,response5disk,2.1181,-3.999988616,12.79999375,1,0,0,rectangle,-3.999988616,12.79999375,1,0,0,3,-3,"[45,47,118,47,133,35,25,69,70,38]",-3.999988616,12.79999375,1,0,0,0,35,35,70,1,Purple,Purple.jpg,DarkGreen,DarkGreen.jpg,,
,,,,,,,,,,,,,,,,,,-3,,,,,,,,,,,,,,,,,,,,,,,,,,,,,,617282cc1f75d7414cdb74d8,001,2021-12-16_23h06.22.450,jm_natural_scene_simialrity_2-12-2021_version2,2021.2.3,Win32,59.9880024,617282cc1f75d7414cdb74d8,61bbc5c79a1c66460f44041e,61bbc611dc64863bfc6bf38d,,,-63.99998951,38.39999413,1,0,0,response7disk,5.0663,8.000011563,11.19999373,1,0,0,rectangle,8.000011563,11.19999373,1,0,0,3,-1,"[45,47,118,47,133,35,25,69,70,38]",8.000011563,11.19999373,1,0,0,0,36,36,21,1,LightGreen,LightGreen.jpg,DarkBlue,DarkBlue.jpg,,
,,,,,,,,,,,,,,,,,,3,,,,,,,,,,,,,,,,,,,,,,,,,,,,,,617282cc1f75d7414cdb74d8,001,2021-12-16_23h06.22.450,jm_natural_scene_simialrity_2-12-2021_version2,2021.2.3,Win32,59.9880024,617282cc1f75d7414cdb74d8,61bbc5c79a1c66460f44041e,61bbc611dc64863bfc6bf38d,,,66.40001243,28.79999399,1,0,0,response1disk,1.3012,-11.99998873,11.19999373,1,0,0,rectangle,-121.5999904,61.59999448,1,0,0,-3,-3,"[45,47,118,47,133,35,25,69,70,38]",-7.999988675,16.79999381,1,0,0,0,37,37,51,1,Pink,Pink.jpg,Red,Red.jpg,response7disk_3,rectangle
,,,,,,,,,,,,,,,,,,-2,,,,,,,,,,,,,,,,,,,,,,,,,,,,,,617282cc1f75d7414cdb74d8,001,2021-12-16_23h06.22.450,jm_natural_scene_simialrity_2-12-2021_version2,2021.2.3,Win32,59.9880024,617282cc1f75d7414cdb74d8,61bbc5c79a1c66460f44041e,61bbc611dc64863bfc6bf38d,,,-57.59998941,-28.00000685,1,0,0,response5disk,1.983,14.40001166,9.599993706,1,0,0,rectangle,14.40001166,9.599993706,1,0,0,-3,-3,"[45,47,118,47,133,35,25,69,70,38]",14.40001166,9.599993706,1,0,0,0,38,38,2,1,Red,Red.jpg,LightGreen,LightGreen.jpg,,
,,,,,,,,,,,,,,,,,,4,,,,,,,,,,,,,,,,,,,,,,,,,,,,,,617282cc1f75d7414cdb74d8,001,2021-12-16_23h06.22.450,jm_natural_scene_simialrity_2-12-2021_version2,2021.2.3,Win32,59.9880024,617282cc1f75d7414cdb74d8,61bbc5c79a1c66460f44041e,61bbc611dc64863bfc6bf38d,,,45.60006095,108.7999952,1,0,0,response1disk,1.101,-6.399939823,11.99999374,1,0,0,rectangle,-6.399939823,11.99999374,1,0,0,-3,-3,"[45,47,118,47,133,35,25,69,70,38]",-6.399939823,11.99999374,1,0,0,0,39,39,35,1,LightBlue,LightBlue.jpg,LightBlue,LightBlue.jpg,,
,,,,,,,,,,,,,,,,,,-2,,,,,,,,,,,,,,,,,,,,,,,,,,,,,,617282cc1f75d7414cdb74d8,001,2021-12-16_23h06.22.450,jm_natural_scene_simialrity_2-12-2021_version2,2021.2.3,Win32,59.9880024,617282cc1f75d7414cdb74d8,61bbc5c79a1c66460f44041e,61bbc611dc64863bfc6bf38d,,,-76.7999897,-28.00000685,1,0,0,response5disk,2.95,2.40001148,-0.800006449,1,0,0,rectangle,2.40001148,-0.800006449,1,0,0,-3,2,"[45,47,118,47,133,35,25,69,70,38]",2.40001148,-0.800006449,1,0,0,0,40,40,10,1,Yellow,Yellow.jpg,LightGreen,LightGreen.jpg,,
,,,,,,,,,,,,,,,,,,-3,,,,,,,,,,,,,,,,,,,,,,,,,,,,,,617282cc1f75d7414cdb74d8,001,2021-12-16_23h06.22.450,jm_natural_scene_simialrity_2-12-2021_version2,2021.2.3,Win32,59.9880024,617282cc1f75d7414cdb74d8,61bbc5c79a1c66460f44041e,61bbc611dc64863bfc6bf38d,,,-44.79998922,31.99999404,1,0,0,response7disk,2.4831,-4.799988627,3.19999361,1,0,0,rectangle,-4.799988627,3.19999361,1,0,0,-3,-4,"[45,47,118,47,133,35,25,69,70,38]",-4.799988627,3.19999361,1,0,0,0,41,41,40,1,DarkBlue,DarkBlue.jpg,Pink,Pink.jpg,,
,,,,,,,,,,,,,,,,,,-4,,,,,,,,,,,,,,,,,,,,,,,,,,,,,,617282cc1f75d7414cdb74d8,001,2021-12-16_23h06.22.450,jm_natural_scene_simialrity_2-12-2021_version2,2021.2.3,Win32,59.9880024,617282cc1f75d7414cdb74d8,61bbc5c79a1c66460f44041e,61bbc611dc64863bfc6bf38d,,,-37.59998912,60.79999447,1,0,0,response7disk,2.3533,-15.19998878,1.599993587,1,0,0,rectangle,-15.19998878,1.599993587,1,0,0,-3,-1,"[45,47,118,47,133,35,25,69,70,38]",-15.19998878,1.599993587,1,0,0,0,42,42,4,1,Red,Red.jpg,Turquiose,Turquiose.jpg,,
,,,,,,,,,,,,,,,,,,-4,,,,,,,,,,,,,,,,,,,,,,,,,,,,,,617282cc1f75d7414cdb74d8,001,2021-12-16_23h06.22.450,jm_natural_scene_simialrity_2-12-2021_version2,2021.2.3,Win32,59.9880024,617282cc1f75d7414cdb74d8,61bbc5c79a1c66460f44041e,61bbc611dc64863bfc6bf38d,,,-27.99998897,48.79999429,1,0,0,response7disk,2.2142,-13.59998876,11.19999373,1,0,0,rectangle,-13.59998876,11.19999373,1,0,0,-3,-3,"[45,47,118,47,133,35,25,69,70,38]",-13.59998876,11.19999373,1,0,0,0,43,43,11,1,Yellow,Yellow.jpg,DarkGreen,DarkGreen.jpg,,
,,,,,,,,,,,,,,,,,,3,,,,,,,,,,,,,,,,,,,,,,,,,,,,,,617282cc1f75d7414cdb74d8,001,2021-12-16_23h06.22.450,jm_natural_scene_simialrity_2-12-2021_version2,2021.2.3,Win32,59.9880024,617282cc1f75d7414cdb74d8,61bbc5c79a1c66460f44041e,61bbc611dc64863bfc6bf38d,,,59.20001233,44.79999423,1,0,0,response1disk,1.6826,-8.799988687,15.9999938,1,0,0,rectangle,45.60006095,-100.0000079,1,0,0,1,1,"[45,47,118,47,133,35,25,69,70,38]",-13.59998876,14.39999378,1,0,0,0,44,44,1,1,Red,Red.jpg,Yellow,Yellow.jpg,response3disk_3,rectangle
,,,,,,,,,,,,,,,,,,-3,,,,,,,,,,,,,,,,,,,,,,,,,,,,,,617282cc1f75d7414cdb74d8,001,2021-12-16_23h06.22.450,jm_natural_scene_simialrity_2-12-2021_version2,2021.2.3,Win32,59.9880024,617282cc1f75d7414cdb74d8,61bbc5c79a1c66460f44041e,61bbc611dc64863bfc6bf38d,,,-66.39994072,43.99999422,1,0,0,response7disk,3.166,-7.199988663,-7.200006545,1,0,0,rectangle,-7.199988663,-7.200006545,1,0,0,1,3,"[45,47,118,47,133,35,25,69,70,38]",-7.199988663,-7.200006545,1,0,0,0,45,45,19,1,LightGreen,LightGreen.jpg,Turquiose,Turquiose.jpg,,
,,,,,,,,,,,,,,,,,,-4,,,,,,,,,,,,,,,,,,,,,,,,,,,,,,617282cc1f75d7414cdb74d8,001,2021-12-16_23h06.22.450,jm_natural_scene_simialrity_2-12-2021_version2,2021.2.3,Win32,59.9880024,617282cc1f75d7414cdb74d8,61bbc5c79a1c66460f44041e,61bbc611dc64863bfc6bf38d,,,-22.39994006,43.99999422,1,0,0,response7disk,1.7999,-7.999988675,-4.000006497,1,0,0,rectangle,-41.59998918,112.7999952,1,0,0,-4,-4,"[45,47,118,47,133,35,25,69,70,38]",-4.799988627,7.19999367,1,0,0,0,46,46,56,1,LightBlue,LightBlue.jpg,Yellow,Yellow.jpg,response7disk_3,rectangle
,,,,,,,,,,,,,,,,,,-2,,,,,,,,,,,,,,,,,,,,,,,,,,,,,,617282cc1f75d7414cdb74d8,001,2021-12-16_23h06.22.450,jm_natural_scene_simialrity_2-12-2021_version2,2021.2.3,Win32,59.9880024,617282cc1f75d7414cdb74d8,61bbc5c79a1c66460f44041e,61bbc611dc64863bfc6bf38d,,,-71.19998962,-28.80000687,1,0,0,response5disk,4.1323,-11.99998873,11.19999373,1,0,0,rectangle,-11.99998873,11.19999373,1,0,0,-4,3,"[45,47,118,47,133,35,25,69,70,38]",-11.99998873,11.19999373,1,0,0,0,47,47,80,1,Purple,Purple.jpg,Pink,Pink.jpg,,
,,,,,,,,,,,,,,,,,,4,,,,,,,,,,,,,,,,,,,,,,,,,,,,,,617282cc1f75d7414cdb74d8,001,2021-12-16_23h06.22.450,jm_natural_scene_simialrity_2-12-2021_version2,2021.2.3,Win32,59.9880024,617282cc1f75d7414cdb74d8,61bbc5c79a1c66460f44041e,61bbc611dc64863bfc6bf38d,,,56.00001228,79.19997033,1,0,0,response1disk,1.2499,-5.599988639,-10.40000659,1,0,0,rectangle,-5.599988639,-10.40000659,1,0,0,-4,-3,"[45,47,118,47,133,35,25,69,70,38]",-5.599988639,-10.40000659,1,0,0,0,48,48,42,1,Pink,Pink.jpg,Pink,Pink.jpg,,
,,,,,,,,,,,,,,,,,,-4,,,,,,,,,,,,,,,,,,,,,,,,,,,,,,617282cc1f75d7414cdb74d8,001,2021-12-16_23h06.22.450,jm_natural_scene_simialrity_2-12-2021_version2,2021.2.3,Win32,59.9880024,617282cc1f75d7414cdb74d8,61bbc5c79a1c66460f44041e,61bbc611dc64863bfc6bf38d,,,-34.39994024,53.59999436,1,0,0,response7disk,2.1011,-16.79998881,-20.00000674,1,0,0,rectangle,-16.79998881,-20.00000674,1,0,0,-4,-2,"[45,47,118,47,133,35,25,69,70,38]",-16.79998881,-20.00000674,1,0,0,0,49,49,12,1,Yellow,Yellow.jpg,Turquiose,Turquiose.jpg,,
,,,,,,,,,,,,,,,,,,-4,,,,,,,,,,,,,,,,,,,,,,,,,,,,,,617282cc1f75d7414cdb74d8,001,2021-12-16_23h06.22.450,jm_natural_scene_simialrity_2-12-2021_version2,2021.2.3,Win32,59.9880024,617282cc1f75d7414cdb74d8,61bbc5c79a1c66460f44041e,61bbc611dc64863bfc6bf38d,,,-31.99998903,45.59999424,1,0,0,response7disk,2.4834,-15.19998878,-13.60000664,1,0,0,rectangle,-15.19998878,-13.60000664,1,0,0,-4,-2,"[45,47,118,47,133,35,25,69,70,38]",-15.19998878,-13.60000664,1,0,0,0,50,50,66,1,Turquiose,Turquiose.jpg,DarkGreen,DarkGreen.jpg,,
,,,,,,,,,,,,,,,,,,-4,,,,,,,,,,,,,,,,,,,,,,,,,,,,,,617282cc1f75d7414cdb74d8,001,2021-12-16_23h06.22.450,jm_natural_scene_simialrity_2-12-2021_version2,2021.2.3,Win32,59.9880024,617282cc1f75d7414cdb74d8,61bbc5c79a1c66460f44041e,61bbc611dc64863bfc6bf38d,,,-24.79998893,35.9999941,1,0,0,response7disk,2.383,-21.59998888,-4.800006509,1,0,0,rectangle,-21.59998888,-4.800006509,1,0,0,-4,1,"[45,47,118,47,133,35,25,69,70,38]",-21.59998888,-4.800006509,1,0,0,0,51,51,23,1,LightGreen,LightGreen.jpg,Purple,Purple.jpg,,
,,,,,,,,,,,,,,,,,,-3,,,,,,,,,,,,,,,,,,,,,,,,,,,,,,617282cc1f75d7414cdb74d8,001,2021-12-16_23h06.22.450,jm_natural_scene_simialrity_2-12-2021_version2,2021.2.3,Win32,59.9880024,617282cc1f75d7414cdb74d8,61bbc5c79a1c66460f44041e,61bbc611dc64863bfc6bf38d,,,-53.59998935,23.19996949,1,0,0,response7disk,2.7321,-21.59998888,5.599993646,1,0,0,rectangle,-21.59998888,5.599993646,1,0,0,-4,-4,"[45,47,118,47,133,35,25,69,70,38]",-21.59998888,5.599993646,1,0,0,0,52,52,27,1,DarkGreen,DarkGreen.jpg,DarkBlue,DarkBlue.jpg,,
,,,,,,,,,,,,,,,,,,-4,,,,,,,,,,,,,,,,,,,,,,,,,,,,,,617282cc1f75d7414cdb74d8,001,2021-12-16_23h06.22.450,jm_natural_scene_simialrity_2-12-2021_version2,2021.2.3,Win32,59.9880024,617282cc1f75d7414cdb74d8,61bbc5c79a1c66460f44041e,61bbc611dc64863bfc6bf38d,,,-28.79998899,58.39999443,1,0,0,response7disk,1.2666,-8.799988687,-1.600006461,1,0,0,rectangle,-8.799988687,-1.600006461,1,0,0,-4,-1,"[45,47,118,47,133,35,25,69,70,38]",-8.799988687,-1.600006461,1,0,0,0,53,53,22,1,LightGreen,LightGreen.jpg,Pink,Pink.jpg,,
,,,,,,,,,,,,,,,,,,3,,,,,,,,,,,,,,,,,,,,,,,,,,,,,,617282cc1f75d7414cdb74d8,001,2021-12-16_23h06.22.450,jm_natural_scene_simialrity_2-12-2021_version2,2021.2.3,Win32,59.9880024,617282cc1f75d7414cdb74d8,61bbc5c79a1c66460f44041e,61bbc611dc64863bfc6bf38d,,,68.80001247,36.79999411,1,0,0,response1disk,1.8532,-2.399939764,0.799993575,1,0,0,rectangle,-2.399939764,0.799993575,1,0,0,-4,-4,"[45,47,118,47,133,35,25,69,70,38]",-2.399939764,0.799993575,1,0,0,0,54,54,18,1,LightGreen,LightGreen.jpg,DarkGreen,DarkGreen.jpg,,
,,,,,,,,,,,,,,,,,,-4,,,,,,,,,,,,,,,,,,,,,,,,,,,,,,617282cc1f75d7414cdb74d8,001,2021-12-16_23h06.22.450,jm_natural_scene_simialrity_2-12-2021_version2,2021.2.3,Win32,59.9880024,617282cc1f75d7414cdb74d8,61bbc5c79a1c66460f44041e,61bbc611dc64863bfc6bf38d,,,-30.39994018,44.79999423,1,0,0,response7disk,1.8499,-3.199988604,7.999993682,1,0,0,rectangle,-3.199988604,7.999993682,1,0,0,-4,2,"[45,47,118,47,133,35,25,69,70,38]",-3.199988604,7.999993682,1,0,0,0,55,55,3,1,Red,Red.jpg,DarkGreen,DarkGreen.jpg,,
,,,,,,,,,,,,,,,,,,-2,,,,,,,,,,,,,,,,,,,,,,,,,,,,,,617282cc1f75d7414cdb74d8,001,2021-12-16_23h06.22.450,jm_natural_scene_simialrity_2-12-2021_version2,2021.2.3,Win32,59.9880024,617282cc1f75d7414cdb74d8,61bbc5c79a1c66460f44041e,61bbc611dc64863bfc6bf38d,,,-56.7999894,-19.20000672,1,0,0,response5disk,3.6329,-4.799988627,7.999993682,1,0,0,rectangle,-4.799988627,7.999993682,1,0,0,-4,2,"[45,47,118,47,133,35,25,69,70,38]",-4.799988627,7.999993682,1,0,0,0,56,56,25,1,DarkGreen,DarkGreen.jpg,Turquiose,Turquiose.jpg,,
,,,,,,,,,,,,,,,,,,4,,,,,,,,,,,,,,,,,,,,,,,,,,,,,,617282cc1f75d7414cdb74d8,001,2021-12-16_23h06.22.450,jm_natural_scene_simialrity_2-12-2021_version2,2021.2.3,Win32,59.9880024,617282cc1f75d7414cdb74d8,61bbc5c79a1c66460f44041e,61bbc611dc64863bfc6bf38d,,,40.80001205,71.99999464,1,0,0,response1disk,1.3503,-1.59998858,6.399993658,1,0,0,rectangle,-1.59998858,6.399993658,1,0,0,-4,1,"[45,47,118,47,133,35,25,69,70,38]",-1.59998858,6.399993658,1,0,0,0,57,57,39,1,DarkBlue,DarkBlue.jpg,DarkBlue,DarkBlue.jpg,,
,,,,,,,,,,,,,,,,,,3,,,,,,,,,,,,,,,,,,,,,,,,,,,,,,617282cc1f75d7414cdb74d8,001,2021-12-16_23h06.22.450,jm_natural_scene_simialrity_2-12-2021_version2,2021.2.3,Win32,59.9880024,617282cc1f75d7414cdb74d8,61bbc5c79a1c66460f44041e,61bbc611dc64863bfc6bf38d,,,85.60001272,43.19996979,1,0,0,response1disk,1.3335,5.600060356,-1.600006461,1,0,0,rectangle,5.600060356,-1.600006461,1,0,0,-4,-1,"[45,47,118,47,133,35,25,69,70,38]",5.600060356,-1.600006461,1,0,0,0,58,58,7,1,Red,Red.jpg,Pink,Pink.jpg,,
,,,,,,,,,,,,,,,,,,-4,,,,,,,,,,,,,,,,,,,,,,,,,,,,,,617282cc1f75d7414cdb74d8,001,2021-12-16_23h06.22.450,jm_natural_scene_simialrity_2-12-2021_version2,2021.2.3,Win32,59.9880024,617282cc1f75d7414cdb74d8,61bbc5c79a1c66460f44041e,61bbc611dc64863bfc6bf38d,,,-52.79998934,68.79999459,1,0,0,response7disk,2.2163,-17.59998882,9.599993706,1,0,0,rectangle,-17.59998882,9.599993706,1,0,0,-4,-4,"[45,47,118,47,133,35,25,69,70,38]",-17.59998882,9.599993706,1,0,0,0,59,59,49,1,LightBlue,LightBlue.jpg,Red,Red.jpg,,
,,,,,,,,,,,,,,,,,,-3,,,,,,,,,,,,,,,,,,,,,,,,,,,,,,617282cc1f75d7414cdb74d8,001,2021-12-16_23h06.22.450,jm_natural_scene_simialrity_2-12-2021_version2,2021.2.3,Win32,59.9880024,617282cc1f75d7414cdb74d8,61bbc5c79a1c66460f44041e,61bbc611dc64863bfc6bf38d,,,-43.1999892,35.9999941,1,0,0,response7disk,2.3331,-16.79998881,14.39999378,1,0,0,rectangle,-16.79998881,14.39999378,1,0,0,-4,2,"[45,47,118,47,133,35,25,69,70,38]",-16.79998881,14.39999378,1,0,0,0,60,60,6,1,Red,Red.jpg,DarkBlue,DarkBlue.jpg,,
,,,,,,,,,,,,,,,,,,-4,,,,,,,,,,,,,,,,,,,,,,,,,,,,,,617282cc1f75d7414cdb74d8,001,2021-12-16_23h06.22.450,jm_natural_scene_simialrity_2-12-2021_version2,2021.2.3,Win32,59.9880024,617282cc1f75d7414cdb74d8,61bbc5c79a1c66460f44041e,61bbc611dc64863bfc6bf38d,,,-31.99998903,87.19997045,1,0,0,response7disk,1.3842,-14.39993994,19.99999386,1,0,0,rectangle,-14.39993994,19.99999386,1,0,0,-4,3,"[45,47,118,47,133,35,25,69,70,38]",-14.39993994,19.99999386,1,0,0,0,61,61,53,1,LightGreen,LightGreen.jpg,Yellow,Yellow.jpg,,
,,,,,,,,,,,,,,,,,,-3,,,,,,,,,,,,,,,,,,,,,,,,,,,,,,617282cc1f75d7414cdb74d8,001,2021-12-16_23h06.22.450,jm_natural_scene_simialrity_2-12-2021_version2,2021.2.3,Win32,59.9880024,617282cc1f75d7414cdb74d8,61bbc5c79a1c66460f44041e,61bbc611dc64863bfc6bf38d,,,-48.79998928,24.79999393,1,0,0,response7disk,3.7163,-18.39994,15.9999938,1,0,0,rectangle,-18.39994,15.9999938,1,0,0,-4,-3,"[45,47,118,47,133,35,25,69,70,38]",-18.39994,15.9999938,1,0,0,0,62,62,62,1,LightBlue,LightBlue.jpg,LightGreen,LightGreen.jpg,,
,,,,,,,,,,,,,,,,,,2,,,,,,,,,,,,,,,,,,,,,,,,,,,,,,617282cc1f75d7414cdb74d8,001,2021-12-16_23h06.22.450,jm_natural_scene_simialrity_2-12-2021_version2,2021.2.3,Win32,59.9880024,617282cc1f75d7414cdb74d8,61bbc5c79a1c66460f44041e,61bbc611dc64863bfc6bf38d,,,84.80001271,-27.20000684,1,0,0,response3disk,3.5695,13.60006047,-8.000006557,1,0,0,rectangle,13.60006047,-8.000006557,1,0,0,-4,-3,"[45,47,118,47,133,35,25,69,70,38]",13.60006047,-8.000006557,1,0,0,0,63,63,72,1,DarkBlue,DarkBlue.jpg,Turquiose,Turquiose.jpg,,
,,,,,,,,,,,,,,,,,,-3,,,,,,,,,,,,,,,,,,,,,,,,,,,,,,617282cc1f75d7414cdb74d8,001,2021-12-16_23h06.22.450,jm_natural_scene_simialrity_2-12-2021_version2,2021.2.3,Win32,59.9880024,617282cc1f75d7414cdb74d8,61bbc5c79a1c66460f44041e,61bbc611dc64863bfc6bf38d,,,-61.59998947,35.19996967,1,0,0,response7disk,2.2131,-15.19998878,7.19999367,1,0,0,rectangle,-15.19998878,7.19999367,1,0,0,-4,-2,"[45,47,118,47,133,35,25,69,70,38]",-15.19998878,7.19999367,1,0,0,0,64,64,67,1,LightBlue,LightBlue.jpg,DarkGreen,DarkGreen.jpg,,
,,,,,,,,,,,,,,,,,,4,,,,,,,,,,,,,,,,,,,,,,,,,,,,,,617282cc1f75d7414cdb74d8,001,2021-12-16_23h06.22.450,jm_natural_scene_simialrity_2-12-2021_version2,2021.2.3,Win32,59.9880024,617282cc1f75d7414cdb74d8,61bbc5c79a1c66460f44041e,61bbc611dc64863bfc6bf38d,,,41.60006089,63.99999452,1,0,0,response1disk,1.1499,10.4000116,5.599993646,1,0,0,rectangle,10.4000116,5.599993646,1,0,0,-4,-4,"[45,47,118,47,133,35,25,69,70,38]",10.4000116,5.599993646,1,0,0,0,65,65,9,1,Yellow,Yellow.jpg,Yellow,Yellow.jpg,,
,,,,,,,,,,,,,,,,,,-2,,,,,,,,,,,,,,,,,,,,,,,,,,,,,,617282cc1f75d7414cdb74d8,001,2021-12-16_23h06.22.450,jm_natural_scene_simialrity_2-12-2021_version2,2021.2.3,Win32,59.9880024,617282cc1f75d7414cdb74d8,61bbc5c79a1c66460f44041e,61bbc611dc64863bfc6bf38d,,,-49.5999893,-29.60000688,1,0,0,response5disk,2.9162,-8.799988687,4.799993634,1,0,0,rectangle,-8.799988687,4.799993634,1,0,0,-4,2,"[45,47,118,47,133,35,25,69,70,38]",-8.799988687,4.799993634,1,0,0,0,66,66,68,1,DarkBlue,DarkBlue.jpg,DarkGreen,DarkGreen.jpg,,
,,,,,,,,,,,,,,,,,,-3,,,,,,,,,,,,,,,,,,,,,,,,,,,,,,617282cc1f75d7414cdb74d8,001,2021-12-16_23h06.22.450,jm_natural_scene_simialrity_2-12-2021_version2,2021.2.3,Win32,59.9880024,617282cc1f75d7414cdb74d8,61bbc5c79a1c66460f44041e,61bbc611dc64863bfc6bf38d,,,-50.39994048,33.59999406,1,0,0,response7disk,4.766,-18.39994,10.39999372,1,0,0,rectangle,-18.39994,10.39999372,1,0,0,-4,3,"[45,47,118,47,133,35,25,69,70,38]",-18.39994,10.39999372,1,0,0,0,67,67,65,1,Purple,Purple.jpg,LightGreen,LightGreen.jpg,,
,,,,,,,,,,,,,,,,,,3,,,,,,,,,,,,,,,,,,,,,,,,,,,,,,617282cc1f75d7414cdb74d8,001,2021-12-16_23h06.22.450,jm_natural_scene_simialrity_2-12-2021_version2,2021.2.3,Win32,59.9880024,617282cc1f75d7414cdb74d8,61bbc5c79a1c66460f44041e,61bbc611dc64863bfc6bf38d,,,102.400013,50.39999431,1,0,0,response1disk,3.5862,7.200011551,24.79999393,1,0,0,rectangle,45.60006095,-94.40000784,1,0,0,1,1,"[45,47,118,47,133,35,25,69,70,38]",4.800011516,-4.000006497,1,0,0,0,68,68,79,1,Purple,Purple.jpg,DarkBlue,DarkBlue.jpg,response3disk_3,rectangle
,,,,,,,,,,,,,,,,,,-4,,,,,,,,,,,,,,,,,,,,,,,,,,,,,,617282cc1f75d7414cdb74d8,001,2021-12-16_23h06.22.450,jm_natural_scene_simialrity_2-12-2021_version2,2021.2.3,Win32,59.9880024,617282cc1f75d7414cdb74d8,61bbc5c79a1c66460f44041e,61bbc611dc64863bfc6bf38d,,,-44.79998922,96.79999501,1,0,0,response7disk,2.5976,-19.19998884,12.79999375,1,0,0,rectangle,-43.1999892,127.199971,1,0,0,-4,-4,"[45,47,118,47,133,35,25,69,70,38]",3.200011492,15.9999938,1,0,0,0,69,69,46,1,LightGreen,LightGreen.jpg,Red,Red.jpg,response7disk_3,rectangle
,,,,,,,,,,,,,,,,,,4,,,,,,,,,,,,,,,,,,,,,,,,,,,,,,617282cc1f75d7414cdb74d8,001,2021-12-16_23h06.22.450,jm_natural_scene_simialrity_2-12-2021_version2,2021.2.3,Win32,59.9880024,617282cc1f75d7414cdb74d8,61bbc5c79a1c66460f44041e,61bbc611dc64863bfc6bf38d,,,44.80001211,111.1999708,1,0,0,response1disk,1.6164,4.000011504,9.599993706,1,0,0,rectangle,4.000011504,9.599993706,1,0,0,-4,2,"[45,47,118,47,133,35,25,69,70,38]",4.000011504,9.599993706,1,0,0,0,70,70,30,1,Turquiose,Turquiose.jpg,Turquiose,Turquiose.jpg,,
,,,,,,,,,,,,,,,,,,-3,,,,,,,,,,,,,,,,,,,,,,,,,,,,,,617282cc1f75d7414cdb74d8,001,2021-12-16_23h06.22.450,jm_natural_scene_simialrity_2-12-2021_version2,2021.2.3,Win32,59.9880024,617282cc1f75d7414cdb74d8,61bbc5c79a1c66460f44041e,61bbc611dc64863bfc6bf38d,,,-38.3999403,22.3999939,1,0,0,response7disk,1.7334,-18.39994,10.39999372,1,0,0,rectangle,-18.39994,10.39999372,1,0,0,-4,-2,"[45,47,118,47,133,35,25,69,70,38]",-18.39994,10.39999372,1,0,0,0,71,71,20,1,LightGreen,LightGreen.jpg,LightBlue,LightBlue.jpg,,
,,,,,,,,,,,,,,,,,,-2,,,,,,,,,,,,,,,,,,,,,,,,,,,,,,617282cc1f75d7414cdb74d8,001,2021-12-16_23h06.22.450,jm_natural_scene_simialrity_2-12-2021_version2,2021.2.3,Win32,59.9880024,617282cc1f75d7414cdb74d8,61bbc5c79a1c66460f44041e,61bbc611dc64863bfc6bf38d,,,-51.99998933,-37.600007,1,0,0,response5disk,2.2666,5.600060356,-7.200006545,1,0,0,rectangle,5.600060356,-7.200006545,1,0,0,-4,-3,"[45,47,118,47,133,35,25,69,70,38]",5.600060356,-7.200006545,1,0,0,0,72,72,50,1,DarkBlue,DarkBlue.jpg,Red,Red.jpg,,
,,,,,,,,,,,,,,,,,,3,,,,,,,,,,,,,,,,,,,,,,,,,,,,,,617282cc1f75d7414cdb74d8,001,2021-12-16_23h06.22.450,jm_natural_scene_simialrity_2-12-2021_version2,2021.2.3,Win32,59.9880024,617282cc1f75d7414cdb74d8,61bbc5c79a1c66460f44041e,61bbc611dc64863bfc6bf38d,,,60.80001235,37.59999412,1,0,0,response1disk,1.6497,-14.39993994,5.599993646,1,0,0,rectangle,-14.39993994,5.599993646,1,0,0,-4,-4,"[45,47,118,47,133,35,25,69,70,38]",-14.39993994,5.599993646,1,0,0,0,73,73,45,1,Yellow,Yellow.jpg,Red,Red.jpg,,
,,,,,,,,,,,,,,,,,,-4,,,,,,,,,,,,,,,,,,,,,,,,,,,,,,617282cc1f75d7414cdb74d8,001,2021-12-16_23h06.22.450,jm_natural_scene_simialrity_2-12-2021_version2,2021.2.3,Win32,59.9880024,617282cc1f75d7414cdb74d8,61bbc5c79a1c66460f44041e,61bbc611dc64863bfc6bf38d,,,-28.79998899,58.39999443,1,0,0,response7disk,2.6364,-21.59998888,1.599993587,1,0,0,rectangle,-21.59998888,1.599993587,1,0,0,-4,-1,"[45,47,118,47,133,35,25,69,70,38]",-21.59998888,1.599993587,1,0,0,0,74,74,48,1,Turquiose,Turquiose.jpg,Red,Red.jpg,,
,,,,,,,,,,,,,,,,,,-3,,,,,,,,,,,,,,,,,,,,,,,,,,,,,,617282cc1f75d7414cdb74d8,001,2021-12-16_23h06.22.450,jm_natural_scene_simialrity_2-12-2021_version2,2021.2.3,Win32,59.9880024,617282cc1f75d7414cdb74d8,61bbc5c79a1c66460f44041e,61bbc611dc64863bfc6bf38d,,,-47.99998927,23.99999392,1,0,0,response7disk,3.5332,9.600060415,14.39999378,1,0,0,rectangle,9.600060415,14.39999378,1,0,0,-4,-2,"[45,47,118,47,133,35,25,69,70,38]",9.600060415,14.39999378,1,0,0,0,75,75,78,1,Pink,Pink.jpg,DarkBlue,DarkBlue.jpg,,
,,,,,,,,,,,,,,,,,,-4,,,,,,,,,,,,,,,,,,,,,,,,,,,,,,617282cc1f75d7414cdb74d8,001,2021-12-16_23h06.22.450,jm_natural_scene_simialrity_2-12-2021_version2,2021.2.3,Win32,59.9880024,617282cc1f75d7414cdb74d8,61bbc5c79a1c66460f44041e,61bbc611dc64863bfc6bf38d,,,-25.59998894,47.99999428,1,0,0,response7disk,1.4167,-14.39993994,-2.400006473,1,0,0,rectangle,-14.39993994,-2.400006473,1,0,0,-4,-2,"[45,47,118,47,133,35,25,69,70,38]",-14.39993994,-2.400006473,1,0,0,0,76,76,13,1,Yellow,Yellow.jpg,LightBlue,LightBlue.jpg,,
,,,,,,,,,,,,,,,,,,-4,,,,,,,,,,,,,,,,,,,,,,,,,,,,,,617282cc1f75d7414cdb74d8,001,2021-12-16_23h06.22.450,jm_natural_scene_simialrity_2-12-2021_version2,2021.2.3,Win32,59.9880024,617282cc1f75d7414cdb74d8,61bbc5c79a1c66460f44041e,61bbc611dc64863bfc6bf38d,,,-40.79998916,51.99999434,1,0,0,response7disk,2.8164,-13.59998876,-3.200006485,1,0,0,rectangle,-13.59998876,-3.200006485,1,0,0,-4,-1,"[45,47,118,47,133,35,25,69,70,38]",-13.59998876,-3.200006485,1,0,0,0,77,77,47,1,DarkGreen,DarkGreen.jpg,Red,Red.jpg,,
,,,,,,,,,,,,,,,,,,2,,,,,,,,,,,,,,,,,,,,,,,,,,,,,,617282cc1f75d7414cdb74d8,001,2021-12-16_23h06.22.450,jm_natural_scene_simialrity_2-12-2021_version2,2021.2.3,Win32,59.9880024,617282cc1f75d7414cdb74d8,61bbc5c79a1c66460f44041e,61bbc611dc64863bfc6bf38d,,,46.40001214,-24.00000679,1,0,0,response3disk,1.8,-5.599988639,1.599993587,1,0,0,rectangle,-5.599988639,1.599993587,1,0,0,-4,-2,"[45,47,118,47,133,35,25,69,70,38]",-5.599988639,1.599993587,1,0,0,0,78,78,41,1,DarkBlue,DarkBlue.jpg,Purple,Purple.jpg,,
,,,,,,,,,,,,,,,,,,4,,,,,,,,,,,,,,,,,,,,,,,,,,,,,,617282cc1f75d7414cdb74d8,001,2021-12-16_23h06.22.450,jm_natural_scene_simialrity_2-12-2021_version2,2021.2.3,Win32,59.9880024,617282cc1f75d7414cdb74d8,61bbc5c79a1c66460f44041e,61bbc611dc64863bfc6bf38d,,,48.80001217,82.39999479,1,0,0,response1disk,1.1668,4.800011516,4.799993634,1,0,0,rectangle,4.800011516,4.799993634,1,0,0,-4,-4,"[45,47,118,47,133,35,25,69,70,38]",4.800011516,4.799993634,1,0,0,0,79,79,17,1,LightGreen,LightGreen.jpg,LightGreen,LightGreen.jpg,,
,,,,,,,,,,,,,,,,,,-3,,,,,,,,,,,,,,,,,,,,,,,,,,,,,,617282cc1f75d7414cdb74d8,001,2021-12-16_23h06.22.450,jm_natural_scene_simialrity_2-12-2021_version2,2021.2.3,Win32,59.9880024,617282cc1f75d7414cdb74d8,61bbc5c79a1c66460f44041e,61bbc611dc64863bfc6bf38d,,,-69.59998959,31.19996961,1,0,0,response7disk,2.6165,10.4000116,1.599993587,1,0,0,rectangle,10.4000116,1.599993587,1,0,0,-4,-1,"[45,47,118,47,133,35,25,69,70,38]",10.4000116,1.599993587,1,0,0,0,80,80,14,1,Yellow,Yellow.jpg,DarkBlue,DarkBlue.jpg,,
,,,,,,,,,,,,,,,,,,4,,,,,,,,,,,,,,,,,,,,,,,,,,,,,,617282cc1f75d7414cdb74d8,001,2021-12-16_23h06.22.450,jm_natural_scene_simialrity_2-12-2021_version2,2021.2.3,Win32,59.9880024,617282cc1f75d7414cdb74d8,61bbc5c79a1c66460f44041e,61bbc611dc64863bfc6bf38d,,,36.80001199,77.59999472,1,0,0,response1disk,1.0333,-16.79998881,-0.800006449,1,0,0,rectangle,-16.79998881,-0.800006449,1,0,0,-4,2,"[45,47,118,47,133,35,25,69,70,38]",-16.79998881,-0.800006449,1,0,0,1,0,81,44,1,Purple,Purple.jpg,Purple,Purple.jpg,,
,,,,,,,,,,,,,,,,,,-4,,,,,,,,,,,,,,,,,,,,,,,,,,,,,,617282cc1f75d7414cdb74d8,001,2021-12-16_23h06.22.450,jm_natural_scene_simialrity_2-12-2021_version2,2021.2.3,Win32,59.9880024,617282cc1f75d7414cdb74d8,61bbc5c79a1c66460f44041e,61bbc611dc64863bfc6bf38d,,,-31.19998902,40.79999417,1,0,0,response7disk,2.8674,-17.59998882,0.799993575,1,0,0,rectangle,-17.59998882,0.799993575,1,0,0,-4,1,"[45,47,118,47,133,35,25,69,70,38]",-17.59998882,0.799993575,1,0,0,1,1,82,55,1,Turquiose,Turquiose.jpg,Yellow,Yellow.jpg,,
,,,,,,,,,,,,,,,,,,-4,,,,,,,,,,,,,,,,,,,,,,,,,,,,,,617282cc1f75d7414cdb74d8,001,2021-12-16_23h06.22.450,jm_natural_scene_simialrity_2-12-2021_version2,2021.2.3,Win32,59.9880024,617282cc1f75d7414cdb74d8,61bbc5c79a1c66460f44041e,61bbc611dc64863bfc6bf38d,,,-23.1999889,34.39999408,1,0,0,response7disk,2.786,-19.99998885,5.599993646,1,0,0,rectangle,-19.99998885,5.599993646,1,0,0,-4,1,"[45,47,118,47,133,35,25,69,70,38]",-19.99998885,5.599993646,1,0,0,1,2,83,12,1,Yellow,Yellow.jpg,Turquiose,Turquiose.jpg,,
,,,,,,,,,,,,,,,,,,-3,,,,,,,,,,,,,,,,,,,,,,,,,,,,,,617282cc1f75d7414cdb74d8,001,2021-12-16_23h06.22.450,jm_natural_scene_simialrity_2-12-2021_version2,2021.2.3,Win32,59.9880024,617282cc1f75d7414cdb74d8,61bbc5c79a1c66460f44041e,61bbc611dc64863bfc6bf38d,,,-50.39994048,22.3999939,1,0,0,response7disk,2.3999,-11.19998872,11.99999374,1,0,0,rectangle,-11.19998872,11.99999374,1,0,0,-4,3,"[45,47,118,47,133,35,25,69,70,38]",-11.19998872,11.99999374,1,0,0,1,3,84,20,1,LightGreen,LightGreen.jpg,LightBlue,LightBlue.jpg,,
,,,,,,,,,,,,,,,,,,-4,,,,,,,,,,,,,,,,,,,,,,,,,,,,,,617282cc1f75d7414cdb74d8,001,2021-12-16_23h06.22.450,jm_natural_scene_simialrity_2-12-2021_version2,2021.2.3,Win32,59.9880024,617282cc1f75d7414cdb74d8,61bbc5c79a1c66460f44041e,61bbc611dc64863bfc6bf38d,,,-28.79998899,37.59999412,1,0,0,response7disk,1.9333,-13.59998876,-0.800006449,1,0,0,rectangle,-13.59998876,-0.800006449,1,0,0,-4,2,"[45,47,118,47,133,35,25,69,70,38]",-13.59998876,-0.800006449,1,0,0,1,4,85,21,1,LightGreen,LightGreen.jpg,DarkBlue,DarkBlue.jpg,,
,,,,,,,,,,,,,,,,,,-4,,,,,,,,,,,,,,,,,,,,,,,,,,,,,,617282cc1f75d7414cdb74d8,001,2021-12-16_23h06.22.450,jm_natural_scene_simialrity_2-12-2021_version2,2021.2.3,Win32,59.9880024,617282cc1f75d7414cdb74d8,61bbc5c79a1c66460f44041e,61bbc611dc64863bfc6bf38d,,,-25.59998894,43.19996979,1,0,0,response7disk,2.7496,-20.79998887,8.799993694,1,0,0,rectangle,-20.79998887,8.799993694,1,0,0,-4,3,"[45,47,118,47,133,35,25,69,70,38]",-20.79998887,8.799993694,1,0,0,1,5,86,5,1,Red,Red.jpg,LightBlue,LightBlue.jpg,,
,,,,,,,,,,,,,,,,,,-3,,,,,,,,,,,,,,,,,,,,,,,,,,,,,,617282cc1f75d7414cdb74d8,001,2021-12-16_23h06.22.450,jm_natural_scene_simialrity_2-12-2021_version2,2021.2.3,Win32,59.9880024,617282cc1f75d7414cdb74d8,61bbc5c79a1c66460f44041e,61bbc611dc64863bfc6bf38d,,,-37.59998912,20.79999387,1,0,0,response7disk,2.1664,-7.999988675,11.99999374,1,0,0,rectangle,-7.999988675,11.99999374,1,0,0,-4,1,"[45,47,118,47,133,35,25,69,70,38]",-7.999988675,11.99999374,1,0,0,1,6,87,19,1,LightGreen,LightGreen.jpg,Turquiose,Turquiose.jpg,,
,,,,,,,,,,,,,,,,,,-2,,,,,,,,,,,,,,,,,,,,,,,,,,,,,,617282cc1f75d7414cdb74d8,001,2021-12-16_23h06.22.450,jm_natural_scene_simialrity_2-12-2021_version2,2021.2.3,Win32,59.9880024,617282cc1f75d7414cdb74d8,61bbc5c79a1c66460f44041e,61bbc611dc64863bfc6bf38d,,,-54.39994054,-23.20000678,1,0,0,response5disk,2.5315,1.600060296,6.399993658,1,0,0,rectangle,1.600060296,6.399993658,1,0,0,-4,-2,"[45,47,118,47,133,35,25,69,70,38]",1.600060296,6.399993658,1,0,0,1,7,88,43,1,Pink,Pink.jpg,Purple,Purple.jpg,,
,,,,,,,,,,,,,,,,,,-4,,,,,,,,,,,,,,,,,,,,,,,,,,,,,,617282cc1f75d7414cdb74d8,001,2021-12-16_23h06.22.450,jm_natural_scene_simialrity_2-12-2021_version2,2021.2.3,Win32,59.9880024,617282cc1f75d7414cdb74d8,61bbc5c79a1c66460f44041e,61bbc611dc64863bfc6bf38d,,,-21.59998888,50.39999431,1,0,0,response7disk,1.5499,-7.999988675,11.19999373,1,0,0,rectangle,-7.999988675,11.19999373,1,0,0,-4,2,"[45,47,118,47,133,35,25,69,70,38]",-7.999988675,11.19999373,1,0,0,1,8,89,47,1,DarkGreen,DarkGreen.jpg,Red,Red.jpg,,
,,,,,,,,,,,,,,,,,,-4,,,,,,,,,,,,,,,,,,,,,,,,,,,,,,617282cc1f75d7414cdb74d8,001,2021-12-16_23h06.22.450,jm_natural_scene_simialrity_2-12-2021_version2,2021.2.3,Win32,59.9880024,617282cc1f75d7414cdb74d8,61bbc5c79a1c66460f44041e,61bbc611dc64863bfc6bf38d,,,-23.99998891,37.59999412,1,0,0,response7disk,2.0029,-15.19998878,1.599993587,1,0,0,rectangle,-15.19998878,1.599993587,1,0,0,-4,-3,"[45,47,118,47,133,35,25,69,70,38]",-15.19998878,1.599993587,1,0,0,1,9,90,26,1,DarkGreen,DarkGreen.jpg,LightBlue,LightBlue.jpg,,
,,,,,,,,,,,,,,,,,,3,,,,,,,,,,,,,,,,,,,,,,,,,,,,,,617282cc1f75d7414cdb74d8,001,2021-12-16_23h06.22.450,jm_natural_scene_simialrity_2-12-2021_version2,2021.2.3,Win32,59.9880024,617282cc1f75d7414cdb74d8,61bbc5c79a1c66460f44041e,61bbc611dc64863bfc6bf38d,,,74.40001255,26.39999396,1,0,0,response1disk,2.1331,1.600060296,10.39999372,1,0,0,rectangle,1.600060296,10.39999372,1,0,0,-4,-4,"[45,47,118,47,133,35,25,69,70,38]",1.600060296,10.39999372,1,0,0,1,10,91,38,1,LightBlue,LightBlue.jpg,Purple,Purple.jpg,,
,,,,,,,,,,,,,,,,,,-4,,,,,,,,,,,,,,,,,,,,,,,,,,,,,,617282cc1f75d7414cdb74d8,001,2021-12-16_23h06.22.450,jm_natural_scene_simialrity_2-12-2021_version2,2021.2.3,Win32,59.9880024,617282cc1f75d7414cdb74d8,61bbc5c79a1c66460f44041e,61bbc611dc64863bfc6bf38d,,,-31.19998902,55.19996997,1,0,0,response7disk,1.4811,-18.39994,22.3999939,1,0,0,rectangle,-18.39994,22.3999939,1,0,0,-4,-3,"[45,47,118,47,133,35,25,69,70,38]",-18.39994,22.3999939,1,0,0,1,11,92,76,1,Pink,Pink.jpg,LightBlue,LightBlue.jpg,,
,,,,,,,,,,,,,,,,,,-3,,,,,,,,,,,,,,,,,,,,,,,,,,,,,,617282cc1f75d7414cdb74d8,001,2021-12-16_23h06.22.450,jm_natural_scene_simialrity_2-12-2021_version2,2021.2.3,Win32,59.9880024,617282cc1f75d7414cdb74d8,61bbc5c79a1c66460f44041e,61bbc611dc64863bfc6bf38d,,,-41.59998918,24.79999393,1,0,0,response7disk,3.1998,-19.19998884,6.399993658,1,0,0,rectangle,-19.19998884,6.399993658,1,0,0,-4,2,"[45,47,118,47,133,35,25,69,70,38]",-19.19998884,6.399993658,1,0,0,1,12,93,70,1,Purple,Purple.jpg,DarkGreen,DarkGreen.jpg,,
,,,,,,,,,,,,,,,,,,-4,,,,,,,,,,,,,,,,,,,,,,,,,,,,,,617282cc1f75d7414cdb74d8,001,2021-12-16_23h06.22.450,jm_natural_scene_simialrity_2-12-2021_version2,2021.2.3,Win32,59.9880024,617282cc1f75d7414cdb74d8,61bbc5c79a1c66460f44041e,61bbc611dc64863bfc6bf38d,,,-22.39994006,31.19996961,1,0,0,response7disk,2.2998,-15.99998879,19.19999385,1,0,0,rectangle,-15.99998879,19.19999385,1,0,0,-4,-1,"[45,47,118,47,133,35,25,69,70,38]",-15.99998879,19.19999385,1,0,0,1,13,94,4,1,Red,Red.jpg,Turquiose,Turquiose.jpg,,
,,,,,,,,,,,,,,,,,,3,,,,,,,,,,,,,,,,,,,,,,,,,,,,,,617282cc1f75d7414cdb74d8,001,2021-12-16_23h06.22.450,jm_natural_scene_simialrity_2-12-2021_version2,2021.2.3,Win32,59.9880024,617282cc1f75d7414cdb74d8,61bbc5c79a1c66460f44041e,61bbc611dc64863bfc6bf38d,,,67.20001245,51.19996991,1,0,0,response1disk,1.8666,1.600060296,11.19999373,1,0,0,rectangle,1.600060296,11.19999373,1,0,0,-4,-2,"[45,47,118,47,133,35,25,69,70,38]",1.600060296,11.19999373,1,0,0,1,14,95,1,1,Red,Red.jpg,Yellow,Yellow.jpg,,
,,,,,,,,,,,,,,,,,,1,,,,,,,,,,,,,,,,,,,,,,,,,,,,,,617282cc1f75d7414cdb74d8,001,2021-12-16_23h06.22.450,jm_natural_scene_simialrity_2-12-2021_version2,2021.2.3,Win32,59.9880024,617282cc1f75d7414cdb74d8,61bbc5c79a1c66460f44041e,61bbc611dc64863bfc6bf38d,,,42.40001208,-52.00000721,1,0,0,response3disk,2.4328,5.600060356,-13.60000664,1,0,0,rectangle,5.600060356,-13.60000664,1,0,0,-4,-4,"[45,47,118,47,133,35,25,69,70,38]",5.600060356,-13.60000664,1,0,0,1,15,96,41,1,DarkBlue,DarkBlue.jpg,Purple,Purple.jpg,,
,,,,,,,,,,,,,,,,,,4,,,,,,,,,,,,,,,,,,,,,,,,,,,,,,617282cc1f75d7414cdb74d8,001,2021-12-16_23h06.22.450,jm_natural_scene_simialrity_2-12-2021_version2,2021.2.3,Win32,59.9880024,617282cc1f75d7414cdb74d8,61bbc5c79a1c66460f44041e,61bbc611dc64863bfc6bf38d,,,30.4000119,72.79999465,1,0,0,response1disk,1.1668,1.600060296,6.399993658,1,0,0,rectangle,1.600060296,6.399993658,1,0,0,-4,1,"[45,47,118,47,133,35,25,69,70,38]",1.600060296,6.399993658,1,0,0,1,16,97,39,1,DarkBlue,DarkBlue.jpg,DarkBlue,DarkBlue.jpg,,
,,,,,,,,,,,,,,,,,,-4,,,,,,,,,,,,,,,,,,,,,,,,,,,,,,617282cc1f75d7414cdb74d8,001,2021-12-16_23h06.22.450,jm_natural_scene_simialrity_2-12-2021_version2,2021.2.3,Win32,59.9880024,617282cc1f75d7414cdb74d8,61bbc5c79a1c66460f44041e,61bbc611dc64863bfc6bf38d,,,-39.99998915,55.19996997,1,0,0,response7disk,3.6494,2.40001148,-5.600006521,1,0,0,rectangle,2.40001148,-5.600006521,1,0,0,-4,-1,"[45,47,118,47,133,35,25,69,70,38]",2.40001148,-5.600006521,1,0,0,1,17,98,53,1,LightGreen,LightGreen.jpg,Yellow,Yellow.jpg,,
,,,,,,,,,,,,,,,,,,-1,,,,,,,,,,,,,,,,,,,,,,,,,,,,,,617282cc1f75d7414cdb74d8,001,2021-12-16_23h06.22.450,jm_natural_scene_simialrity_2-12-2021_version2,2021.2.3,Win32,59.9880024,617282cc1f75d7414cdb74d8,61bbc5c79a1c66460f44041e,61bbc611dc64863bfc6bf38d,,,-35.19998908,-43.20000708,1,0,0,response5disk,2.3166,1.600060296,-1.600006461,1,0,0,rectangle,1.600060296,-1.600006461,1,0,0,-4,1,"[45,47,118,47,133,35,25,69,70,38]",1.600060296,-1.600006461,1,0,0,1,18,99,74,1,Purple,Purple.jpg,Turquiose,Turquiose.jpg,,
,,,,,,,,,,,,,,,,,,-4,,,,,,,,,,,,,,,,,,,,,,,,,,,,,,617282cc1f75d7414cdb74d8,001,2021-12-16_23h06.22.450,jm_natural_scene_simialrity_2-12-2021_version2,2021.2.3,Win32,59.9880024,617282cc1f75d7414cdb74d8,61bbc5c79a1c66460f44041e,61bbc611dc64863bfc6bf38d,,,-19.19998884,29.599994,1,0,0,response7disk,2.2001,-7.999988675,3.999993622,1,0,0,rectangle,-7.999988675,3.999993622,1,0,0,-4,2,"[45,47,118,47,133,35,25,69,70,38]",-7.999988675,3.999993622,1,0,0,1,19,100,49,1,LightBlue,LightBlue.jpg,Red,Red.jpg,,
,,,,,,,,,,,,,,,,,,3,,,,,,,,,,,,,,,,,,,,,,,,,,,,,,617282cc1f75d7414cdb74d8,001,2021-12-16_23h06.22.450,jm_natural_scene_simialrity_2-12-2021_version2,2021.2.3,Win32,59.9880024,617282cc1f75d7414cdb74d8,61bbc5c79a1c66460f44041e,61bbc611dc64863bfc6bf38d,,,84.0000127,33.59999406,1,0,0,response1disk,2.2497,19.20001173,4.799993634,1,0,0,rectangle,19.20001173,4.799993634,1,0,0,-4,2,"[45,47,118,47,133,35,25,69,70,38]",19.20001173,4.799993634,1,0,0,1,20,101,45,1,Yellow,Yellow.jpg,Red,Red.jpg,,
,,,,,,,,,,,,,,,,,,-4,,,,,,,,,,,,,,,,,,,,,,,,,,,,,,617282cc1f75d7414cdb74d8,001,2021-12-16_23h06.22.450,jm_natural_scene_simialrity_2-12-2021_version2,2021.2.3,Win32,59.9880024,617282cc1f75d7414cdb74d8,61bbc5c79a1c66460f44041e,61bbc611dc64863bfc6bf38d,,,-23.99998891,54.39999437,1,0,0,response7disk,1.9998,-11.19998872,14.39999378,1,0,0,rectangle,-11.19998872,14.39999378,1,0,0,-4,-3,"[45,47,118,47,133,35,25,69,70,38]",-11.19998872,14.39999378,1,0,0,1,21,102,56,1,LightBlue,LightBlue.jpg,Yellow,Yellow.jpg,,
,,,,,,,,,,,,,,,,,,4,,,,,,,,,,,,,,,,,,,,,,,,,,,,,,617282cc1f75d7414cdb74d8,001,2021-12-16_23h06.22.450,jm_natural_scene_simialrity_2-12-2021_version2,2021.2.3,Win32,59.9880024,617282cc1f75d7414cdb74d8,61bbc5c79a1c66460f44041e,61bbc611dc64863bfc6bf38d,,,56.00001228,97.59999502,1,0,0,response1disk,1.4003,8.000011563,13.59999377,1,0,0,rectangle,8.000011563,13.59999377,1,0,0,-4,-2,"[45,47,118,47,133,35,25,69,70,38]",8.000011563,13.59999377,1,0,0,1,22,103,42,1,Pink,Pink.jpg,Pink,Pink.jpg,,
,,,,,,,,,,,,,,,,,,-4,,,,,,,,,,,,,,,,,,,,,,,,,,,,,,617282cc1f75d7414cdb74d8,001,2021-12-16_23h06.22.450,jm_natural_scene_simialrity_2-12-2021_version2,2021.2.3,Win32,59.9880024,617282cc1f75d7414cdb74d8,61bbc5c79a1c66460f44041e,61bbc611dc64863bfc6bf38d,,,-42.39994036,55.19996997,1,0,0,response7disk,2.15,-14.39993994,14.39999378,1,0,0,rectangle,-14.39993994,14.39999378,1,0,0,-4,-4,"[45,47,118,47,133,35,25,69,70,38]",-14.39993994,14.39999378,1,0,0,1,23,104,13,1,Yellow,Yellow.jpg,LightBlue,LightBlue.jpg,,
,,,,,,,,,,,,,,,,,,4,,,,,,,,,,,,,,,,,,,,,,,,,,,,,,617282cc1f75d7414cdb74d8,001,2021-12-16_23h06.22.450,jm_natural_scene_simialrity_2-12-2021_version2,2021.2.3,Win32,59.9880024,617282cc1f75d7414cdb74d8,61bbc5c79a1c66460f44041e,61bbc611dc64863bfc6bf38d,,,36.80001199,71.99999464,1,0,0,response1disk,0.9833,20.00001174,-4.000006497,1,0,0,rectangle,20.00001174,-4.000006497,1,0,0,-4,-4,"[45,47,118,47,133,35,25,69,70,38]",20.00001174,-4.000006497,1,0,0,1,24,105,35,1,LightBlue,LightBlue.jpg,LightBlue,LightBlue.jpg,,
,,,,,,,,,,,,,,,,,,3,,,,,,,,,,,,,,,,,,,,,,,,,,,,,,617282cc1f75d7414cdb74d8,001,2021-12-16_23h06.22.450,jm_natural_scene_simialrity_2-12-2021_version2,2021.2.3,Win32,59.9880024,617282cc1f75d7414cdb74d8,61bbc5c79a1c66460f44041e,61bbc611dc64863bfc6bf38d,,,61.60001236,39.99999416,1,0,0,response1disk,3.1998,1.600060296,7.19999367,1,0,0,rectangle,1.600060296,7.19999367,1,0,0,-4,2,"[45,47,118,47,133,35,25,69,70,38]",1.600060296,7.19999367,1,0,0,1,25,106,18,1,LightGreen,LightGreen.jpg,DarkGreen,DarkGreen.jpg,,
,,,,,,,,,,,,,,,,,,1,,,,,,,,,,,,,,,,,,,,,,,,,,,,,,617282cc1f75d7414cdb74d8,001,2021-12-16_23h06.22.450,jm_natural_scene_simialrity_2-12-2021_version2,2021.2.3,Win32,59.9880024,617282cc1f75d7414cdb74d8,61bbc5c79a1c66460f44041e,61bbc611dc64863bfc6bf38d,,,27.20001185,-60.80000734,1,0,0,response3disk,2.5808,7.200011551,-11.2000066,1,0,0,rectangle,7.200011551,-11.2000066,1,0,0,-4,3,"[45,47,118,47,133,35,25,69,70,38]",7.200011551,-11.2000066,1,0,0,1,26,107,27,1,DarkGreen,DarkGreen.jpg,DarkBlue,DarkBlue.jpg,,
,,,,,,,,,,,,,,,,,,-3,,,,,,,,,,,,,,,,,,,,,,,,,,,,,,617282cc1f75d7414cdb74d8,001,2021-12-16_23h06.22.450,jm_natural_scene_simialrity_2-12-2021_version2,2021.2.3,Win32,59.9880024,617282cc1f75d7414cdb74d8,61bbc5c79a1c66460f44041e,61bbc611dc64863bfc6bf38d,,,-69.59998959,38.39999413,1,0,0,response7disk,2.133,-6.399939823,5.599993646,1,0,0,rectangle,-6.399939823,5.599993646,1,0,0,-4,-1,"[45,47,118,47,133,35,25,69,70,38]",-6.399939823,5.599993646,1,0,0,1,27,108,57,1,DarkBlue,DarkBlue.jpg,Yellow,Yellow.jpg,,
,,,,,,,,,,,,,,,,,,-4,,,,,,,,,,,,,,,,,,,,,,,,,,,,,,617282cc1f75d7414cdb74d8,001,2021-12-16_23h06.22.450,jm_natural_scene_simialrity_2-12-2021_version2,2021.2.3,Win32,59.9880024,617282cc1f75d7414cdb74d8,61bbc5c79a1c66460f44041e,61bbc611dc64863bfc6bf38d,,,-30.39994018,39.19996973,1,0,0,response7disk,2.166,-9.599988699,-12.00000662,1,0,0,rectangle,-9.599988699,-12.00000662,1,0,0,-4,-4,"[45,47,118,47,133,35,25,69,70,38]",-9.599988699,-12.00000662,1,0,0,1,28,109,28,1,DarkGreen,DarkGreen.jpg,Pink,Pink.jpg,,
,,,,,,,,,,,,,,,,,,3,,,,,,,,,,,,,,,,,,,,,,,,,,,,,,617282cc1f75d7414cdb74d8,001,2021-12-16_23h06.22.450,jm_natural_scene_simialrity_2-12-2021_version2,2021.2.3,Win32,59.9880024,617282cc1f75d7414cdb74d8,61bbc5c79a1c66460f44041e,61bbc611dc64863bfc6bf38d,,,80.00001264,31.19996961,1,0,0,response1disk,3.1496,-0.799988568,-17.6000067,1,0,0,rectangle,-0.799988568,-17.6000067,1,0,0,-4,2,"[45,47,118,47,133,35,25,69,70,38]",-0.799988568,-17.6000067,1,0,0,1,29,110,51,1,Pink,Pink.jpg,Red,Red.jpg,,
,,,,,,,,,,,,,,,,,,-1,,,,,,,,,,,,,,,,,,,,,,,,,,,,,,617282cc1f75d7414cdb74d8,001,2021-12-16_23h06.22.450,jm_natural_scene_simialrity_2-12-2021_version2,2021.2.3,Win32,59.9880024,617282cc1f75d7414cdb74d8,61bbc5c79a1c66460f44041e,61bbc611dc64863bfc6bf38d,,,-27.19998896,-41.60000706,1,0,0,response5disk,1.7835,9.600060415,-4.000006497,1,0,0,rectangle,9.600060415,-4.000006497,1,0,0,-4,1,"[45,47,118,47,133,35,25,69,70,38]",9.600060415,-4.000006497,1,0,0,1,30,111,80,1,Purple,Purple.jpg,Pink,Pink.jpg,,
,,,,,,,,,,,,,,,,,,1,,,,,,,,,,,,,,,,,,,,,,,,,,,,,,617282cc1f75d7414cdb74d8,001,2021-12-16_23h06.22.450,jm_natural_scene_simialrity_2-12-2021_version2,2021.2.3,Win32,59.9880024,617282cc1f75d7414cdb74d8,61bbc5c79a1c66460f44041e,61bbc611dc64863bfc6bf38d,,,30.4000119,-48.80000716,1,0,0,response3disk,2.1497,20.00001174,-20.80000675,1,0,0,rectangle,20.00001174,-20.80000675,1,0,0,1,2,"[45,47,118,47,133,35,25,69,70,38]",20.00001174,-20.80000675,1,0,0,1,31,112,34,1,Turquiose,Turquiose.jpg,Purple,Purple.jpg,,
,,,,,,,,,,,,,,,,,,1,,,,,,,,,,,,,,,,,,,,,,,,,,,,,,617282cc1f75d7414cdb74d8,001,2021-12-16_23h06.22.450,jm_natural_scene_simialrity_2-12-2021_version2,2021.2.3,Win32,59.9880024,617282cc1f75d7414cdb74d8,61bbc5c79a1c66460f44041e,61bbc611dc64863bfc6bf38d,,,24.80001181,-44.00000709,1,0,0,response3disk,1.8167,17.60006053,-21.60000676,1,0,0,rectangle,17.60006053,-21.60000676,1,0,0,1,-3,"[45,47,118,47,133,35,25,69,70,38]",17.60006053,-21.60000676,1,0,0,1,32,113,36,1,LightBlue,LightBlue.jpg,DarkBlue,DarkBlue.jpg,,
,,,,,,,,,,,,,,,,,,1,,,,,,,,,,,,,,,,,,,,,,,,,,,,,,617282cc1f75d7414cdb74d8,001,2021-12-16_23h06.22.450,jm_natural_scene_simialrity_2-12-2021_version2,2021.2.3,Win32,59.9880024,617282cc1f75d7414cdb74d8,61bbc5c79a1c66460f44041e,61bbc611dc64863bfc6bf38d,,,16.80001169,-32.80000693,1,0,0,response3disk,1.2167,-1.59998858,-9.60000658,1,0,0,rectangle,-1.59998858,-9.60000658,1,0,0,1,-3,"[45,47,118,47,133,35,25,69,70,38]",-1.59998858,-9.60000658,1,0,0,1,33,114,32,1,Turquiose,Turquiose.jpg,DarkBlue,DarkBlue.jpg,,
,,,,,,,,,,,,,,,,,,4,,,,,,,,,,,,,,,,,,,,,,,,,,,,,,617282cc1f75d7414cdb74d8,001,2021-12-16_23h06.22.450,jm_natural_scene_simialrity_2-12-2021_version2,2021.2.3,Win32,59.9880024,617282cc1f75d7414cdb74d8,61bbc5c79a1c66460f44041e,61bbc611dc64863bfc6bf38d,,,37.60006083,92.79999495,1,0,0,response1disk,1.1144,4.800011516,-0.800006449,1,0,0,rectangle,4.800011516,-0.800006449,1,0,0,1,3,"[45,47,118,47,133,35,25,69,70,38]",4.800011516,-0.800006449,1,0,0,1,34,115,9,1,Yellow,Yellow.jpg,Yellow,Yellow.jpg,,
,,,,,,,,,,,,,,,,,,-4,,,,,,,,,,,,,,,,,,,,,,,,,,,,,,617282cc1f75d7414cdb74d8,001,2021-12-16_23h06.22.450,jm_natural_scene_simialrity_2-12-2021_version2,2021.2.3,Win32,59.9880024,617282cc1f75d7414cdb74d8,61bbc5c79a1c66460f44041e,61bbc611dc64863bfc6bf38d,,,-50.39994048,65.59999454,1,0,0,response7disk,1.8335,6.400011539,-3.200006485,1,0,0,rectangle,6.400011539,-3.200006485,1,0,0,1,-4,"[45,47,118,47,133,35,25,69,70,38]",6.400011539,-3.200006485,1,0,0,1,35,116,2,1,Red,Red.jpg,LightGreen,LightGreen.jpg,,
,,,,,,,,,,,,,,,,,,-3,,,,,,,,,,,,,,,,,,,,,,,,,,,,,,617282cc1f75d7414cdb74d8,001,2021-12-16_23h06.22.450,jm_natural_scene_simialrity_2-12-2021_version2,2021.2.3,Win32,59.9880024,617282cc1f75d7414cdb74d8,61bbc5c79a1c66460f44041e,61bbc611dc64863bfc6bf38d,,,-61.59998947,34.39999408,1,0,0,response7disk,1.8329,-19.99998885,12.79999375,1,0,0,rectangle,-34.39994024,121.5999954,1,0,0,-4,-4,"[45,47,118,47,133,35,25,69,70,38]",-11.99998873,17.59999382,1,0,0,1,36,117,14,1,Yellow,Yellow.jpg,DarkBlue,DarkBlue.jpg,response7disk_3,rectangle
,,,,,,,,,,,,,,,,,,-3,,,,,,,,,,,,,,,,,,,,,,,,,,,,,,617282cc1f75d7414cdb74d8,001,2021-12-16_23h06.22.450,jm_natural_scene_simialrity_2-12-2021_version2,2021.2.3,Win32,59.9880024,617282cc1f75d7414cdb74d8,61bbc5c79a1c66460f44041e,61bbc611dc64863bfc6bf38d,,,-27.99998897,23.99999392,1,0,0,response7disk,2.1337,-12.79998875,7.999993682,1,0,0,rectangle,-12.79998875,7.999993682,1,0,0,-4,-1,"[45,47,118,47,133,35,25,69,70,38]",-12.79998875,7.999993682,1,0,0,1,37,118,78,1,Pink,Pink.jpg,DarkBlue,DarkBlue.jpg,,
,,,,,,,,,,,,,,,,,,-2,,,,,,,,,,,,,,,,,,,,,,,,,,,,,,617282cc1f75d7414cdb74d8,001,2021-12-16_23h06.22.450,jm_natural_scene_simialrity_2-12-2021_version2,2021.2.3,Win32,59.9880024,617282cc1f75d7414cdb74d8,61bbc5c79a1c66460f44041e,61bbc611dc64863bfc6bf38d,,,-42.39994036,-32.00000691,1,0,0,response5disk,1.999,10.4000116,-6.400006533,1,0,0,rectangle,10.4000116,-6.400006533,1,0,0,-4,-2,"[45,47,118,47,133,35,25,69,70,38]",10.4000116,-6.400006533,1,0,0,1,38,119,68,1,DarkBlue,DarkBlue.jpg,DarkGreen,DarkGreen.jpg,,
,,,,,,,,,,,,,,,,,,-4,,,,,,,,,,,,,,,,,,,,,,,,,,,,,,617282cc1f75d7414cdb74d8,001,2021-12-16_23h06.22.450,jm_natural_scene_simialrity_2-12-2021_version2,2021.2.3,Win32,59.9880024,617282cc1f75d7414cdb74d8,61bbc5c79a1c66460f44041e,61bbc611dc64863bfc6bf38d,,,-42.39994036,67.19997015,1,0,0,response7disk,1.3503,4.800011516,3.999993622,1,0,0,rectangle,4.800011516,3.999993622,1,0,0,-4,-4,"[45,47,118,47,133,35,25,69,70,38]",4.800011516,3.999993622,1,0,0,1,39,120,22,1,LightGreen,LightGreen.jpg,Pink,Pink.jpg,,
,,,,,,,,,,,,,,,,,,3,,,,,,,,,,,,,,,,,,,,,,,,,,,,,,617282cc1f75d7414cdb74d8,001,2021-12-16_23h06.22.450,jm_natural_scene_simialrity_2-12-2021_version2,2021.2.3,Win32,59.9880024,617282cc1f75d7414cdb74d8,61bbc5c79a1c66460f44041e,61bbc611dc64863bfc6bf38d,,,52.80001223,44.79999423,1,0,0,response1disk,1.8862,5.600060356,11.19999373,1,0,0,rectangle,5.600060356,11.19999373,1,0,0,-4,-2,"[45,47,118,47,133,35,25,69,70,38]",5.600060356,11.19999373,1,0,0,1,40,121,58,1,Pink,Pink.jpg,Yellow,Yellow.jpg,,
,,,,,,,,,,,,,,,,,,-4,,,,,,,,,,,,,,,,,,,,,,,,,,,,,,617282cc1f75d7414cdb74d8,001,2021-12-16_23h06.22.450,jm_natural_scene_simialrity_2-12-2021_version2,2021.2.3,Win32,59.9880024,617282cc1f75d7414cdb74d8,61bbc5c79a1c66460f44041e,61bbc611dc64863bfc6bf38d,,,-38.3999403,64.79999453,1,0,0,response7disk,1.7999,-14.39993994,3.19999361,1,0,0,rectangle,-14.39993994,3.19999361,1,0,0,-4,3,"[45,47,118,47,133,35,25,69,70,38]",-14.39993994,3.19999361,1,0,0,1,41,122,10,1,Yellow,Yellow.jpg,LightGreen,LightGreen.jpg,,
,,,,,,,,,,,,,,,,,,-2,,,,,,,,,,,,,,,,,,,,,,,,,,,,,,617282cc1f75d7414cdb74d8,001,2021-12-16_23h06.22.450,jm_natural_scene_simialrity_2-12-2021_version2,2021.2.3,Win32,59.9880024,617282cc1f75d7414cdb74d8,61bbc5c79a1c66460f44041e,61bbc611dc64863bfc6bf38d,,,-56.7999894,-28.80000687,1,0,0,response5disk,2.2999,-9.599988699,9.599993706,1,0,0,rectangle,-9.599988699,9.599993706,1,0,0,-4,-2,"[45,47,118,47,133,35,25,69,70,38]",-9.599988699,9.599993706,1,0,0,1,42,123,67,1,LightBlue,LightBlue.jpg,DarkGreen,DarkGreen.jpg,,
,,,,,,,,,,,,,,,,,,3,,,,,,,,,,,,,,,,,,,,,,,,,,,,,,617282cc1f75d7414cdb74d8,001,2021-12-16_23h06.22.450,jm_natural_scene_simialrity_2-12-2021_version2,2021.2.3,Win32,59.9880024,617282cc1f75d7414cdb74d8,61bbc5c79a1c66460f44041e,61bbc611dc64863bfc6bf38d,,,56.80001229,35.9999941,1,0,0,response1disk,1.8829,8.000011563,11.19999373,1,0,0,rectangle,8.000011563,11.19999373,1,0,0,-4,-2,"[45,47,118,47,133,35,25,69,70,38]",8.000011563,11.19999373,1,0,0,1,43,124,15,1,Yellow,Yellow.jpg,Pink,Pink.jpg,,
,,,,,,,,,,,,,,,,,,1,,,,,,,,,,,,,,,,,,,,,,,,,,,,,,617282cc1f75d7414cdb74d8,001,2021-12-16_23h06.22.450,jm_natural_scene_simialrity_2-12-2021_version2,2021.2.3,Win32,59.9880024,617282cc1f75d7414cdb74d8,61bbc5c79a1c66460f44041e,61bbc611dc64863bfc6bf38d,,,30.4000119,-50.40000719,1,0,0,response3disk,2.8664,0.800011456,-1.600006461,1,0,0,rectangle,0.800011456,-1.600006461,1,0,0,-4,-2,"[45,47,118,47,133,35,25,69,70,38]",0.800011456,-1.600006461,1,0,0,1,44,125,25,1,DarkGreen,DarkGreen.jpg,Turquiose,Turquiose.jpg,,
,,,,,,,,,,,,,,,,,,1,,,,,,,,,,,,,,,,,,,,,,,,,,,,,,617282cc1f75d7414cdb74d8,001,2021-12-16_23h06.22.450,jm_natural_scene_simialrity_2-12-2021_version2,2021.2.3,Win32,59.9880024,617282cc1f75d7414cdb74d8,61bbc5c79a1c66460f44041e,61bbc611dc64863bfc6bf38d,,,26.40001184,-63.20000738,1,0,0,response3disk,1.5204,0.800011456,-6.400006533,1,0,0,rectangle,0.800011456,-6.400006533,1,0,0,-4,-2,"[45,47,118,47,133,35,25,69,70,38]",0.800011456,-6.400006533,1,0,0,1,45,126,66,1,Turquiose,Turquiose.jpg,DarkGreen,DarkGreen.jpg,,
,,,,,,,,,,,,,,,,,,2,,,,,,,,,,,,,,,,,,,,,,,,,,,,,,617282cc1f75d7414cdb74d8,001,2021-12-16_23h06.22.450,jm_natural_scene_simialrity_2-12-2021_version2,2021.2.3,Win32,59.9880024,617282cc1f75d7414cdb74d8,61bbc5c79a1c66460f44041e,61bbc611dc64863bfc6bf38d,,,66.40001243,-30.40000689,1,0,0,response3disk,2.2994,-11.19998872,-10.40000659,1,0,0,rectangle,-11.19998872,-10.40000659,1,0,0,-4,3,"[45,47,118,47,133,35,25,69,70,38]",-11.19998872,-10.40000659,1,0,0,1,46,127,31,1,Turquiose,Turquiose.jpg,LightBlue,LightBlue.jpg,,
,,,,,,,,,,,,,,,,,,-4,,,,,,,,,,,,,,,,,,,,,,,,,,,,,,617282cc1f75d7414cdb74d8,001,2021-12-16_23h06.22.450,jm_natural_scene_simialrity_2-12-2021_version2,2021.2.3,Win32,59.9880024,617282cc1f75d7414cdb74d8,61bbc5c79a1c66460f44041e,61bbc611dc64863bfc6bf38d,,,-33.59998906,51.19996991,1,0,0,response7disk,1.6997,-9.599988699,-9.60000658,1,0,0,rectangle,-9.599988699,-9.60000658,1,0,0,-4,-4,"[45,47,118,47,133,35,25,69,70,38]",-9.599988699,-9.60000658,1,0,0,1,47,128,37,1,LightBlue,LightBlue.jpg,Pink,Pink.jpg,,
,,,,,,,,,,,,,,,,,,-4,,,,,,,,,,,,,,,,,,,,,,,,,,,,,,617282cc1f75d7414cdb74d8,001,2021-12-16_23h06.22.450,jm_natural_scene_simialrity_2-12-2021_version2,2021.2.3,Win32,59.9880024,617282cc1f75d7414cdb74d8,61bbc5c79a1c66460f44041e,61bbc611dc64863bfc6bf38d,,,-23.1999889,49.5999943,1,0,0,response7disk,1.3365,-3.199988604,-4.800006509,1,0,0,rectangle,-3.199988604,-4.800006509,1,0,0,-4,-4,"[45,47,118,47,133,35,25,69,70,38]",-3.199988604,-4.800006509,1,0,0,1,48,129,64,1,Pink,Pink.jpg,LightGreen,LightGreen.jpg,,
,,,,,,,,,,,,,,,,,,-4,,,,,,,,,,,,,,,,,,,,,,,,,,,,,,617282cc1f75d7414cdb74d8,001,2021-12-16_23h06.22.450,jm_natural_scene_simialrity_2-12-2021_version2,2021.2.3,Win32,59.9880024,617282cc1f75d7414cdb74d8,61bbc5c79a1c66460f44041e,61bbc611dc64863bfc6bf38d,,,-27.19998896,44.79999423,1,0,0,response7disk,1.2334,-3.999988616,-0.800006449,1,0,0,rectangle,-3.999988616,-0.800006449,1,0,0,-4,-3,"[45,47,118,47,133,35,25,69,70,38]",-3.999988616,-0.800006449,1,0,0,1,49,130,46,1,LightGreen,LightGreen.jpg,Red,Red.jpg,,
,,,,,,,,,,,,,,,,,,4,,,,,,,,,,,,,,,,,,,,,,,,,,,,,,617282cc1f75d7414cdb74d8,001,2021-12-16_23h06.22.450,jm_natural_scene_simialrity_2-12-2021_version2,2021.2.3,Win32,59.9880024,617282cc1f75d7414cdb74d8,61bbc5c79a1c66460f44041e,61bbc611dc64863bfc6bf38d,,,42.40001208,79.99999475,1,0,0,response1disk,1.1167,8.000011563,0.799993575,1,0,0,rectangle,8.000011563,0.799993575,1,0,0,-4,2,"[45,47,118,47,133,35,25,69,70,38]",8.000011563,0.799993575,1,0,0,1,50,131,30,1,Turquiose,Turquiose.jpg,Turquiose,Turquiose.jpg,,
,,,,,,,,,,,,,,,,,,4,,,,,,,,,,,,,,,,,,,,,,,,,,,,,,617282cc1f75d7414cdb74d8,001,2021-12-16_23h06.22.450,jm_natural_scene_simialrity_2-12-2021_version2,2021.2.3,Win32,59.9880024,617282cc1f75d7414cdb74d8,61bbc5c79a1c66460f44041e,61bbc611dc64863bfc6bf38d,,,36.00001198,62.39999449,1,0,0,response1disk,1.133,15.20001167,-6.4373E-06,1,0,0,rectangle,-34.39994024,-110.4000081,1,0,0,-1,-1,"[45,47,118,47,133,35,25,69,70,38]",0.800011456,-8.000006557,1,0,0,1,51,132,24,1,DarkGreen,DarkGreen.jpg,DarkGreen,DarkGreen.jpg,response5disk_3,rectangle
,,,,,,,,,,,,,,,,,,2,,,,,,,,,,,,,,,,,,,,,,,,,,,,,,617282cc1f75d7414cdb74d8,001,2021-12-16_23h06.22.450,jm_natural_scene_simialrity_2-12-2021_version2,2021.2.3,Win32,59.9880024,617282cc1f75d7414cdb74d8,61bbc5c79a1c66460f44041e,61bbc611dc64863bfc6bf38d,,,57.6000123,-32.00000691,1,0,0,response3disk,1.5473,-3.199988604,-12.00000662,1,0,0,rectangle,-3.199988604,-12.00000662,1,0,0,-1,2,"[45,47,118,47,133,35,25,69,70,38]",-3.199988604,-12.00000662,1,0,0,1,52,133,79,1,Purple,Purple.jpg,DarkBlue,DarkBlue.jpg,,
,,,,,,,,,,,,,,,,,,-4,,,,,,,,,,,,,,,,,,,,,,,,,,,,,,617282cc1f75d7414cdb74d8,001,2021-12-16_23h06.22.450,jm_natural_scene_simialrity_2-12-2021_version2,2021.2.3,Win32,59.9880024,617282cc1f75d7414cdb74d8,61bbc5c79a1c66460f44041e,61bbc611dc64863bfc6bf38d,,,-56.7999894,76.79999471,1,0,0,response7disk,2.5496,8.800011575,-8.800006568,1,0,0,rectangle,8.800011575,-8.800006568,1,0,0,-1,-4,"[45,47,118,47,133,35,25,69,70,38]",8.800011575,-8.800006568,1,0,0,1,53,134,54,1,DarkGreen,DarkGreen.jpg,Yellow,Yellow.jpg,,
,,,,,,,,,,,,,,,,,,-4,,,,,,,,,,,,,,,,,,,,,,,,,,,,,,617282cc1f75d7414cdb74d8,001,2021-12-16_23h06.22.450,jm_natural_scene_simialrity_2-12-2021_version2,2021.2.3,Win32,59.9880024,617282cc1f75d7414cdb74d8,61bbc5c79a1c66460f44041e,61bbc611dc64863bfc6bf38d,,,-31.19998902,58.39999443,1,0,0,response7disk,1.5836,-6.399939823,-12.00000662,1,0,0,rectangle,-6.399939823,-12.00000662,1,0,0,-1,2,"[45,47,118,47,133,35,25,69,70,38]",-6.399939823,-12.00000662,1,0,0,1,54,135,3,1,Red,Red.jpg,DarkGreen,DarkGreen.jpg,,
,,,,,,,,,,,,,,,,,,-3,,,,,,,,,,,,,,,,,,,,,,,,,,,,,,617282cc1f75d7414cdb74d8,001,2021-12-16_23h06.22.450,jm_natural_scene_simialrity_2-12-2021_version2,2021.2.3,Win32,59.9880024,617282cc1f75d7414cdb74d8,61bbc5c79a1c66460f44041e,61bbc611dc64863bfc6bf38d,,,-74.39994084,57.59999442,1,0,0,response7disk,3.8665,4.000011504,15.19999379,1,0,0,rectangle,4.000011504,15.19999379,1,0,0,-1,-1,"[45,47,118,47,133,35,25,69,70,38]",4.000011504,15.19999379,1,0,0,1,55,136,73,1,Pink,Pink.jpg,Turquiose,Turquiose.jpg,,
,,,,,,,,,,,,,,,,,,-2,,,,,,,,,,,,,,,,,,,,,,,,,,,,,,617282cc1f75d7414cdb74d8,001,2021-12-16_23h06.22.450,jm_natural_scene_simialrity_2-12-2021_version2,2021.2.3,Win32,59.9880024,617282cc1f75d7414cdb74d8,61bbc5c79a1c66460f44041e,61bbc611dc64863bfc6bf38d,,,-103.9999901,-42.40000707,1,0,0,response5disk,3.0826,-9.599988699,4.799993634,1,0,0,rectangle,-9.599988699,4.799993634,1,0,0,-1,-3,"[45,47,118,47,133,35,25,69,70,38]",-9.599988699,4.799993634,1,0,0,1,56,137,29,1,DarkGreen,DarkGreen.jpg,Purple,Purple.jpg,,
,,,,,,,,,,,,,,,,,,-4,,,,,,,,,,,,,,,,,,,,,,,,,,,,,,617282cc1f75d7414cdb74d8,001,2021-12-16_23h06.22.450,jm_natural_scene_simialrity_2-12-2021_version2,2021.2.3,Win32,59.9880024,617282cc1f75d7414cdb74d8,61bbc5c79a1c66460f44041e,61bbc611dc64863bfc6bf38d,,,-24.79998893,39.19996973,1,0,0,response7disk,1.3664,-15.19998878,-12.80000663,1,0,0,rectangle,-15.19998878,-12.80000663,1,0,0,-1,3,"[45,47,118,47,133,35,25,69,70,38]",-15.19998878,-12.80000663,1,0,0,1,57,138,69,1,Pink,Pink.jpg,DarkGreen,DarkGreen.jpg,,
,,,,,,,,,,,,,,,,,,4,,,,,,,,,,,,,,,,,,,,,,,,,,,,,,617282cc1f75d7414cdb74d8,001,2021-12-16_23h06.22.450,jm_natural_scene_simialrity_2-12-2021_version2,2021.2.3,Win32,59.9880024,617282cc1f75d7414cdb74d8,61bbc5c79a1c66460f44041e,61bbc611dc64863bfc6bf38d,,,39.20001203,71.19997021,1,0,0,response1disk,0.9668,16.00001168,-8.000006557,1,0,0,rectangle,16.00001168,-8.000006557,1,0,0,-1,-4,"[45,47,118,47,133,35,25,69,70,38]",16.00001168,-8.000006557,1,0,0,1,58,139,17,1,LightGreen,LightGreen.jpg,LightGreen,LightGreen.jpg,,
,,,,,,,,,,,,,,,,,,-4,,,,,,,,,,,,,,,,,,,,,,,,,,,,,,617282cc1f75d7414cdb74d8,001,2021-12-16_23h06.22.450,jm_natural_scene_simialrity_2-12-2021_version2,2021.2.3,Win32,59.9880024,617282cc1f75d7414cdb74d8,61bbc5c79a1c66460f44041e,61bbc611dc64863bfc6bf38d,,,-63.1999895,76.79999471,1,0,0,response7disk,1.9475,-7.199988663,-2.400006473,1,0,0,rectangle,-7.199988663,-2.400006473,1,0,0,-1,3,"[45,47,118,47,133,35,25,69,70,38]",-7.199988663,-2.400006473,1,0,0,1,59,140,59,1,Purple,Purple.jpg,Yellow,Yellow.jpg,,
,,,,,,,,,,,,,,,,,,-3,,,,,,,,,,,,,,,,,,,,,,,,,,,,,,617282cc1f75d7414cdb74d8,001,2021-12-16_23h06.22.450,jm_natural_scene_simialrity_2-12-2021_version2,2021.2.3,Win32,59.9880024,617282cc1f75d7414cdb74d8,61bbc5c79a1c66460f44041e,61bbc611dc64863bfc6bf38d,,,-49.5999893,25.59999394,1,0,0,response7disk,1.7334,-14.39993994,-4.800006509,1,0,0,rectangle,-14.39993994,-4.800006509,1,0,0,-1,1,"[45,47,118,47,133,35,25,69,70,38]",-14.39993994,-4.800006509,1,0,0,1,60,141,65,1,Purple,Purple.jpg,LightGreen,LightGreen.jpg,,
,,,,,,,,,,,,,,,,,,-4,,,,,,,,,,,,,,,,,,,,,,,,,,,,,,617282cc1f75d7414cdb74d8,001,2021-12-16_23h06.22.450,jm_natural_scene_simialrity_2-12-2021_version2,2021.2.3,Win32,59.9880024,617282cc1f75d7414cdb74d8,61bbc5c79a1c66460f44041e,61bbc611dc64863bfc6bf38d,,,-18.39994,35.19996967,1,0,0,response7disk,2.7828,-5.599988639,7.999993682,1,0,0,rectangle,-5.599988639,7.999993682,1,0,0,-1,-1,"[45,47,118,47,133,35,25,69,70,38]",-5.599988639,7.999993682,1,0,0,1,61,142,48,1,Turquiose,Turquiose.jpg,Red,Red.jpg,,
,,,,,,,,,,,,,,,,,,-1,,,,,,,,,,,,,,,,,,,,,,,,,,,,,,617282cc1f75d7414cdb74d8,001,2021-12-16_23h06.22.450,jm_natural_scene_simialrity_2-12-2021_version2,2021.2.3,Win32,59.9880024,617282cc1f75d7414cdb74d8,61bbc5c79a1c66460f44041e,61bbc611dc64863bfc6bf38d,,,-26.39994012,-76.80000758,1,0,0,response5disk,2.5999,10.4000116,0.799993575,1,0,0,rectangle,10.4000116,0.799993575,1,0,0,-1,3,"[45,47,118,47,133,35,25,69,70,38]",10.4000116,0.799993575,1,0,0,1,62,143,71,1,LightBlue,LightBlue.jpg,Turquiose,Turquiose.jpg,,
,,,,,,,,,,,,,,,,,,1,,,,,,,,,,,,,,,,,,,,,,,,,,,,,,617282cc1f75d7414cdb74d8,001,2021-12-16_23h06.22.450,jm_natural_scene_simialrity_2-12-2021_version2,2021.2.3,Win32,59.9880024,617282cc1f75d7414cdb74d8,61bbc5c79a1c66460f44041e,61bbc611dc64863bfc6bf38d,,,34.40001196,-70.40000749,1,0,0,response3disk,1.55,2.40001148,-0.800006449,1,0,0,rectangle,2.40001148,-0.800006449,1,0,0,-1,3,"[45,47,118,47,133,35,25,69,70,38]",2.40001148,-0.800006449,1,0,0,1,63,144,72,1,DarkBlue,DarkBlue.jpg,Turquiose,Turquiose.jpg,,
,,,,,,,,,,,,,,,,,,-4,,,,,,,,,,,,,,,,,,,,,,,,,,,,,,617282cc1f75d7414cdb74d8,001,2021-12-16_23h06.22.450,jm_natural_scene_simialrity_2-12-2021_version2,2021.2.3,Win32,59.9880024,617282cc1f75d7414cdb74d8,61bbc5c79a1c66460f44041e,61bbc611dc64863bfc6bf38d,,,-39.19998914,65.59999454,1,0,0,response7disk,2.2496,-22.39994006,7.19999367,1,0,0,rectangle,-22.39994006,7.19999367,1,0,0,-1,2,"[45,47,118,47,133,35,25,69,70,38]",-22.39994006,7.19999367,1,0,0,1,64,145,11,1,Yellow,Yellow.jpg,DarkGreen,DarkGreen.jpg,,
,,,,,,,,,,,,,,,,,,-3,,,,,,,,,,,,,,,,,,,,,,,,,,,,,,617282cc1f75d7414cdb74d8,001,2021-12-16_23h06.22.450,jm_natural_scene_simialrity_2-12-2021_version2,2021.2.3,Win32,59.9880024,617282cc1f75d7414cdb74d8,61bbc5c79a1c66460f44041e,61bbc611dc64863bfc6bf38d,,,-36.7999891,30.39999402,1,0,0,response7disk,4.133,-19.99998885,3.999993622,1,0,0,rectangle,-19.99998885,3.999993622,1,0,0,-1,3,"[45,47,118,47,133,35,25,69,70,38]",-19.99998885,3.999993622,1,0,0,1,65,146,6,1,Red,Red.jpg,DarkBlue,DarkBlue.jpg,,
,,,,,,,,,,,,,,,,,,-4,,,,,,,,,,,,,,,,,,,,,,,,,,,,,,617282cc1f75d7414cdb74d8,001,2021-12-16_23h06.22.450,jm_natural_scene_simialrity_2-12-2021_version2,2021.2.3,Win32,59.9880024,617282cc1f75d7414cdb74d8,61bbc5c79a1c66460f44041e,61bbc611dc64863bfc6bf38d,,,-22.39994006,29.599994,1,0,0,response7disk,1.8307,-18.39994,2.399993598,1,0,0,rectangle,-18.39994,2.399993598,1,0,0,-1,3,"[45,47,118,47,133,35,25,69,70,38]",-18.39994,2.399993598,1,0,0,1,66,147,33,1,Turquiose,Turquiose.jpg,Pink,Pink.jpg,,
,,,,,,,,,,,,,,,,,,2,,,,,,,,,,,,,,,,,,,,,,,,,,,,,,617282cc1f75d7414cdb74d8,001,2021-12-16_23h06.22.450,jm_natural_scene_simialrity_2-12-2021_version2,2021.2.3,Win32,59.9880024,617282cc1f75d7414cdb74d8,61bbc5c79a1c66460f44041e,61bbc611dc64863bfc6bf38d,,,76.80001259,-41.60000706,1,0,0,response3disk,2.733,8.800011575,-12.80000663,1,0,0,rectangle,8.800011575,-12.80000663,1,0,0,-1,2,"[45,47,118,47,133,35,25,69,70,38]",8.800011575,-12.80000663,1,0,0,1,67,148,77,1,Purple,Purple.jpg,LightBlue,LightBlue.jpg,,
,,,,,,,,,,,,,,,,,,4,,,,,,,,,,,,,,,,,,,,,,,,,,,,,,617282cc1f75d7414cdb74d8,001,2021-12-16_23h06.22.450,jm_natural_scene_simialrity_2-12-2021_version2,2021.2.3,Win32,59.9880024,617282cc1f75d7414cdb74d8,61bbc5c79a1c66460f44041e,61bbc611dc64863bfc6bf38d,,,46.40001214,115.1999709,1,0,0,response1disk,1.4501,1.14441E-05,14.39999378,1,0,0,rectangle,1.14441E-05,14.39999378,1,0,0,-1,-2,"[45,47,118,47,133,35,25,69,70,38]",1.14441E-05,14.39999378,1,0,0,1,68,149,0,1,Red,Red.jpg,Red,Red.jpg,,
,,,,,,,,,,,,,,,,,,-3,,,,,,,,,,,,,,,,,,,,,,,,,,,,,,617282cc1f75d7414cdb74d8,001,2021-12-16_23h06.22.450,jm_natural_scene_simialrity_2-12-2021_version2,2021.2.3,Win32,59.9880024,617282cc1f75d7414cdb74d8,61bbc5c79a1c66460f44041e,61bbc611dc64863bfc6bf38d,,,-55.19998938,32.79999405,1,0,0,response7disk,3.1834,-3.199988604,15.19999379,1,0,0,rectangle,-3.199988604,15.19999379,1,0,0,-1,-3,"[45,47,118,47,133,35,25,69,70,38]",-3.199988604,15.19999379,1,0,0,1,69,150,50,1,DarkBlue,DarkBlue.jpg,Red,Red.jpg,,
,,,,,,,,,,,,,,,,,,-4,,,,,,,,,,,,,,,,,,,,,,,,,,,,,,617282cc1f75d7414cdb74d8,001,2021-12-16_23h06.22.450,jm_natural_scene_simialrity_2-12-2021_version2,2021.2.3,Win32,59.9880024,617282cc1f75d7414cdb74d8,61bbc5c79a1c66460f44041e,61bbc611dc64863bfc6bf38d,,,-34.39994024,60.79999447,1,0,0,response7disk,2.0867,-7.199988663,19.99999386,1,0,0,rectangle,-7.199988663,19.99999386,1,0,0,-1,2,"[45,47,118,47,133,35,25,69,70,38]",-7.199988663,19.99999386,1,0,0,1,70,151,52,1,Purple,Purple.jpg,Red,Red.jpg,,
,,,,,,,,,,,,,,,,,,-4,,,,,,,,,,,,,,,,,,,,,,,,,,,,,,617282cc1f75d7414cdb74d8,001,2021-12-16_23h06.22.450,jm_natural_scene_simialrity_2-12-2021_version2,2021.2.3,Win32,59.9880024,617282cc1f75d7414cdb74d8,61bbc5c79a1c66460f44041e,61bbc611dc64863bfc6bf38d,,,-26.39994012,51.19996991,1,0,0,response7disk,1.9161,-7.199988663,-1.600006461,1,0,0,rectangle,-7.199988663,-1.600006461,1,0,0,-1,-2,"[45,47,118,47,133,35,25,69,70,38]",-7.199988663,-1.600006461,1,0,0,1,71,152,40,1,DarkBlue,DarkBlue.jpg,Pink,Pink.jpg,,
,,,,,,,,,,,,,,,,,,-3,,,,,,,,,,,,,,,,,,,,,,,,,,,,,,617282cc1f75d7414cdb74d8,001,2021-12-16_23h06.22.450,jm_natural_scene_simialrity_2-12-2021_version2,2021.2.3,Win32,59.9880024,617282cc1f75d7414cdb74d8,61bbc5c79a1c66460f44041e,61bbc611dc64863bfc6bf38d,,,-54.39994054,28.79999399,1,0,0,response7disk,2.133,-0.799988568,15.9999938,1,0,0,rectangle,-0.799988568,15.9999938,1,0,0,-1,-4,"[45,47,118,47,133,35,25,69,70,38]",-0.799988568,15.9999938,1,0,0,1,72,153,61,1,Turquiose,Turquiose.jpg,LightGreen,LightGreen.jpg,,
,,,,,,,,,,,,,,,,,,-3,,,,,,,,,,,,,,,,,,,,,,,,,,,,,,617282cc1f75d7414cdb74d8,001,2021-12-16_23h06.22.450,jm_natural_scene_simialrity_2-12-2021_version2,2021.2.3,Win32,59.9880024,617282cc1f75d7414cdb74d8,61bbc5c79a1c66460f44041e,61bbc611dc64863bfc6bf38d,,,-27.19998896,24.79999393,1,0,0,response7disk,1.7334,-19.19998884,7.999993682,1,0,0,rectangle,-19.19998884,7.999993682,1,0,0,-1,2,"[45,47,118,47,133,35,25,69,70,38]",-19.19998884,7.999993682,1,0,0,1,73,154,62,1,LightBlue,LightBlue.jpg,LightGreen,LightGreen.jpg,,
,,,,,,,,,,,,,,,,,,-3,,,,,,,,,,,,,,,,,,,,,,,,,,,,,,617282cc1f75d7414cdb74d8,001,2021-12-16_23h06.22.450,jm_natural_scene_simialrity_2-12-2021_version2,2021.2.3,Win32,59.9880024,617282cc1f75d7414cdb74d8,61bbc5c79a1c66460f44041e,61bbc611dc64863bfc6bf38d,,,-34.39994024,23.99999392,1,0,0,response7disk,1.9032,-19.19998884,3.999993622,1,0,0,rectangle,-19.19998884,3.999993622,1,0,0,-1,-2,"[45,47,118,47,133,35,25,69,70,38]",-19.19998884,3.999993622,1,0,0,1,74,155,63,1,DarkBlue,DarkBlue.jpg,LightGreen,LightGreen.jpg,,
,,,,,,,,,,,,,,,,,,-4,,,,,,,,,,,,,,,,,,,,,,,,,,,,,,617282cc1f75d7414cdb74d8,001,2021-12-16_23h06.22.450,jm_natural_scene_simialrity_2-12-2021_version2,2021.2.3,Win32,59.9880024,617282cc1f75d7414cdb74d8,61bbc5c79a1c66460f44041e,61bbc611dc64863bfc6bf38d,,,-24.79998893,39.99999416,1,0,0,response7disk,1.9164,-8.799988687,0.799993575,1,0,0,rectangle,-8.799988687,0.799993575,1,0,0,-1,-1,"[45,47,118,47,133,35,25,69,70,38]",-8.799988687,0.799993575,1,0,0,1,75,156,8,1,Red,Red.jpg,Purple,Purple.jpg,,
,,,,,,,,,,,,,,,,,,-4,,,,,,,,,,,,,,,,,,,,,,,,,,,,,,617282cc1f75d7414cdb74d8,001,2021-12-16_23h06.22.450,jm_natural_scene_simialrity_2-12-2021_version2,2021.2.3,Win32,59.9880024,617282cc1f75d7414cdb74d8,61bbc5c79a1c66460f44041e,61bbc611dc64863bfc6bf38d,,,-22.39994006,29.599994,1,0,0,response7disk,2.5531,-8.799988687,6.399993658,1,0,0,rectangle,-8.799988687,6.399993658,1,0,0,-1,1,"[45,47,118,47,133,35,25,69,70,38]",-8.799988687,6.399993658,1,0,0,1,76,157,23,1,LightGreen,LightGreen.jpg,Purple,Purple.jpg,,
,,,,,,,,,,,,,,,,,,-3,,,,,,,,,,,,,,,,,,,,,,,,,,,,,,617282cc1f75d7414cdb74d8,001,2021-12-16_23h06.22.450,jm_natural_scene_simialrity_2-12-2021_version2,2021.2.3,Win32,59.9880024,617282cc1f75d7414cdb74d8,61bbc5c79a1c66460f44041e,61bbc611dc64863bfc6bf38d,,,-27.99998897,25.59999394,1,0,0,response7disk,2.5676,-18.39994,10.39999372,1,0,0,rectangle,-18.39994,10.39999372,1,0,0,-1,-1,"[45,47,118,47,133,35,25,69,70,38]",-18.39994,10.39999372,1,0,0,1,77,158,75,1,DarkBlue,DarkBlue.jpg,LightBlue,LightBlue.jpg,,
,,,,,,,,,,,,,,,,,,3,,,,,,,,,,,,,,,,,,,,,,,,,,,,,,617282cc1f75d7414cdb74d8,001,2021-12-16_23h06.22.450,jm_natural_scene_simialrity_2-12-2021_version2,2021.2.3,Win32,59.9880024,617282cc1f75d7414cdb74d8,61bbc5c79a1c66460f44041e,61bbc611dc64863bfc6bf38d,,,90.40001279,31.19996961,1,0,0,response1disk,2.6165,-7.999988675,0.799993575,1,0,0,rectangle,-7.999988675,0.799993575,1,0,0,-1,-1,"[45,47,118,47,133,35,25,69,70,38]",-7.999988675,0.799993575,1,0,0,1,78,159,60,1,DarkGreen,DarkGreen.jpg,LightGreen,LightGreen.jpg,,
,,,,,,,,,,,,,,,,,,3,,,,,,,,,,,,,,,,,,,,,,,,,,,,,,617282cc1f75d7414cdb74d8,001,2021-12-16_23h06.22.450,jm_natural_scene_simialrity_2-12-2021_version2,2021.2.3,Win32,59.9880024,617282cc1f75d7414cdb74d8,61bbc5c79a1c66460f44041e,61bbc611dc64863bfc6bf38d,,,63.20001239,27.99999398,1,0,0,response1disk,1.7664,-17.59998882,0.799993575,1,0,0,rectangle,-17.59998882,0.799993575,1,0,0,-1,-1,"[45,47,118,47,133,35,25,69,70,38]",-17.59998882,0.799993575,1,0,0,1,79,160,7,1,Red,Red.jpg,Pink,Pink.jpg,,
,,,,,,,,,,,,,,,,,,-3,,,,,,,,,,,,,,,,,,,,,,,,,,,,,,617282cc1f75d7414cdb74d8,001,2021-12-16_23h06.22.450,jm_natural_scene_simialrity_2-12-2021_version2,2021.2.3,Win32,59.9880024,617282cc1f75d7414cdb74d8,61bbc5c79a1c66460f44041e,61bbc611dc64863bfc6bf38d,,,-39.19998914,25.59999394,1,0,0,response7disk,1.9339,-14.39993994,6.399993658,1,0,0,rectangle,-14.39993994,6.399993658,1,0,0,-1,2,"[45,47,118,47,133,35,25,69,70,38]",-14.39993994,6.399993658,1,0,0,1,80,161,16,1,Yellow,Yellow.jpg,Purple,Purple.jpg,,
