key_resp.keys,key_resp.rt,key_resp_16.keys,key_resp_16.rt,key_resp_2.keys,key_resp_2.rt,key_resp_3.keys,key_resp_3.rt,key_resp_19.keys,key_resp_19.rt,key_resp_10.keys,key_resp_10.rt,mouse_prac.x,mouse_prac.y,mouse_prac.leftButton,mouse_prac.midButton,mouse_prac.rightButton,mouse_prac.clicked_name,similarity,mouse_10.x,mouse_10.y,mouse_10.leftButton,mouse_10.midButton,mouse_10.rightButton,mouse_10.clicked_name,mouse_catch_prac.x,mouse_catch_prac.y,mouse_catch_prac.leftButton,mouse_catch_prac.midButton,mouse_catch_prac.rightButton,mouse_catch_prac.clicked_name,catchprac,catchnumberprac,mouse_6.x,mouse_6.y,mouse_6.leftButton,mouse_6.midButton,mouse_6.rightButton,mouse_6.clicked_name,during_prac.thisRepN,during_prac.thisTrialN,during_prac.thisN,during_prac.thisIndex,during_prac.ran,trailimage1,trial1adress,trailimage2,trial2adress,participant,session,date,expName,psychopyVersion,OS,frameRate,PROLIFIC_PID,STUDY_ID,SESSION_ID,key_resp_22.keys,key_resp_22.rt,mouse.x,mouse.y,mouse.leftButton,mouse.midButton,mouse.rightButton,mouse.clicked_name,response_time,mouse_2.x,mouse_2.y,mouse_2.leftButton,mouse_2.midButton,mouse_2.rightButton,mouse_2.clicked_name,mouse_3.x,mouse_3.y,mouse_3.leftButton,mouse_3.midButton,mouse_3.rightButton,catchresponse,catchnumber,catchtrialorder,mouse_11.x,mouse_11.y,mouse_11.leftButton,mouse_11.midButton,mouse_11.rightButton,trials_2.thisRepN,trials_2.thisTrialN,trials_2.thisN,trials_2.thisIndex,trials_2.ran,image1,image1adress,image2,image2adress,mouse_3.clicked_name,mouse_11.clicked_name
space,3.4177,space,1.3244,space,7.1577,space,15.388,space,68.2259,space,8.2648,56.00001228,99.19997063,1,0,0,response1disk_5,4,2.40001148,-4.800006509,1,0,0,rectangle_8,46.40001214,-119.2000082,1,0,0,response3disk_7,1,1,1.600060296,-7.200006545,1,0,0,rectangle_4,0,0,0,3,1,trail2,trail2.jpg,trail2,trail2.jpg,,001,2021-12-16_23h08.56.109,jm_natural_scene_simialrity_2-12-2021_version2,2021.2.3,Win32,57.66015107,6108878a6817adc0fb1bfbf9,61bbc5c79a1c66460f44041e,61bbc60c0f6f7e06c585d116,,,,,,,,,,,,,,,,,,,,,,,,,,,,,,,,,,,,,,,
,,,,,,,,,,,,-45.59998924,97.59999502,1,0,0,response7disk_5,-4,-1.59998858,-1.600006461,1,0,0,rectangle_8,-1.59998858,-1.600006461,1,0,0,,,1,-1.59998858,-1.600006461,1,0,0,,0,1,1,2,1,trail1,trail1.jpg,trail3,trail3.jpg,,001,2021-12-16_23h08.56.109,jm_natural_scene_simialrity_2-12-2021_version2,2021.2.3,Win32,57.66015107,6108878a6817adc0fb1bfbf9,61bbc5c79a1c66460f44041e,61bbc60c0f6f7e06c585d116,,,,,,,,,,,,,,,,,,,,,,,,,,,,,,,,,,,,,,,
,,,,,,,,,,,,105.600013,56.79999441,1,0,0,response1disk_5,3,-2.399939764,-3.200006485,1,0,0,rectangle_8,52.00001222,-108.8000081,1,0,0,response3disk_7,1,1,7.200011551,-2.400006473,1,0,0,rectangle_4,0,2,2,5,1,trail3,trail3.jpg,trail3,trail3.jpg,,001,2021-12-16_23h08.56.109,jm_natural_scene_simialrity_2-12-2021_version2,2021.2.3,Win32,57.66015107,6108878a6817adc0fb1bfbf9,61bbc5c79a1c66460f44041e,61bbc60c0f6f7e06c585d116,,,,,,,,,,,,,,,,,,,,,,,,,,,,,,,,,,,,,,,
,,,,,,,,,,,,51.20001221,91.99999493,1,0,0,response1disk_5,4,-0.799988568,1.599993587,1,0,0,rectangle_8,-0.799988568,1.599993587,1,0,0,,,1,-0.799988568,1.599993587,1,0,0,,0,3,3,0,1,trail1,trail1.jpg,trail1,trail1.jpg,,001,2021-12-16_23h08.56.109,jm_natural_scene_simialrity_2-12-2021_version2,2021.2.3,Win32,57.66015107,6108878a6817adc0fb1bfbf9,61bbc5c79a1c66460f44041e,61bbc60c0f6f7e06c585d116,,,,,,,,,,,,,,,,,,,,,,,,,,,,,,,,,,,,,,,
,,,,,,,,,,,,-85.59998983,47.19996985,1,0,0,response7disk_5,-3,1.14441E-05,-2.400006473,1,0,0,rectangle_8,1.14441E-05,-2.400006473,1,0,0,,,1,1.14441E-05,-2.400006473,1,0,0,,0,4,4,1,1,trail1,trail1.jpg,trail2,trail2.jpg,,001,2021-12-16_23h08.56.109,jm_natural_scene_simialrity_2-12-2021_version2,2021.2.3,Win32,57.66015107,6108878a6817adc0fb1bfbf9,61bbc5c79a1c66460f44041e,61bbc60c0f6f7e06c585d116,,,,,,,,,,,,,,,,,,,,,,,,,,,,,,,,,,,,,,,
,,,,,,,,,,,,-45.59998924,90.39999491,1,0,0,response7disk_5,-4,4.800011516,3.999993622,1,0,0,rectangle_8,4.800011516,3.999993622,1,0,0,,,1,4.800011516,3.999993622,1,0,0,,0,5,5,4,1,trail2,trail2.jpg,trail3,trail3.jpg,,001,2021-12-16_23h08.56.109,jm_natural_scene_simialrity_2-12-2021_version2,2021.2.3,Win32,57.66015107,6108878a6817adc0fb1bfbf9,61bbc5c79a1c66460f44041e,61bbc60c0f6f7e06c585d116,,,,,,,,,,,,,,,,,,,,,,,,,,,,,,,,,,,,,,,
,,,,,,,,,,,,,,,,,,-4,,,,,,,,,,,,,,,,,,,,,,,,,,,,,,,001,2021-12-16_23h08.56.109,jm_natural_scene_simialrity_2-12-2021_version2,2021.2.3,Win32,57.66015107,6108878a6817adc0fb1bfbf9,61bbc5c79a1c66460f44041e,61bbc60c0f6f7e06c585d116,space,2.6558,-46.39994042,90.39999491,1,0,0,response7disk,2.2326,8.000011563,-0.800006449,1,0,0,rectangle,8.000011563,-0.800006449,1,0,0,,-2,"[137,124,80,147,110,154,94,116,161,64]",8.000011563,-0.800006449,1,0,0,0,0,0,61,1,Turquiose,Turquiose.jpg,LightGreen,LightGreen.jpg,,
,,,,,,,,,,,,,,,,,,-4,,,,,,,,,,,,,,,,,,,,,,,,,,,,,,,001,2021-12-16_23h08.56.109,jm_natural_scene_simialrity_2-12-2021_version2,2021.2.3,Win32,57.66015107,6108878a6817adc0fb1bfbf9,61bbc5c79a1c66460f44041e,61bbc60c0f6f7e06c585d116,,,-43.1999892,71.99999464,1,0,0,response7disk,3.1811,-3.199988604,-5.600006521,1,0,0,rectangle,-3.199988604,-5.600006521,1,0,0,,3,"[137,124,80,147,110,154,94,116,161,64]",-3.199988604,-5.600006521,1,0,0,0,1,1,54,1,DarkGreen,DarkGreen.jpg,Yellow,Yellow.jpg,,
,,,,,,,,,,,,,,,,,,-4,,,,,,,,,,,,,,,,,,,,,,,,,,,,,,,001,2021-12-16_23h08.56.109,jm_natural_scene_simialrity_2-12-2021_version2,2021.2.3,Win32,57.66015107,6108878a6817adc0fb1bfbf9,61bbc5c79a1c66460f44041e,61bbc60c0f6f7e06c585d116,,,-42.39994036,95.99999499,1,0,0,response7disk,2.4985,-6.399939823,-5.600006521,1,0,0,rectangle,-6.399939823,-5.600006521,1,0,0,,1,"[137,124,80,147,110,154,94,116,161,64]",-6.399939823,-5.600006521,1,0,0,0,2,2,16,1,Yellow,Yellow.jpg,Purple,Purple.jpg,,
,,,,,,,,,,,,,,,,,,1,,,,,,,,,,,,,,,,,,,,,,,,,,,,,,,001,2021-12-16_23h08.56.109,jm_natural_scene_simialrity_2-12-2021_version2,2021.2.3,Win32,57.66015107,6108878a6817adc0fb1bfbf9,61bbc5c79a1c66460f44041e,61bbc60c0f6f7e06c585d116,,,36.80001199,-107.200008,1,0,0,response3disk,3.8698,-0.799988568,-6.4373E-06,1,0,0,rectangle,-0.799988568,-6.4373E-06,1,0,0,,1,"[137,124,80,147,110,154,94,116,161,64]",-0.799988568,-6.4373E-06,1,0,0,0,3,3,77,1,Purple,Purple.jpg,LightBlue,LightBlue.jpg,,
,,,,,,,,,,,,,,,,,,-3,,,,,,,,,,,,,,,,,,,,,,,,,,,,,,,001,2021-12-16_23h08.56.109,jm_natural_scene_simialrity_2-12-2021_version2,2021.2.3,Win32,57.66015107,6108878a6817adc0fb1bfbf9,61bbc5c79a1c66460f44041e,61bbc60c0f6f7e06c585d116,,,-83.99998981,35.19996967,1,0,0,response7disk,4.887,-2.399939764,7.999993682,1,0,0,rectangle,-2.399939764,7.999993682,1,0,0,,-4,"[137,124,80,147,110,154,94,116,161,64]",-2.399939764,7.999993682,1,0,0,0,4,4,26,1,DarkGreen,DarkGreen.jpg,LightBlue,LightBlue.jpg,,
,,,,,,,,,,,,,,,,,,-4,,,,,,,,,,,,,,,,,,,,,,,,,,,,,,,001,2021-12-16_23h08.56.109,jm_natural_scene_simialrity_2-12-2021_version2,2021.2.3,Win32,57.66015107,6108878a6817adc0fb1bfbf9,61bbc5c79a1c66460f44041e,61bbc60c0f6f7e06c585d116,,,-37.59998912,71.99999464,1,0,0,response7disk,1.6163,-0.799988568,-9.60000658,1,0,0,rectangle,-0.799988568,-9.60000658,1,0,0,,-3,"[137,124,80,147,110,154,94,116,161,64]",-0.799988568,-9.60000658,1,0,0,0,5,5,69,1,Pink,Pink.jpg,DarkGreen,DarkGreen.jpg,,
,,,,,,,,,,,,,,,,,,-4,,,,,,,,,,,,,,,,,,,,,,,,,,,,,,,001,2021-12-16_23h08.56.109,jm_natural_scene_simialrity_2-12-2021_version2,2021.2.3,Win32,57.66015107,6108878a6817adc0fb1bfbf9,61bbc5c79a1c66460f44041e,61bbc60c0f6f7e06c585d116,,,-44.79998922,78.39999473,1,0,0,response7disk,4.5818,4.800011516,-3.200006485,1,0,0,rectangle,4.800011516,-3.200006485,1,0,0,,2,"[137,124,80,147,110,154,94,116,161,64]",4.800011516,-3.200006485,1,0,0,0,6,6,5,1,Red,Red.jpg,LightBlue,LightBlue.jpg,,
,,,,,,,,,,,,,,,,,,2,,,,,,,,,,,,,,,,,,,,,,,,,,,,,,,001,2021-12-16_23h08.56.109,jm_natural_scene_simialrity_2-12-2021_version2,2021.2.3,Win32,57.66015107,6108878a6817adc0fb1bfbf9,61bbc5c79a1c66460f44041e,61bbc60c0f6f7e06c585d116,,,101.600013,-28.80000687,1,0,0,response3disk,3.1653,4.800011516,4.799993634,1,0,0,rectangle,4.800011516,4.799993634,1,0,0,,1,"[137,124,80,147,110,154,94,116,161,64]",4.800011516,4.799993634,1,0,0,0,7,7,43,1,Pink,Pink.jpg,Purple,Purple.jpg,,
,,,,,,,,,,,,,,,,,,4,,,,,,,,,,,,,,,,,,,,,,,,,,,,,,,001,2021-12-16_23h08.56.109,jm_natural_scene_simialrity_2-12-2021_version2,2021.2.3,Win32,57.66015107,6108878a6817adc0fb1bfbf9,61bbc5c79a1c66460f44041e,61bbc60c0f6f7e06c585d116,,,53.60001224,98.39999503,1,0,0,response1disk,2.0817,5.600060356,3.19999361,1,0,0,rectangle,5.600060356,3.19999361,1,0,0,,3,"[137,124,80,147,110,154,94,116,161,64]",5.600060356,3.19999361,1,0,0,0,8,8,0,1,Red,Red.jpg,Red,Red.jpg,,
,,,,,,,,,,,,,,,,,,-4,,,,,,,,,,,,,,,,,,,,,,,,,,,,,,,001,2021-12-16_23h08.56.109,jm_natural_scene_simialrity_2-12-2021_version2,2021.2.3,Win32,57.66015107,6108878a6817adc0fb1bfbf9,61bbc5c79a1c66460f44041e,61bbc60c0f6f7e06c585d116,,,-57.59998941,91.99999493,1,0,0,response7disk,5.5476,7.200011551,6.399993658,1,0,0,rectangle,7.200011551,6.399993658,1,0,0,,1,"[137,124,80,147,110,154,94,116,161,64]",7.200011551,6.399993658,1,0,0,0,9,9,28,1,DarkGreen,DarkGreen.jpg,Pink,Pink.jpg,,
,,,,,,,,,,,,,,,,,,2,,,,,,,,,,,,,,,,,,,,,,,,,,,,,,,001,2021-12-16_23h08.56.109,jm_natural_scene_simialrity_2-12-2021_version2,2021.2.3,Win32,57.66015107,6108878a6817adc0fb1bfbf9,61bbc5c79a1c66460f44041e,61bbc60c0f6f7e06c585d116,,,106.400013,-47.20000714,1,0,0,response3disk,5.0976,4.800011516,7.999993682,1,0,0,rectangle,4.800011516,7.999993682,1,0,0,,1,"[137,124,80,147,110,154,94,116,161,64]",4.800011516,7.999993682,1,0,0,0,10,10,32,1,Turquiose,Turquiose.jpg,DarkBlue,DarkBlue.jpg,,
,,,,,,,,,,,,,,,,,,-4,,,,,,,,,,,,,,,,,,,,,,,,,,,,,,,001,2021-12-16_23h08.56.109,jm_natural_scene_simialrity_2-12-2021_version2,2021.2.3,Win32,57.66015107,6108878a6817adc0fb1bfbf9,61bbc5c79a1c66460f44041e,61bbc60c0f6f7e06c585d116,,,-46.39994042,83.19997039,1,0,0,response7disk,1.7321,5.600060356,-2.400006473,1,0,0,rectangle,5.600060356,-2.400006473,1,0,0,,-2,"[137,124,80,147,110,154,94,116,161,64]",5.600060356,-2.400006473,1,0,0,0,11,11,33,1,Turquiose,Turquiose.jpg,Pink,Pink.jpg,,
,,,,,,,,,,,,,,,,,,1,,,,,,,,,,,,,,,,,,,,,,,,,,,,,,,001,2021-12-16_23h08.56.109,jm_natural_scene_simialrity_2-12-2021_version2,2021.2.3,Win32,57.66015107,6108878a6817adc0fb1bfbf9,61bbc5c79a1c66460f44041e,61bbc60c0f6f7e06c585d116,,,66.40001243,-83.20000768,1,0,0,response3disk,3.1153,-2.399939764,-4.800006509,1,0,0,rectangle,-2.399939764,-4.800006509,1,0,0,,-3,"[137,124,80,147,110,154,94,116,161,64]",-2.399939764,-4.800006509,1,0,0,0,12,12,52,1,Purple,Purple.jpg,Red,Red.jpg,,
,,,,,,,,,,,,,,,,,,-1,,,,,,,,,,,,,,,,,,,,,,,,,,,,,,,001,2021-12-16_23h08.56.109,jm_natural_scene_simialrity_2-12-2021_version2,2021.2.3,Win32,57.66015107,6108878a6817adc0fb1bfbf9,61bbc5c79a1c66460f44041e,61bbc60c0f6f7e06c585d116,,,-31.19998902,-76.00000757,1,0,0,response5disk,4.0314,1.600060296,-3.200006485,1,0,0,rectangle,1.600060296,-3.200006485,1,0,0,,1,"[137,124,80,147,110,154,94,116,161,64]",1.600060296,-3.200006485,1,0,0,0,13,13,76,1,Pink,Pink.jpg,LightBlue,LightBlue.jpg,,
,,,,,,,,,,,,,,,,,,2,,,,,,,,,,,,,,,,,,,,,,,,,,,,,,,001,2021-12-16_23h08.56.109,jm_natural_scene_simialrity_2-12-2021_version2,2021.2.3,Win32,57.66015107,6108878a6817adc0fb1bfbf9,61bbc5c79a1c66460f44041e,61bbc60c0f6f7e06c585d116,,,111.2000131,-28.00000685,1,0,0,response3disk,2.3147,-7.999988675,0.799993575,1,0,0,rectangle,-7.999988675,0.799993575,1,0,0,,3,"[137,124,80,147,110,154,94,116,161,64]",-7.999988675,0.799993575,1,0,0,0,14,14,71,1,LightBlue,LightBlue.jpg,Turquiose,Turquiose.jpg,,
,,,,,,,,,,,,,,,,,,-3,,,,,,,,,,,,,,,,,,,,,,,,,,,,,,,001,2021-12-16_23h08.56.109,jm_natural_scene_simialrity_2-12-2021_version2,2021.2.3,Win32,57.66015107,6108878a6817adc0fb1bfbf9,61bbc5c79a1c66460f44041e,61bbc60c0f6f7e06c585d116,,,-93.59998995,40.79999417,1,0,0,response7disk,1.6485,5.600060356,-9.60000658,1,0,0,rectangle,5.600060356,-9.60000658,1,0,0,,1,"[137,124,80,147,110,154,94,116,161,64]",5.600060356,-9.60000658,1,0,0,0,15,15,59,1,Purple,Purple.jpg,Yellow,Yellow.jpg,,
,,,,,,,,,,,,,,,,,,4,,,,,,,,,,,,,,,,,,,,,,,,,,,,,,,001,2021-12-16_23h08.56.109,jm_natural_scene_simialrity_2-12-2021_version2,2021.2.3,Win32,57.66015107,6108878a6817adc0fb1bfbf9,61bbc5c79a1c66460f44041e,61bbc60c0f6f7e06c585d116,,,45.60006095,99.19997063,1,0,0,response1disk,1.2995,-1.59998858,3.19999361,1,0,0,rectangle,-1.59998858,3.19999361,1,0,0,,-3,"[137,124,80,147,110,154,94,116,161,64]",-1.59998858,3.19999361,1,0,0,0,16,16,24,1,DarkGreen,DarkGreen.jpg,DarkGreen,DarkGreen.jpg,,
,,,,,,,,,,,,,,,,,,2,,,,,,,,,,,,,,,,,,,,,,,,,,,,,,,001,2021-12-16_23h08.56.109,jm_natural_scene_simialrity_2-12-2021_version2,2021.2.3,Win32,57.66015107,6108878a6817adc0fb1bfbf9,61bbc5c79a1c66460f44041e,61bbc60c0f6f7e06c585d116,,,90.40001279,-36.80000699,1,0,0,response3disk,1.7156,-1.59998858,-1.600006461,1,0,0,rectangle,-1.59998858,-1.600006461,1,0,0,,1,"[137,124,80,147,110,154,94,116,161,64]",-1.59998858,-1.600006461,1,0,0,0,17,17,38,1,LightBlue,LightBlue.jpg,Purple,Purple.jpg,,
,,,,,,,,,,,,,,,,,,-2,,,,,,,,,,,,,,,,,,,,,,,,,,,,,,,001,2021-12-16_23h08.56.109,jm_natural_scene_simialrity_2-12-2021_version2,2021.2.3,Win32,57.66015107,6108878a6817adc0fb1bfbf9,61bbc5c79a1c66460f44041e,61bbc60c0f6f7e06c585d116,,,-110.3999414,-42.40000707,1,0,0,response5disk,1.5114,2.40001148,8.799993694,1,0,0,rectangle,2.40001148,8.799993694,1,0,0,,-4,"[137,124,80,147,110,154,94,116,161,64]",2.40001148,8.799993694,1,0,0,0,18,18,55,1,Turquiose,Turquiose.jpg,Yellow,Yellow.jpg,,
,,,,,,,,,,,,,,,,,,-4,,,,,,,,,,,,,,,,,,,,,,,,,,,,,,,001,2021-12-16_23h08.56.109,jm_natural_scene_simialrity_2-12-2021_version2,2021.2.3,Win32,57.66015107,6108878a6817adc0fb1bfbf9,61bbc5c79a1c66460f44041e,61bbc60c0f6f7e06c585d116,,,-36.7999891,111.1999708,1,0,0,response7disk,1.1043,8.800011575,-6.400006533,1,0,0,rectangle,8.800011575,-6.400006533,1,0,0,,2,"[137,124,80,147,110,154,94,116,161,64]",8.800011575,-6.400006533,1,0,0,0,19,19,64,1,Pink,Pink.jpg,LightGreen,LightGreen.jpg,,
,,,,,,,,,,,,,,,,,,-1,,,,,,,,,,,,,,,,,,,,,,,,,,,,,,,001,2021-12-16_23h08.56.109,jm_natural_scene_simialrity_2-12-2021_version2,2021.2.3,Win32,57.66015107,6108878a6817adc0fb1bfbf9,61bbc5c79a1c66460f44041e,61bbc60c0f6f7e06c585d116,,,-34.39994024,-96.80000788,1,0,0,response5disk,1.9155,-6.399939823,-4.000006497,1,0,0,rectangle,-6.399939823,-4.000006497,1,0,0,,3,"[137,124,80,147,110,154,94,116,161,64]",-6.399939823,-4.000006497,1,0,0,0,20,20,8,1,Red,Red.jpg,Purple,Purple.jpg,,
,,,,,,,,,,,,,,,,,,1,,,,,,,,,,,,,,,,,,,,,,,,,,,,,,,001,2021-12-16_23h08.56.109,jm_natural_scene_simialrity_2-12-2021_version2,2021.2.3,Win32,57.66015107,6108878a6817adc0fb1bfbf9,61bbc5c79a1c66460f44041e,61bbc60c0f6f7e06c585d116,,,44.80001211,-80.00000763,1,0,0,response3disk,1.1833,5.600060356,-1.600006461,1,0,0,rectangle,5.600060356,-1.600006461,1,0,0,,1,"[137,124,80,147,110,154,94,116,161,64]",5.600060356,-1.600006461,1,0,0,0,21,21,36,1,LightBlue,LightBlue.jpg,DarkBlue,DarkBlue.jpg,,
,,,,,,,,,,,,,,,,,,2,,,,,,,,,,,,,,,,,,,,,,,,,,,,,,,001,2021-12-16_23h08.56.109,jm_natural_scene_simialrity_2-12-2021_version2,2021.2.3,Win32,57.66015107,6108878a6817adc0fb1bfbf9,61bbc5c79a1c66460f44041e,61bbc60c0f6f7e06c585d116,,,105.600013,-52.80000722,1,0,0,response3disk,2.9155,-0.799988568,-6.400006533,1,0,0,rectangle,-0.799988568,-6.400006533,1,0,0,,-2,"[137,124,80,147,110,154,94,116,161,64]",-0.799988568,-6.400006533,1,0,0,0,22,22,60,1,DarkGreen,DarkGreen.jpg,LightGreen,LightGreen.jpg,,
,,,,,,,,,,,,,,,,,,-3,,,,,,,,,,,,,,,,,,,,,,,,,,,,,,,001,2021-12-16_23h08.56.109,jm_natural_scene_simialrity_2-12-2021_version2,2021.2.3,Win32,57.66015107,6108878a6817adc0fb1bfbf9,61bbc5c79a1c66460f44041e,61bbc60c0f6f7e06c585d116,,,-71.19998962,61.59999448,1,0,0,response7disk,1.6278,-2.399939764,1.599993587,1,0,0,rectangle,-2.399939764,1.599993587,1,0,0,,1,"[137,124,80,147,110,154,94,116,161,64]",-2.399939764,1.599993587,1,0,0,0,23,23,29,1,DarkGreen,DarkGreen.jpg,Purple,Purple.jpg,,
,,,,,,,,,,,,,,,,,,-3,,,,,,,,,,,,,,,,,,,,,,,,,,,,,,,001,2021-12-16_23h08.56.109,jm_natural_scene_simialrity_2-12-2021_version2,2021.2.3,Win32,57.66015107,6108878a6817adc0fb1bfbf9,61bbc5c79a1c66460f44041e,61bbc60c0f6f7e06c585d116,,,-75.99998969,27.19996955,1,0,0,response7disk,1.383,-1.59998858,0.799993575,1,0,0,rectangle,-1.59998858,0.799993575,1,0,0,,-3,"[137,124,80,147,110,154,94,116,161,64]",-1.59998858,0.799993575,1,0,0,0,24,24,15,1,Yellow,Yellow.jpg,Pink,Pink.jpg,,
,,,,,,,,,,,,,,,,,,-4,,,,,,,,,,,,,,,,,,,,,,,,,,,,,,,001,2021-12-16_23h08.56.109,jm_natural_scene_simialrity_2-12-2021_version2,2021.2.3,Win32,57.66015107,6108878a6817adc0fb1bfbf9,61bbc5c79a1c66460f44041e,61bbc60c0f6f7e06c585d116,,,-47.99998927,82.39999479,1,0,0,response7disk,2.6816,3.200011492,1.599993587,1,0,0,rectangle,3.200011492,1.599993587,1,0,0,,1,"[137,124,80,147,110,154,94,116,161,64]",3.200011492,1.599993587,1,0,0,0,25,25,74,1,Purple,Purple.jpg,Turquiose,Turquiose.jpg,,
,,,,,,,,,,,,,,,,,,4,,,,,,,,,,,,,,,,,,,,,,,,,,,,,,,001,2021-12-16_23h08.56.109,jm_natural_scene_simialrity_2-12-2021_version2,2021.2.3,Win32,57.66015107,6108878a6817adc0fb1bfbf9,61bbc5c79a1c66460f44041e,61bbc60c0f6f7e06c585d116,,,36.00001198,113.5999953,1,0,0,response1disk,1.3487,-4.799988627,-3.200006485,1,0,0,rectangle,-4.799988627,-3.200006485,1,0,0,,1,"[137,124,80,147,110,154,94,116,161,64]",-4.799988627,-3.200006485,1,0,0,0,26,26,44,1,Purple,Purple.jpg,Purple,Purple.jpg,,
,,,,,,,,,,,,,,,,,,-2,,,,,,,,,,,,,,,,,,,,,,,,,,,,,,,001,2021-12-16_23h08.56.109,jm_natural_scene_simialrity_2-12-2021_version2,2021.2.3,Win32,57.66015107,6108878a6817adc0fb1bfbf9,61bbc5c79a1c66460f44041e,61bbc60c0f6f7e06c585d116,,,-99.19999003,-32.00000691,1,0,0,response5disk,1.8994,-3.999988616,6.399993658,1,0,0,rectangle,-3.999988616,6.399993658,1,0,0,,-2,"[137,124,80,147,110,154,94,116,161,64]",-3.999988616,6.399993658,1,0,0,0,27,27,37,1,LightBlue,LightBlue.jpg,Pink,Pink.jpg,,
,,,,,,,,,,,,,,,,,,1,,,,,,,,,,,,,,,,,,,,,,,,,,,,,,,001,2021-12-16_23h08.56.109,jm_natural_scene_simialrity_2-12-2021_version2,2021.2.3,Win32,57.66015107,6108878a6817adc0fb1bfbf9,61bbc5c79a1c66460f44041e,61bbc60c0f6f7e06c585d116,,,36.80001199,-61.60000736,1,0,0,response3disk,1.2319,-11.19998872,1.599993587,1,0,0,rectangle,-11.19998872,1.599993587,1,0,0,,-4,"[137,124,80,147,110,154,94,116,161,64]",-11.19998872,1.599993587,1,0,0,0,28,28,31,1,Turquiose,Turquiose.jpg,LightBlue,LightBlue.jpg,,
,,,,,,,,,,,,,,,,,,1,,,,,,,,,,,,,,,,,,,,,,,,,,,,,,,001,2021-12-16_23h08.56.109,jm_natural_scene_simialrity_2-12-2021_version2,2021.2.3,Win32,57.66015107,6108878a6817adc0fb1bfbf9,61bbc5c79a1c66460f44041e,61bbc60c0f6f7e06c585d116,,,43.20001209,-79.20000762,1,0,0,response3disk,1.1459,-9.599988699,0.799993575,1,0,0,rectangle,-9.599988699,0.799993575,1,0,0,,-2,"[137,124,80,147,110,154,94,116,161,64]",-9.599988699,0.799993575,1,0,0,0,29,29,75,1,DarkBlue,DarkBlue.jpg,LightBlue,LightBlue.jpg,,
,,,,,,,,,,,,,,,,,,2,,,,,,,,,,,,,,,,,,,,,,,,,,,,,,,001,2021-12-16_23h08.56.109,jm_natural_scene_simialrity_2-12-2021_version2,2021.2.3,Win32,57.66015107,6108878a6817adc0fb1bfbf9,61bbc5c79a1c66460f44041e,61bbc60c0f6f7e06c585d116,,,86.40001273,-36.00000697,1,0,0,response3disk,1.3198,-2.399939764,-8.000006557,1,0,0,rectangle,-2.399939764,-8.000006557,1,0,0,,3,"[137,124,80,147,110,154,94,116,161,64]",-2.399939764,-8.000006557,1,0,0,0,30,30,58,1,Pink,Pink.jpg,Yellow,Yellow.jpg,,
,,,,,,,,,,,,,,,,,,-3,,,,,,,,,,,,,,,,,,,,,,,,,,,,,,,001,2021-12-16_23h08.56.109,jm_natural_scene_simialrity_2-12-2021_version2,2021.2.3,Win32,57.66015107,6108878a6817adc0fb1bfbf9,61bbc5c79a1c66460f44041e,61bbc60c0f6f7e06c585d116,,,-65.59998953,34.39999408,1,0,0,response7disk,1.1058,-1.59998858,0.799993575,1,0,0,rectangle,-1.59998858,0.799993575,1,0,0,,-3,"[137,124,80,147,110,154,94,116,161,64]",-1.59998858,0.799993575,1,0,0,0,31,31,57,1,DarkBlue,DarkBlue.jpg,Yellow,Yellow.jpg,,
,,,,,,,,,,,,,,,,,,-4,,,,,,,,,,,,,,,,,,,,,,,,,,,,,,,001,2021-12-16_23h08.56.109,jm_natural_scene_simialrity_2-12-2021_version2,2021.2.3,Win32,57.66015107,6108878a6817adc0fb1bfbf9,61bbc5c79a1c66460f44041e,61bbc60c0f6f7e06c585d116,,,-34.39994024,72.79999465,1,0,0,response7disk,1.699,0.800011456,-10.40000659,1,0,0,rectangle,0.800011456,-10.40000659,1,0,0,,-2,"[137,124,80,147,110,154,94,116,161,64]",0.800011456,-10.40000659,1,0,0,0,32,32,34,1,Turquiose,Turquiose.jpg,Purple,Purple.jpg,,
,,,,,,,,,,,,,,,,,,-4,,,,,,,,,,,,,,,,,,,,,,,,,,,,,,,001,2021-12-16_23h08.56.109,jm_natural_scene_simialrity_2-12-2021_version2,2021.2.3,Win32,57.66015107,6108878a6817adc0fb1bfbf9,61bbc5c79a1c66460f44041e,61bbc60c0f6f7e06c585d116,,,-53.59998935,83.19997039,1,0,0,response7disk,1.6491,-5.599988639,11.19999373,1,0,0,rectangle,-5.599988639,11.19999373,1,0,0,,3,"[137,124,80,147,110,154,94,116,161,64]",-5.599988639,11.19999373,1,0,0,0,33,33,63,1,DarkBlue,DarkBlue.jpg,LightGreen,LightGreen.jpg,,
,,,,,,,,,,,,,,,,,,-4,,,,,,,,,,,,,,,,,,,,,,,,,,,,,,,001,2021-12-16_23h08.56.109,jm_natural_scene_simialrity_2-12-2021_version2,2021.2.3,Win32,57.66015107,6108878a6817adc0fb1bfbf9,61bbc5c79a1c66460f44041e,61bbc60c0f6f7e06c585d116,,,-46.39994042,109.5999952,1,0,0,response7disk,1.2824,1.14441E-05,21.59999388,1,0,0,rectangle,1.14441E-05,21.59999388,1,0,0,,-2,"[137,124,80,147,110,154,94,116,161,64]",1.14441E-05,21.59999388,1,0,0,0,34,34,73,1,Pink,Pink.jpg,Turquiose,Turquiose.jpg,,
,,,,,,,,,,,,,,,,,,1,,,,,,,,,,,,,,,,,,,,,,,,,,,,,,,001,2021-12-16_23h08.56.109,jm_natural_scene_simialrity_2-12-2021_version2,2021.2.3,Win32,57.66015107,6108878a6817adc0fb1bfbf9,61bbc5c79a1c66460f44041e,61bbc60c0f6f7e06c585d116,,,43.20001209,-94.40000784,1,0,0,response3disk,2.4823,-5.599988639,1.599993587,1,0,0,rectangle,-5.599988639,1.599993587,1,0,0,,2,"[137,124,80,147,110,154,94,116,161,64]",-5.599988639,1.599993587,1,0,0,0,35,35,70,1,Purple,Purple.jpg,DarkGreen,DarkGreen.jpg,,
,,,,,,,,,,,,,,,,,,-3,,,,,,,,,,,,,,,,,,,,,,,,,,,,,,,001,2021-12-16_23h08.56.109,jm_natural_scene_simialrity_2-12-2021_version2,2021.2.3,Win32,57.66015107,6108878a6817adc0fb1bfbf9,61bbc5c79a1c66460f44041e,61bbc60c0f6f7e06c585d116,,,-75.99998969,48.79999429,1,0,0,response7disk,1.5823,8.000011563,10.39999372,1,0,0,rectangle,8.000011563,10.39999372,1,0,0,,-3,"[137,124,80,147,110,154,94,116,161,64]",8.000011563,10.39999372,1,0,0,0,36,36,21,1,LightGreen,LightGreen.jpg,DarkBlue,DarkBlue.jpg,,
,,,,,,,,,,,,,,,,,,-1,,,,,,,,,,,,,,,,,,,,,,,,,,,,,,,001,2021-12-16_23h08.56.109,jm_natural_scene_simialrity_2-12-2021_version2,2021.2.3,Win32,57.66015107,6108878a6817adc0fb1bfbf9,61bbc5c79a1c66460f44041e,61bbc60c0f6f7e06c585d116,,,-55.99998939,-84.00000769,1,0,0,response5disk,1.5997,-8.799988687,2.399993598,1,0,0,rectangle,-8.799988687,2.399993598,1,0,0,,2,"[137,124,80,147,110,154,94,116,161,64]",-8.799988687,2.399993598,1,0,0,0,37,37,51,1,Pink,Pink.jpg,Red,Red.jpg,,
,,,,,,,,,,,,,,,,,,-4,,,,,,,,,,,,,,,,,,,,,,,,,,,,,,,001,2021-12-16_23h08.56.109,jm_natural_scene_simialrity_2-12-2021_version2,2021.2.3,Win32,57.66015107,6108878a6817adc0fb1bfbf9,61bbc5c79a1c66460f44041e,61bbc60c0f6f7e06c585d116,,,-45.59998924,75.19997027,1,0,0,response7disk,1.9319,1.600060296,4.799993634,1,0,0,rectangle,1.600060296,4.799993634,1,0,0,,-4,"[137,124,80,147,110,154,94,116,161,64]",1.600060296,4.799993634,1,0,0,0,38,38,2,1,Red,Red.jpg,LightGreen,LightGreen.jpg,,
,,,,,,,,,,,,,,,,,,4,,,,,,,,,,,,,,,,,,,,,,,,,,,,,,,001,2021-12-16_23h08.56.109,jm_natural_scene_simialrity_2-12-2021_version2,2021.2.3,Win32,57.66015107,6108878a6817adc0fb1bfbf9,61bbc5c79a1c66460f44041e,61bbc60c0f6f7e06c585d116,,,62.40001237,104.7999951,1,0,0,response1disk,1.4321,-3.199988604,-0.800006449,1,0,0,rectangle,-3.199988604,-0.800006449,1,0,0,,-4,"[137,124,80,147,110,154,94,116,161,64]",-3.199988604,-0.800006449,1,0,0,0,39,39,35,1,LightBlue,LightBlue.jpg,LightBlue,LightBlue.jpg,,
,,,,,,,,,,,,,,,,,,-3,,,,,,,,,,,,,,,,,,,,,,,,,,,,,,,001,2021-12-16_23h08.56.109,jm_natural_scene_simialrity_2-12-2021_version2,2021.2.3,Win32,57.66015107,6108878a6817adc0fb1bfbf9,61bbc5c79a1c66460f44041e,61bbc60c0f6f7e06c585d116,,,-95.19998997,43.19996979,1,0,0,response7disk,2.4484,-1.59998858,10.39999372,1,0,0,rectangle,-1.59998858,10.39999372,1,0,0,,-1,"[137,124,80,147,110,154,94,116,161,64]",-1.59998858,10.39999372,1,0,0,0,40,40,10,1,Yellow,Yellow.jpg,LightGreen,LightGreen.jpg,,
,,,,,,,,,,,,,,,,,,-4,,,,,,,,,,,,,,,,,,,,,,,,,,,,,,,001,2021-12-16_23h08.56.109,jm_natural_scene_simialrity_2-12-2021_version2,2021.2.3,Win32,57.66015107,6108878a6817adc0fb1bfbf9,61bbc5c79a1c66460f44041e,61bbc60c0f6f7e06c585d116,,,-32.79998904,83.99999481,1,0,0,response7disk,1.0665,-4.799988627,6.399993658,1,0,0,rectangle,-4.799988627,6.399993658,1,0,0,,-4,"[137,124,80,147,110,154,94,116,161,64]",-4.799988627,6.399993658,1,0,0,0,41,41,40,1,DarkBlue,DarkBlue.jpg,Pink,Pink.jpg,,
,,,,,,,,,,,,,,,,,,-4,,,,,,,,,,,,,,,,,,,,,,,,,,,,,,,001,2021-12-16_23h08.56.109,jm_natural_scene_simialrity_2-12-2021_version2,2021.2.3,Win32,57.66015107,6108878a6817adc0fb1bfbf9,61bbc5c79a1c66460f44041e,61bbc60c0f6f7e06c585d116,,,-46.39994042,68.79999459,1,0,0,response7disk,1.3135,4.800011516,7.19999367,1,0,0,rectangle,4.800011516,7.19999367,1,0,0,,3,"[137,124,80,147,110,154,94,116,161,64]",4.800011516,7.19999367,1,0,0,0,42,42,4,1,Red,Red.jpg,Turquiose,Turquiose.jpg,,
,,,,,,,,,,,,,,,,,,-4,,,,,,,,,,,,,,,,,,,,,,,,,,,,,,,001,2021-12-16_23h08.56.109,jm_natural_scene_simialrity_2-12-2021_version2,2021.2.3,Win32,57.66015107,6108878a6817adc0fb1bfbf9,61bbc5c79a1c66460f44041e,61bbc60c0f6f7e06c585d116,,,-51.99998933,95.19997057,1,0,0,response7disk,2.7938,-5.599988639,-5.600006521,1,0,0,rectangle,-5.599988639,-5.600006521,1,0,0,,3,"[137,124,80,147,110,154,94,116,161,64]",-5.599988639,-5.600006521,1,0,0,0,43,43,11,1,Yellow,Yellow.jpg,DarkGreen,DarkGreen.jpg,,
,,,,,,,,,,,,,,,,,,-2,,,,,,,,,,,,,,,,,,,,,,,,,,,,,,,001,2021-12-16_23h08.56.109,jm_natural_scene_simialrity_2-12-2021_version2,2021.2.3,Win32,57.66015107,6108878a6817adc0fb1bfbf9,61bbc5c79a1c66460f44041e,61bbc60c0f6f7e06c585d116,,,-72.79998964,-36.00000697,1,0,0,response5disk,1.2998,12.00001162,3.19999361,1,0,0,rectangle,12.00001162,3.19999361,1,0,0,,-3,"[137,124,80,147,110,154,94,116,161,64]",12.00001162,3.19999361,1,0,0,0,44,44,1,1,Red,Red.jpg,Yellow,Yellow.jpg,,
,,,,,,,,,,,,,,,,,,-4,,,,,,,,,,,,,,,,,,,,,,,,,,,,,,,001,2021-12-16_23h08.56.109,jm_natural_scene_simialrity_2-12-2021_version2,2021.2.3,Win32,57.66015107,6108878a6817adc0fb1bfbf9,61bbc5c79a1c66460f44041e,61bbc60c0f6f7e06c585d116,,,-33.59998906,74.39999467,1,0,0,response7disk,1.5494,-7.199988663,7.19999367,1,0,0,rectangle,-7.199988663,7.19999367,1,0,0,,-4,"[137,124,80,147,110,154,94,116,161,64]",-7.199988663,7.19999367,1,0,0,0,45,45,19,1,LightGreen,LightGreen.jpg,Turquiose,Turquiose.jpg,,
,,,,,,,,,,,,,,,,,,-4,,,,,,,,,,,,,,,,,,,,,,,,,,,,,,,001,2021-12-16_23h08.56.109,jm_natural_scene_simialrity_2-12-2021_version2,2021.2.3,Win32,57.66015107,6108878a6817adc0fb1bfbf9,61bbc5c79a1c66460f44041e,61bbc60c0f6f7e06c585d116,,,-47.99998927,92.79999495,1,0,0,response7disk,1.7157,-7.199988663,8.799993694,1,0,0,rectangle,-7.199988663,8.799993694,1,0,0,,-2,"[137,124,80,147,110,154,94,116,161,64]",-7.199988663,8.799993694,1,0,0,0,46,46,56,1,LightBlue,LightBlue.jpg,Yellow,Yellow.jpg,,
,,,,,,,,,,,,,,,,,,-2,,,,,,,,,,,,,,,,,,,,,,,,,,,,,,,001,2021-12-16_23h08.56.109,jm_natural_scene_simialrity_2-12-2021_version2,2021.2.3,Win32,57.66015107,6108878a6817adc0fb1bfbf9,61bbc5c79a1c66460f44041e,61bbc60c0f6f7e06c585d116,,,-79.19998974,-40.00000703,1,0,0,response5disk,1.7322,-5.599988639,5.599993646,1,0,0,rectangle,-5.599988639,5.599993646,1,0,0,,-2,"[137,124,80,147,110,154,94,116,161,64]",-5.599988639,5.599993646,1,0,0,0,47,47,80,1,Purple,Purple.jpg,Pink,Pink.jpg,,
,,,,,,,,,,,,,,,,,,4,,,,,,,,,,,,,,,,,,,,,,,,,,,,,,,001,2021-12-16_23h08.56.109,jm_natural_scene_simialrity_2-12-2021_version2,2021.2.3,Win32,57.66015107,6108878a6817adc0fb1bfbf9,61bbc5c79a1c66460f44041e,61bbc60c0f6f7e06c585d116,,,52.00001222,93.59999496,1,0,0,response1disk,1.022,3.200011492,-9.60000658,1,0,0,rectangle,3.200011492,-9.60000658,1,0,0,,-3,"[137,124,80,147,110,154,94,116,161,64]",3.200011492,-9.60000658,1,0,0,0,48,48,42,1,Pink,Pink.jpg,Pink,Pink.jpg,,
,,,,,,,,,,,,,,,,,,-3,,,,,,,,,,,,,,,,,,,,,,,,,,,,,,,001,2021-12-16_23h08.56.109,jm_natural_scene_simialrity_2-12-2021_version2,2021.2.3,Win32,57.66015107,6108878a6817adc0fb1bfbf9,61bbc5c79a1c66460f44041e,61bbc60c0f6f7e06c585d116,,,-76.7999897,41.59999418,1,0,0,response7disk,2.6743,-3.999988616,0.799993575,1,0,0,rectangle,-3.999988616,0.799993575,1,0,0,,-2,"[137,124,80,147,110,154,94,116,161,64]",-3.999988616,0.799993575,1,0,0,0,49,49,12,1,Yellow,Yellow.jpg,Turquiose,Turquiose.jpg,,
,,,,,,,,,,,,,,,,,,-1,,,,,,,,,,,,,,,,,,,,,,,,,,,,,,,001,2021-12-16_23h08.56.109,jm_natural_scene_simialrity_2-12-2021_version2,2021.2.3,Win32,57.66015107,6108878a6817adc0fb1bfbf9,61bbc5c79a1c66460f44041e,61bbc60c0f6f7e06c585d116,,,-37.59998912,-73.60000753,1,0,0,response5disk,1.4993,-1.59998858,-6.4373E-06,1,0,0,rectangle,-1.59998858,-6.4373E-06,1,0,0,,-1,"[137,124,80,147,110,154,94,116,161,64]",-1.59998858,-6.4373E-06,1,0,0,0,50,50,66,1,Turquiose,Turquiose.jpg,DarkGreen,DarkGreen.jpg,,
,,,,,,,,,,,,,,,,,,1,,,,,,,,,,,,,,,,,,,,,,,,,,,,,,,001,2021-12-16_23h08.56.109,jm_natural_scene_simialrity_2-12-2021_version2,2021.2.3,Win32,57.66015107,6108878a6817adc0fb1bfbf9,61bbc5c79a1c66460f44041e,61bbc60c0f6f7e06c585d116,,,55.20001227,-84.00000769,1,0,0,response3disk,2.241,-20.79998887,5.599993646,1,0,0,rectangle,-20.79998887,5.599993646,1,0,0,,-1,"[137,124,80,147,110,154,94,116,161,64]",-20.79998887,5.599993646,1,0,0,0,51,51,23,1,LightGreen,LightGreen.jpg,Purple,Purple.jpg,,
,,,,,,,,,,,,,,,,,,-2,,,,,,,,,,,,,,,,,,,,,,,,,,,,,,,001,2021-12-16_23h08.56.109,jm_natural_scene_simialrity_2-12-2021_version2,2021.2.3,Win32,57.66015107,6108878a6817adc0fb1bfbf9,61bbc5c79a1c66460f44041e,61bbc60c0f6f7e06c585d116,,,-83.1999898,-28.80000687,1,0,0,response5disk,2.3321,-3.199988604,-0.800006449,1,0,0,rectangle,-3.199988604,-0.800006449,1,0,0,,-4,"[137,124,80,147,110,154,94,116,161,64]",-3.199988604,-0.800006449,1,0,0,0,52,52,27,1,DarkGreen,DarkGreen.jpg,DarkBlue,DarkBlue.jpg,,
,,,,,,,,,,,,,,,,,,-3,,,,,,,,,,,,,,,,,,,,,,,,,,,,,,,001,2021-12-16_23h08.56.109,jm_natural_scene_simialrity_2-12-2021_version2,2021.2.3,Win32,57.66015107,6108878a6817adc0fb1bfbf9,61bbc5c79a1c66460f44041e,61bbc60c0f6f7e06c585d116,,,-80.79998976,44.79999423,1,0,0,response7disk,2.2187,-7.199988663,8.799993694,1,0,0,rectangle,-7.199988663,8.799993694,1,0,0,,2,"[137,124,80,147,110,154,94,116,161,64]",-7.199988663,8.799993694,1,0,0,0,53,53,22,1,LightGreen,LightGreen.jpg,Pink,Pink.jpg,,
,,,,,,,,,,,,,,,,,,2,,,,,,,,,,,,,,,,,,,,,,,,,,,,,,,001,2021-12-16_23h08.56.109,jm_natural_scene_simialrity_2-12-2021_version2,2021.2.3,Win32,57.66015107,6108878a6817adc0fb1bfbf9,61bbc5c79a1c66460f44041e,61bbc60c0f6f7e06c585d116,,,104.000013,-39.20000702,1,0,0,response3disk,3.0947,-3.199988604,-8.000006557,1,0,0,rectangle,-3.199988604,-8.000006557,1,0,0,,-1,"[137,124,80,147,110,154,94,116,161,64]",-3.199988604,-8.000006557,1,0,0,0,54,54,18,1,LightGreen,LightGreen.jpg,DarkGreen,DarkGreen.jpg,,
,,,,,,,,,,,,,,,,,,-4,,,,,,,,,,,,,,,,,,,,,,,,,,,,,,,001,2021-12-16_23h08.56.109,jm_natural_scene_simialrity_2-12-2021_version2,2021.2.3,Win32,57.66015107,6108878a6817adc0fb1bfbf9,61bbc5c79a1c66460f44041e,61bbc60c0f6f7e06c585d116,,,-53.59998935,77.59999472,1,0,0,response7disk,1.4164,-4.799988627,7.999993682,1,0,0,rectangle,-4.799988627,7.999993682,1,0,0,,-2,"[137,124,80,147,110,154,94,116,161,64]",-4.799988627,7.999993682,1,0,0,0,55,55,3,1,Red,Red.jpg,DarkGreen,DarkGreen.jpg,,
,,,,,,,,,,,,,,,,,,-1,,,,,,,,,,,,,,,,,,,,,,,,,,,,,,,001,2021-12-16_23h08.56.109,jm_natural_scene_simialrity_2-12-2021_version2,2021.2.3,Win32,57.66015107,6108878a6817adc0fb1bfbf9,61bbc5c79a1c66460f44041e,61bbc60c0f6f7e06c585d116,,,-49.5999893,-80.80000764,1,0,0,response5disk,1.3047,2.40001148,5.599993646,1,0,0,rectangle,2.40001148,5.599993646,1,0,0,,2,"[137,124,80,147,110,154,94,116,161,64]",2.40001148,5.599993646,1,0,0,0,56,56,25,1,DarkGreen,DarkGreen.jpg,Turquiose,Turquiose.jpg,,
,,,,,,,,,,,,,,,,,,4,,,,,,,,,,,,,,,,,,,,,,,,,,,,,,,001,2021-12-16_23h08.56.109,jm_natural_scene_simialrity_2-12-2021_version2,2021.2.3,Win32,57.66015107,6108878a6817adc0fb1bfbf9,61bbc5c79a1c66460f44041e,61bbc60c0f6f7e06c585d116,,,57.6000123,93.59999496,1,0,0,response1disk,1.1458,13.60006047,1.599993587,1,0,0,rectangle,13.60006047,1.599993587,1,0,0,,-4,"[137,124,80,147,110,154,94,116,161,64]",13.60006047,1.599993587,1,0,0,0,57,57,39,1,DarkBlue,DarkBlue.jpg,DarkBlue,DarkBlue.jpg,,
,,,,,,,,,,,,,,,,,,2,,,,,,,,,,,,,,,,,,,,,,,,,,,,,,,001,2021-12-16_23h08.56.109,jm_natural_scene_simialrity_2-12-2021_version2,2021.2.3,Win32,57.66015107,6108878a6817adc0fb1bfbf9,61bbc5c79a1c66460f44041e,61bbc60c0f6f7e06c585d116,,,70.40001249,-31.2000069,1,0,0,response3disk,1.3326,-8.799988687,-4.800006509,1,0,0,rectangle,-8.799988687,-4.800006509,1,0,0,,-3,"[137,124,80,147,110,154,94,116,161,64]",-8.799988687,-4.800006509,1,0,0,0,58,58,7,1,Red,Red.jpg,Pink,Pink.jpg,,
,,,,,,,,,,,,,,,,,,-3,,,,,,,,,,,,,,,,,,,,,,,,,,,,,,,001,2021-12-16_23h08.56.109,jm_natural_scene_simialrity_2-12-2021_version2,2021.2.3,Win32,57.66015107,6108878a6817adc0fb1bfbf9,61bbc5c79a1c66460f44041e,61bbc60c0f6f7e06c585d116,,,-63.99998951,49.5999943,1,0,0,response7disk,1.4739,-2.399939764,23.19996949,1,0,0,rectangle,-2.399939764,23.19996949,1,0,0,,-4,"[137,124,80,147,110,154,94,116,161,64]",-2.399939764,23.19996949,1,0,0,0,59,59,49,1,LightBlue,LightBlue.jpg,Red,Red.jpg,,
,,,,,,,,,,,,,,,,,,-4,,,,,,,,,,,,,,,,,,,,,,,,,,,,,,,001,2021-12-16_23h08.56.109,jm_natural_scene_simialrity_2-12-2021_version2,2021.2.3,Win32,57.66015107,6108878a6817adc0fb1bfbf9,61bbc5c79a1c66460f44041e,61bbc60c0f6f7e06c585d116,,,-35.99998909,71.19997021,1,0,0,response7disk,1.0154,11.20001161,6.399993658,1,0,0,rectangle,11.20001161,6.399993658,1,0,0,,-2,"[137,124,80,147,110,154,94,116,161,64]",11.20001161,6.399993658,1,0,0,0,60,60,6,1,Red,Red.jpg,DarkBlue,DarkBlue.jpg,,
,,,,,,,,,,,,,,,,,,-4,,,,,,,,,,,,,,,,,,,,,,,,,,,,,,,001,2021-12-16_23h08.56.109,jm_natural_scene_simialrity_2-12-2021_version2,2021.2.3,Win32,57.66015107,6108878a6817adc0fb1bfbf9,61bbc5c79a1c66460f44041e,61bbc60c0f6f7e06c585d116,,,-41.59998918,48.79999429,1,0,0,response7disk,0.9255,7.200011551,-18.40000671,1,0,0,rectangle,7.200011551,-18.40000671,1,0,0,,-2,"[137,124,80,147,110,154,94,116,161,64]",7.200011551,-18.40000671,1,0,0,0,61,61,53,1,LightGreen,LightGreen.jpg,Yellow,Yellow.jpg,,
,,,,,,,,,,,,,,,,,,-2,,,,,,,,,,,,,,,,,,,,,,,,,,,,,,,001,2021-12-16_23h08.56.109,jm_natural_scene_simialrity_2-12-2021_version2,2021.2.3,Win32,57.66015107,6108878a6817adc0fb1bfbf9,61bbc5c79a1c66460f44041e,61bbc60c0f6f7e06c585d116,,,-62.39994066,-52.80000722,1,0,0,response5disk,2.2226,-3.199988604,7.999993682,1,0,0,rectangle,-3.199988604,7.999993682,1,0,0,,2,"[137,124,80,147,110,154,94,116,161,64]",-3.199988604,7.999993682,1,0,0,0,62,62,62,1,LightBlue,LightBlue.jpg,LightGreen,LightGreen.jpg,,
,,,,,,,,,,,,,,,,,,-4,,,,,,,,,,,,,,,,,,,,,,,,,,,,,,,001,2021-12-16_23h08.56.109,jm_natural_scene_simialrity_2-12-2021_version2,2021.2.3,Win32,57.66015107,6108878a6817adc0fb1bfbf9,61bbc5c79a1c66460f44041e,61bbc60c0f6f7e06c585d116,,,-41.59998918,92.79999495,1,0,0,response7disk,1.5482,0.800011456,-6.4373E-06,1,0,0,rectangle,50.4000122,-95.20000786,1,0,0,1,1,"[137,124,80,147,110,154,94,116,161,64]",1.600060296,-1.600006461,1,0,0,0,63,63,72,1,DarkBlue,DarkBlue.jpg,Turquiose,Turquiose.jpg,response3disk_3,rectangle
,,,,,,,,,,,,,,,,,,-2,,,,,,,,,,,,,,,,,,,,,,,,,,,,,,,001,2021-12-16_23h08.56.109,jm_natural_scene_simialrity_2-12-2021_version2,2021.2.3,Win32,57.66015107,6108878a6817adc0fb1bfbf9,61bbc5c79a1c66460f44041e,61bbc60c0f6f7e06c585d116,,,-82.39994096,-69.60000747,1,0,0,response5disk,3.6266,4.800011516,9.599993706,1,0,0,rectangle,4.800011516,9.599993706,1,0,0,1,3,"[137,124,80,147,110,154,94,116,161,64]",4.800011516,9.599993706,1,0,0,0,64,64,67,1,LightBlue,LightBlue.jpg,DarkGreen,DarkGreen.jpg,,
,,,,,,,,,,,,,,,,,,4,,,,,,,,,,,,,,,,,,,,,,,,,,,,,,,001,2021-12-16_23h08.56.109,jm_natural_scene_simialrity_2-12-2021_version2,2021.2.3,Win32,57.66015107,6108878a6817adc0fb1bfbf9,61bbc5c79a1c66460f44041e,61bbc60c0f6f7e06c585d116,,,32.80001193,95.99999499,1,0,0,response1disk,1.0367,4.000011504,3.999993622,1,0,0,rectangle,4.000011504,3.999993622,1,0,0,1,-1,"[137,124,80,147,110,154,94,116,161,64]",4.000011504,3.999993622,1,0,0,0,65,65,9,1,Yellow,Yellow.jpg,Yellow,Yellow.jpg,,
,,,,,,,,,,,,,,,,,,-1,,,,,,,,,,,,,,,,,,,,,,,,,,,,,,,001,2021-12-16_23h08.56.109,jm_natural_scene_simialrity_2-12-2021_version2,2021.2.3,Win32,57.66015107,6108878a6817adc0fb1bfbf9,61bbc5c79a1c66460f44041e,61bbc60c0f6f7e06c585d116,,,-52.79998934,-68.00000745,1,0,0,response5disk,1.0831,-11.99998873,-13.60000664,1,0,0,rectangle,-11.99998873,-13.60000664,1,0,0,1,3,"[137,124,80,147,110,154,94,116,161,64]",-11.99998873,-13.60000664,1,0,0,0,66,66,68,1,DarkBlue,DarkBlue.jpg,DarkGreen,DarkGreen.jpg,,
,,,,,,,,,,,,,,,,,,1,,,,,,,,,,,,,,,,,,,,,,,,,,,,,,,001,2021-12-16_23h08.56.109,jm_natural_scene_simialrity_2-12-2021_version2,2021.2.3,Win32,57.66015107,6108878a6817adc0fb1bfbf9,61bbc5c79a1c66460f44041e,61bbc60c0f6f7e06c585d116,,,66.40001243,-89.6000566,1,0,0,response3disk,1.2174,-16.79998881,11.99999374,1,0,0,rectangle,-16.79998881,11.99999374,1,0,0,1,1,"[137,124,80,147,110,154,94,116,161,64]",-16.79998881,11.99999374,1,0,0,0,67,67,65,1,Purple,Purple.jpg,LightGreen,LightGreen.jpg,,
,,,,,,,,,,,,,,,,,,-3,,,,,,,,,,,,,,,,,,,,,,,,,,,,,,,001,2021-12-16_23h08.56.109,jm_natural_scene_simialrity_2-12-2021_version2,2021.2.3,Win32,57.66015107,6108878a6817adc0fb1bfbf9,61bbc5c79a1c66460f44041e,61bbc60c0f6f7e06c585d116,,,-74.39994084,41.59999418,1,0,0,response7disk,1.1027,-12.79998875,-5.600006521,1,0,0,rectangle,-12.79998875,-5.600006521,1,0,0,1,2,"[137,124,80,147,110,154,94,116,161,64]",-12.79998875,-5.600006521,1,0,0,0,68,68,79,1,Purple,Purple.jpg,DarkBlue,DarkBlue.jpg,,
,,,,,,,,,,,,,,,,,,-4,,,,,,,,,,,,,,,,,,,,,,,,,,,,,,,001,2021-12-16_23h08.56.109,jm_natural_scene_simialrity_2-12-2021_version2,2021.2.3,Win32,57.66015107,6108878a6817adc0fb1bfbf9,61bbc5c79a1c66460f44041e,61bbc60c0f6f7e06c585d116,,,-63.1999895,84.79999483,1,0,0,response7disk,2.0606,-10.39993988,-10.40000659,1,0,0,rectangle,-10.39993988,-10.40000659,1,0,0,1,-2,"[137,124,80,147,110,154,94,116,161,64]",-10.39993988,-10.40000659,1,0,0,0,69,69,46,1,LightGreen,LightGreen.jpg,Red,Red.jpg,,
,,,,,,,,,,,,,,,,,,4,,,,,,,,,,,,,,,,,,,,,,,,,,,,,,,001,2021-12-16_23h08.56.109,jm_natural_scene_simialrity_2-12-2021_version2,2021.2.3,Win32,57.66015107,6108878a6817adc0fb1bfbf9,61bbc5c79a1c66460f44041e,61bbc60c0f6f7e06c585d116,,,50.4000122,91.99999493,1,0,0,response1disk,0.9632,-6.399939823,-6.400006533,1,0,0,rectangle,-6.399939823,-6.400006533,1,0,0,1,3,"[137,124,80,147,110,154,94,116,161,64]",-6.399939823,-6.400006533,1,0,0,0,70,70,30,1,Turquiose,Turquiose.jpg,Turquiose,Turquiose.jpg,,
,,,,,,,,,,,,,,,,,,-2,,,,,,,,,,,,,,,,,,,,,,,,,,,,,,,001,2021-12-16_23h08.56.109,jm_natural_scene_simialrity_2-12-2021_version2,2021.2.3,Win32,57.66015107,6108878a6817adc0fb1bfbf9,61bbc5c79a1c66460f44041e,61bbc60c0f6f7e06c585d116,,,-67.19998956,-38.40000701,1,0,0,response5disk,1.2789,8.800011575,-8.800006568,1,0,0,rectangle,8.800011575,-8.800006568,1,0,0,1,-4,"[137,124,80,147,110,154,94,116,161,64]",8.800011575,-8.800006568,1,0,0,0,71,71,20,1,LightGreen,LightGreen.jpg,LightBlue,LightBlue.jpg,,
,,,,,,,,,,,,,,,,,,-3,,,,,,,,,,,,,,,,,,,,,,,,,,,,,,,001,2021-12-16_23h08.56.109,jm_natural_scene_simialrity_2-12-2021_version2,2021.2.3,Win32,57.66015107,6108878a6817adc0fb1bfbf9,61bbc5c79a1c66460f44041e,61bbc60c0f6f7e06c585d116,,,-51.19998932,25.59999394,1,0,0,response7disk,1.0832,1.14441E-05,6.399993658,1,0,0,rectangle,1.14441E-05,6.399993658,1,0,0,1,-1,"[137,124,80,147,110,154,94,116,161,64]",1.14441E-05,6.399993658,1,0,0,0,72,72,50,1,DarkBlue,DarkBlue.jpg,Red,Red.jpg,,
,,,,,,,,,,,,,,,,,,-3,,,,,,,,,,,,,,,,,,,,,,,,,,,,,,,001,2021-12-16_23h08.56.109,jm_natural_scene_simialrity_2-12-2021_version2,2021.2.3,Win32,57.66015107,6108878a6817adc0fb1bfbf9,61bbc5c79a1c66460f44041e,61bbc60c0f6f7e06c585d116,,,-75.99998969,50.39999431,1,0,0,response7disk,1.3166,-3.999988616,-7.200006545,1,0,0,rectangle,-3.999988616,-7.200006545,1,0,0,1,-2,"[137,124,80,147,110,154,94,116,161,64]",-3.999988616,-7.200006545,1,0,0,0,73,73,45,1,Yellow,Yellow.jpg,Red,Red.jpg,,
,,,,,,,,,,,,,,,,,,-4,,,,,,,,,,,,,,,,,,,,,,,,,,,,,,,001,2021-12-16_23h08.56.109,jm_natural_scene_simialrity_2-12-2021_version2,2021.2.3,Win32,57.66015107,6108878a6817adc0fb1bfbf9,61bbc5c79a1c66460f44041e,61bbc60c0f6f7e06c585d116,,,-41.59998918,75.9999947,1,0,0,response7disk,1.574,-10.39993988,-2.400006473,1,0,0,rectangle,-10.39993988,-2.400006473,1,0,0,1,3,"[137,124,80,147,110,154,94,116,161,64]",-10.39993988,-2.400006473,1,0,0,0,74,74,48,1,Turquiose,Turquiose.jpg,Red,Red.jpg,,
,,,,,,,,,,,,,,,,,,-4,,,,,,,,,,,,,,,,,,,,,,,,,,,,,,,001,2021-12-16_23h08.56.109,jm_natural_scene_simialrity_2-12-2021_version2,2021.2.3,Win32,57.66015107,6108878a6817adc0fb1bfbf9,61bbc5c79a1c66460f44041e,61bbc60c0f6f7e06c585d116,,,-40.79998916,81.59999478,1,0,0,response7disk,1.0921,-1.59998858,-11.2000066,1,0,0,rectangle,-1.59998858,-11.2000066,1,0,0,1,3,"[137,124,80,147,110,154,94,116,161,64]",-1.59998858,-11.2000066,1,0,0,0,75,75,78,1,Pink,Pink.jpg,DarkBlue,DarkBlue.jpg,,
,,,,,,,,,,,,,,,,,,-3,,,,,,,,,,,,,,,,,,,,,,,,,,,,,,,001,2021-12-16_23h08.56.109,jm_natural_scene_simialrity_2-12-2021_version2,2021.2.3,Win32,57.66015107,6108878a6817adc0fb1bfbf9,61bbc5c79a1c66460f44041e,61bbc60c0f6f7e06c585d116,,,-63.1999895,38.39999413,1,0,0,response7disk,1.1658,-5.599988639,4.799993634,1,0,0,rectangle,-5.599988639,4.799993634,1,0,0,1,2,"[137,124,80,147,110,154,94,116,161,64]",-5.599988639,4.799993634,1,0,0,0,76,76,13,1,Yellow,Yellow.jpg,LightBlue,LightBlue.jpg,,
,,,,,,,,,,,,,,,,,,-3,,,,,,,,,,,,,,,,,,,,,,,,,,,,,,,001,2021-12-16_23h08.56.109,jm_natural_scene_simialrity_2-12-2021_version2,2021.2.3,Win32,57.66015107,6108878a6817adc0fb1bfbf9,61bbc5c79a1c66460f44041e,61bbc60c0f6f7e06c585d116,,,-43.1999892,33.59999406,1,0,0,response7disk,2.8983,5.600060356,-8.000006557,1,0,0,rectangle,5.600060356,-8.000006557,1,0,0,1,-4,"[137,124,80,147,110,154,94,116,161,64]",5.600060356,-8.000006557,1,0,0,0,77,77,47,1,DarkGreen,DarkGreen.jpg,Red,Red.jpg,,
,,,,,,,,,,,,,,,,,,-4,,,,,,,,,,,,,,,,,,,,,,,,,,,,,,,001,2021-12-16_23h08.56.109,jm_natural_scene_simialrity_2-12-2021_version2,2021.2.3,Win32,57.66015107,6108878a6817adc0fb1bfbf9,61bbc5c79a1c66460f44041e,61bbc60c0f6f7e06c585d116,,,-34.39994024,65.59999454,1,0,0,response7disk,1.0997,-0.799988568,-4.800006509,1,0,0,rectangle,-0.799988568,-4.800006509,1,0,0,1,-2,"[137,124,80,147,110,154,94,116,161,64]",-0.799988568,-4.800006509,1,0,0,0,78,78,41,1,DarkBlue,DarkBlue.jpg,Purple,Purple.jpg,,
,,,,,,,,,,,,,,,,,,4,,,,,,,,,,,,,,,,,,,,,,,,,,,,,,,001,2021-12-16_23h08.56.109,jm_natural_scene_simialrity_2-12-2021_version2,2021.2.3,Win32,57.66015107,6108878a6817adc0fb1bfbf9,61bbc5c79a1c66460f44041e,61bbc60c0f6f7e06c585d116,,,36.80001199,68.79999459,1,0,0,response1disk,1.234,-3.999988616,-5.600006521,1,0,0,rectangle,96.80001289,44.79999423,1,0,0,3,3,"[137,124,80,147,110,154,94,116,161,64]",11.20001161,7.19999367,1,0,0,0,79,79,17,1,LightGreen,LightGreen.jpg,LightGreen,LightGreen.jpg,response1disk_3,rectangle
,,,,,,,,,,,,,,,,,,-4,,,,,,,,,,,,,,,,,,,,,,,,,,,,,,,001,2021-12-16_23h08.56.109,jm_natural_scene_simialrity_2-12-2021_version2,2021.2.3,Win32,57.66015107,6108878a6817adc0fb1bfbf9,61bbc5c79a1c66460f44041e,61bbc60c0f6f7e06c585d116,,,-61.59998947,113.5999953,1,0,0,response7disk,2.3656,-4.799988627,11.99999374,1,0,0,rectangle,-4.799988627,11.99999374,1,0,0,3,-4,"[137,124,80,147,110,154,94,116,161,64]",-4.799988627,11.99999374,1,0,0,0,80,80,14,1,Yellow,Yellow.jpg,DarkBlue,DarkBlue.jpg,,
,,,,,,,,,,,,,,,,,,4,,,,,,,,,,,,,,,,,,,,,,,,,,,,,,,001,2021-12-16_23h08.56.109,jm_natural_scene_simialrity_2-12-2021_version2,2021.2.3,Win32,57.66015107,6108878a6817adc0fb1bfbf9,61bbc5c79a1c66460f44041e,61bbc60c0f6f7e06c585d116,,,40.80001205,117.5999953,1,0,0,response1disk,0.8824,8.800011575,3.19999361,1,0,0,rectangle,8.800011575,3.19999361,1,0,0,3,-2,"[137,124,80,147,110,154,94,116,161,64]",8.800011575,3.19999361,1,0,0,1,0,81,44,1,Purple,Purple.jpg,Purple,Purple.jpg,,
,,,,,,,,,,,,,,,,,,-3,,,,,,,,,,,,,,,,,,,,,,,,,,,,,,,001,2021-12-16_23h08.56.109,jm_natural_scene_simialrity_2-12-2021_version2,2021.2.3,Win32,57.66015107,6108878a6817adc0fb1bfbf9,61bbc5c79a1c66460f44041e,61bbc60c0f6f7e06c585d116,,,-61.59998947,35.19996967,1,0,0,response7disk,1.0998,-4.799988627,11.99999374,1,0,0,rectangle,-4.799988627,11.99999374,1,0,0,3,2,"[137,124,80,147,110,154,94,116,161,64]",-4.799988627,11.99999374,1,0,0,1,1,82,55,1,Turquiose,Turquiose.jpg,Yellow,Yellow.jpg,,
,,,,,,,,,,,,,,,,,,-3,,,,,,,,,,,,,,,,,,,,,,,,,,,,,,,001,2021-12-16_23h08.56.109,jm_natural_scene_simialrity_2-12-2021_version2,2021.2.3,Win32,57.66015107,6108878a6817adc0fb1bfbf9,61bbc5c79a1c66460f44041e,61bbc60c0f6f7e06c585d116,,,-68.79998958,35.9999941,1,0,0,response7disk,1.11,-8.799988687,-8.000006557,1,0,0,rectangle,-8.799988687,-8.000006557,1,0,0,3,2,"[137,124,80,147,110,154,94,116,161,64]",-8.799988687,-8.000006557,1,0,0,1,2,83,12,1,Yellow,Yellow.jpg,Turquiose,Turquiose.jpg,,
,,,,,,,,,,,,,,,,,,-1,,,,,,,,,,,,,,,,,,,,,,,,,,,,,,,001,2021-12-16_23h08.56.109,jm_natural_scene_simialrity_2-12-2021_version2,2021.2.3,Win32,57.66015107,6108878a6817adc0fb1bfbf9,61bbc5c79a1c66460f44041e,61bbc60c0f6f7e06c585d116,,,-63.99998951,-103.200008,1,0,0,response5disk,1.9499,-2.399939764,-11.2000066,1,0,0,rectangle,-2.399939764,-11.2000066,1,0,0,3,3,"[137,124,80,147,110,154,94,116,161,64]",-2.399939764,-11.2000066,1,0,0,1,3,84,20,1,LightGreen,LightGreen.jpg,LightBlue,LightBlue.jpg,,
,,,,,,,,,,,,,,,,,,-3,,,,,,,,,,,,,,,,,,,,,,,,,,,,,,,001,2021-12-16_23h08.56.109,jm_natural_scene_simialrity_2-12-2021_version2,2021.2.3,Win32,57.66015107,6108878a6817adc0fb1bfbf9,61bbc5c79a1c66460f44041e,61bbc60c0f6f7e06c585d116,,,-60.79998946,27.99999398,1,0,0,response7disk,1.117,-11.19998872,7.999993682,1,0,0,rectangle,-11.19998872,7.999993682,1,0,0,3,2,"[137,124,80,147,110,154,94,116,161,64]",-11.19998872,7.999993682,1,0,0,1,4,85,21,1,LightGreen,LightGreen.jpg,DarkBlue,DarkBlue.jpg,,
,,,,,,,,,,,,,,,,,,-4,,,,,,,,,,,,,,,,,,,,,,,,,,,,,,,001,2021-12-16_23h08.56.109,jm_natural_scene_simialrity_2-12-2021_version2,2021.2.3,Win32,57.66015107,6108878a6817adc0fb1bfbf9,61bbc5c79a1c66460f44041e,61bbc60c0f6f7e06c585d116,,,-41.59998918,71.19997021,1,0,0,response7disk,1.2158,0.800011456,-4.800006509,1,0,0,rectangle,0.800011456,-4.800006509,1,0,0,3,2,"[137,124,80,147,110,154,94,116,161,64]",0.800011456,-4.800006509,1,0,0,1,5,86,5,1,Red,Red.jpg,LightBlue,LightBlue.jpg,,
,,,,,,,,,,,,,,,,,,-2,,,,,,,,,,,,,,,,,,,,,,,,,,,,,,,001,2021-12-16_23h08.56.109,jm_natural_scene_simialrity_2-12-2021_version2,2021.2.3,Win32,57.66015107,6108878a6817adc0fb1bfbf9,61bbc5c79a1c66460f44041e,61bbc60c0f6f7e06c585d116,,,-57.59998941,-18.40000671,1,0,0,response5disk,1.9382,8.800011575,-4.800006509,1,0,0,rectangle,8.800011575,-4.800006509,1,0,0,3,1,"[137,124,80,147,110,154,94,116,161,64]",8.800011575,-4.800006509,1,0,0,1,6,87,19,1,LightGreen,LightGreen.jpg,Turquiose,Turquiose.jpg,,
,,,,,,,,,,,,,,,,,,2,,,,,,,,,,,,,,,,,,,,,,,,,,,,,,,001,2021-12-16_23h08.56.109,jm_natural_scene_simialrity_2-12-2021_version2,2021.2.3,Win32,57.66015107,6108878a6817adc0fb1bfbf9,61bbc5c79a1c66460f44041e,61bbc60c0f6f7e06c585d116,,,73.60001254,-44.8000071,1,0,0,response3disk,1.3334,-15.99998879,-12.80000663,1,0,0,rectangle,-15.99998879,-12.80000663,1,0,0,3,-2,"[137,124,80,147,110,154,94,116,161,64]",-15.99998879,-12.80000663,1,0,0,1,7,88,43,1,Pink,Pink.jpg,Purple,Purple.jpg,,
,,,,,,,,,,,,,,,,,,-3,,,,,,,,,,,,,,,,,,,,,,,,,,,,,,,001,2021-12-16_23h08.56.109,jm_natural_scene_simialrity_2-12-2021_version2,2021.2.3,Win32,57.66015107,6108878a6817adc0fb1bfbf9,61bbc5c79a1c66460f44041e,61bbc60c0f6f7e06c585d116,,,-83.99998981,31.99999404,1,0,0,response7disk,0.9325,3.200011492,7.999993682,1,0,0,rectangle,3.200011492,7.999993682,1,0,0,3,-2,"[137,124,80,147,110,154,94,116,161,64]",3.200011492,7.999993682,1,0,0,1,8,89,47,1,DarkGreen,DarkGreen.jpg,Red,Red.jpg,,
,,,,,,,,,,,,,,,,,,-1,,,,,,,,,,,,,,,,,,,,,,,,,,,,,,,001,2021-12-16_23h08.56.109,jm_natural_scene_simialrity_2-12-2021_version2,2021.2.3,Win32,57.66015107,6108878a6817adc0fb1bfbf9,61bbc5c79a1c66460f44041e,61bbc60c0f6f7e06c585d116,,,-32.79998904,-57.6000073,1,0,0,response5disk,1.3369,14.40001166,-10.40000659,1,0,0,rectangle,14.40001166,-10.40000659,1,0,0,3,3,"[137,124,80,147,110,154,94,116,161,64]",14.40001166,-10.40000659,1,0,0,1,9,90,26,1,DarkGreen,DarkGreen.jpg,LightBlue,LightBlue.jpg,,
,,,,,,,,,,,,,,,,,,3,,,,,,,,,,,,,,,,,,,,,,,,,,,,,,,001,2021-12-16_23h08.56.109,jm_natural_scene_simialrity_2-12-2021_version2,2021.2.3,Win32,57.66015107,6108878a6817adc0fb1bfbf9,61bbc5c79a1c66460f44041e,61bbc60c0f6f7e06c585d116,,,118.4000132,45.59999424,1,0,0,response1disk,1.4825,-13.59998876,-4.000006497,1,0,0,rectangle,-13.59998876,-4.000006497,1,0,0,3,2,"[137,124,80,147,110,154,94,116,161,64]",-13.59998876,-4.000006497,1,0,0,1,10,91,38,1,LightBlue,LightBlue.jpg,Purple,Purple.jpg,,
,,,,,,,,,,,,,,,,,,-4,,,,,,,,,,,,,,,,,,,,,,,,,,,,,,,001,2021-12-16_23h08.56.109,jm_natural_scene_simialrity_2-12-2021_version2,2021.2.3,Win32,57.66015107,6108878a6817adc0fb1bfbf9,61bbc5c79a1c66460f44041e,61bbc60c0f6f7e06c585d116,,,-45.59998924,85.59999484,1,0,0,response7disk,0.9713,4.000011504,22.3999939,1,0,0,rectangle,4.000011504,22.3999939,1,0,0,3,-3,"[137,124,80,147,110,154,94,116,161,64]",4.000011504,22.3999939,1,0,0,1,11,92,76,1,Pink,Pink.jpg,LightBlue,LightBlue.jpg,,
,,,,,,,,,,,,,,,,,,-2,,,,,,,,,,,,,,,,,,,,,,,,,,,,,,,001,2021-12-16_23h08.56.109,jm_natural_scene_simialrity_2-12-2021_version2,2021.2.3,Win32,57.66015107,6108878a6817adc0fb1bfbf9,61bbc5c79a1c66460f44041e,61bbc60c0f6f7e06c585d116,,,-52.79998934,-22.40000677,1,0,0,response5disk,1.2949,-5.599988639,-8.800006568,1,0,0,rectangle,97.6000129,-35.20000696,1,0,0,2,2,"[137,124,80,147,110,154,94,116,161,64]",-2.399939764,-4.000006497,1,0,0,1,12,93,70,1,Purple,Purple.jpg,DarkGreen,DarkGreen.jpg,response3disk_3,rectangle
,,,,,,,,,,,,,,,,,,-4,,,,,,,,,,,,,,,,,,,,,,,,,,,,,,,001,2021-12-16_23h08.56.109,jm_natural_scene_simialrity_2-12-2021_version2,2021.2.3,Win32,57.66015107,6108878a6817adc0fb1bfbf9,61bbc5c79a1c66460f44041e,61bbc60c0f6f7e06c585d116,,,-27.99998897,98.39999503,1,0,0,response7disk,1.1663,4.800011516,3.999993622,1,0,0,rectangle,4.800011516,3.999993622,1,0,0,2,-2,"[137,124,80,147,110,154,94,116,161,64]",4.800011516,3.999993622,1,0,0,1,13,94,4,1,Red,Red.jpg,Turquiose,Turquiose.jpg,,
,,,,,,,,,,,,,,,,,,3,,,,,,,,,,,,,,,,,,,,,,,,,,,,,,,001,2021-12-16_23h08.56.109,jm_natural_scene_simialrity_2-12-2021_version2,2021.2.3,Win32,57.66015107,6108878a6817adc0fb1bfbf9,61bbc5c79a1c66460f44041e,61bbc60c0f6f7e06c585d116,,,102.400013,38.39999413,1,0,0,response1disk,1.5999,-11.19998872,-3.200006485,1,0,0,rectangle,-11.19998872,-3.200006485,1,0,0,2,-3,"[137,124,80,147,110,154,94,116,161,64]",-11.19998872,-3.200006485,1,0,0,1,14,95,1,1,Red,Red.jpg,Yellow,Yellow.jpg,,
,,,,,,,,,,,,,,,,,,-4,,,,,,,,,,,,,,,,,,,,,,,,,,,,,,,001,2021-12-16_23h08.56.109,jm_natural_scene_simialrity_2-12-2021_version2,2021.2.3,Win32,57.66015107,6108878a6817adc0fb1bfbf9,61bbc5c79a1c66460f44041e,61bbc60c0f6f7e06c585d116,,,-42.39994036,67.99999458,1,0,0,response7disk,1.1266,-3.999988616,-5.600006521,1,0,0,rectangle,-3.999988616,-5.600006521,1,0,0,2,1,"[137,124,80,147,110,154,94,116,161,64]",-3.999988616,-5.600006521,1,0,0,1,15,96,41,1,DarkBlue,DarkBlue.jpg,Purple,Purple.jpg,,
,,,,,,,,,,,,,,,,,,4,,,,,,,,,,,,,,,,,,,,,,,,,,,,,,,001,2021-12-16_23h08.56.109,jm_natural_scene_simialrity_2-12-2021_version2,2021.2.3,Win32,57.66015107,6108878a6817adc0fb1bfbf9,61bbc5c79a1c66460f44041e,61bbc60c0f6f7e06c585d116,,,48.00001216,74.39999467,1,0,0,response1disk,1.0665,17.60006053,9.599993706,1,0,0,rectangle,17.60006053,9.599993706,1,0,0,2,3,"[137,124,80,147,110,154,94,116,161,64]",17.60006053,9.599993706,1,0,0,1,16,97,39,1,DarkBlue,DarkBlue.jpg,DarkBlue,DarkBlue.jpg,,
,,,,,,,,,,,,,,,,,,-3,,,,,,,,,,,,,,,,,,,,,,,,,,,,,,,001,2021-12-16_23h08.56.109,jm_natural_scene_simialrity_2-12-2021_version2,2021.2.3,Win32,57.66015107,6108878a6817adc0fb1bfbf9,61bbc5c79a1c66460f44041e,61bbc60c0f6f7e06c585d116,,,-73.59998965,29.599994,1,0,0,response7disk,2.2767,7.200011551,-11.2000066,1,0,0,rectangle,7.200011551,-11.2000066,1,0,0,2,-3,"[137,124,80,147,110,154,94,116,161,64]",7.200011551,-11.2000066,1,0,0,1,17,98,53,1,LightGreen,LightGreen.jpg,Yellow,Yellow.jpg,,
,,,,,,,,,,,,,,,,,,-4,,,,,,,,,,,,,,,,,,,,,,,,,,,,,,,001,2021-12-16_23h08.56.109,jm_natural_scene_simialrity_2-12-2021_version2,2021.2.3,Win32,57.66015107,6108878a6817adc0fb1bfbf9,61bbc5c79a1c66460f44041e,61bbc60c0f6f7e06c585d116,,,-34.39994024,59.99999446,1,0,0,response7disk,1.1499,-15.19998878,-8.800006568,1,0,0,rectangle,-15.19998878,-8.800006568,1,0,0,2,3,"[137,124,80,147,110,154,94,116,161,64]",-15.19998878,-8.800006568,1,0,0,1,18,99,74,1,Purple,Purple.jpg,Turquiose,Turquiose.jpg,,
,,,,,,,,,,,,,,,,,,-3,,,,,,,,,,,,,,,,,,,,,,,,,,,,,,,001,2021-12-16_23h08.56.109,jm_natural_scene_simialrity_2-12-2021_version2,2021.2.3,Win32,57.66015107,6108878a6817adc0fb1bfbf9,61bbc5c79a1c66460f44041e,61bbc60c0f6f7e06c585d116,,,-55.99998939,37.59999412,1,0,0,response7disk,1.3827,24.80001181,-2.400006473,1,0,0,rectangle,24.80001181,-2.400006473,1,0,0,2,2,"[137,124,80,147,110,154,94,116,161,64]",24.80001181,-2.400006473,1,0,0,1,19,100,49,1,LightBlue,LightBlue.jpg,Red,Red.jpg,,
,,,,,,,,,,,,,,,,,,1,,,,,,,,,,,,,,,,,,,,,,,,,,,,,,,001,2021-12-16_23h08.56.109,jm_natural_scene_simialrity_2-12-2021_version2,2021.2.3,Win32,57.66015107,6108878a6817adc0fb1bfbf9,61bbc5c79a1c66460f44041e,61bbc60c0f6f7e06c585d116,,,52.80001223,-91.2000078,1,0,0,response3disk,2.2141,4.000011504,-15.20000666,1,0,0,rectangle,4.000011504,-15.20000666,1,0,0,2,1,"[137,124,80,147,110,154,94,116,161,64]",4.000011504,-15.20000666,1,0,0,1,20,101,45,1,Yellow,Yellow.jpg,Red,Red.jpg,,
,,,,,,,,,,,,,,,,,,-2,,,,,,,,,,,,,,,,,,,,,,,,,,,,,,,001,2021-12-16_23h08.56.109,jm_natural_scene_simialrity_2-12-2021_version2,2021.2.3,Win32,57.66015107,6108878a6817adc0fb1bfbf9,61bbc5c79a1c66460f44041e,61bbc60c0f6f7e06c585d116,,,-117.5999903,-37.600007,1,0,0,response5disk,1.0321,2.40001148,-6.4373E-06,1,0,0,rectangle,2.40001148,-6.4373E-06,1,0,0,2,3,"[137,124,80,147,110,154,94,116,161,64]",2.40001148,-6.4373E-06,1,0,0,1,21,102,56,1,LightBlue,LightBlue.jpg,Yellow,Yellow.jpg,,
,,,,,,,,,,,,,,,,,,4,,,,,,,,,,,,,,,,,,,,,,,,,,,,,,,001,2021-12-16_23h08.56.109,jm_natural_scene_simialrity_2-12-2021_version2,2021.2.3,Win32,57.66015107,6108878a6817adc0fb1bfbf9,61bbc5c79a1c66460f44041e,61bbc60c0f6f7e06c585d116,,,41.60006089,63.99999452,1,0,0,response1disk,0.9269,6.400011539,-3.200006485,1,0,0,rectangle,6.400011539,-3.200006485,1,0,0,2,1,"[137,124,80,147,110,154,94,116,161,64]",6.400011539,-3.200006485,1,0,0,1,22,103,42,1,Pink,Pink.jpg,Pink,Pink.jpg,,
,,,,,,,,,,,,,,,,,,-4,,,,,,,,,,,,,,,,,,,,,,,,,,,,,,,001,2021-12-16_23h08.56.109,jm_natural_scene_simialrity_2-12-2021_version2,2021.2.3,Win32,57.66015107,6108878a6817adc0fb1bfbf9,61bbc5c79a1c66460f44041e,61bbc60c0f6f7e06c585d116,,,-43.1999892,56.79999441,1,0,0,response7disk,3.8304,-17.59998882,-13.60000664,1,0,0,rectangle,-17.59998882,-13.60000664,1,0,0,2,2,"[137,124,80,147,110,154,94,116,161,64]",-17.59998882,-13.60000664,1,0,0,1,23,104,13,1,Yellow,Yellow.jpg,LightBlue,LightBlue.jpg,,
,,,,,,,,,,,,,,,,,,4,,,,,,,,,,,,,,,,,,,,,,,,,,,,,,,001,2021-12-16_23h08.56.109,jm_natural_scene_simialrity_2-12-2021_version2,2021.2.3,Win32,57.66015107,6108878a6817adc0fb1bfbf9,61bbc5c79a1c66460f44041e,61bbc60c0f6f7e06c585d116,,,46.40001214,99.99999505,1,0,0,response1disk,0.9285,6.400011539,3.19999361,1,0,0,rectangle,6.400011539,3.19999361,1,0,0,2,2,"[137,124,80,147,110,154,94,116,161,64]",6.400011539,3.19999361,1,0,0,1,24,105,35,1,LightBlue,LightBlue.jpg,LightBlue,LightBlue.jpg,,
,,,,,,,,,,,,,,,,,,2,,,,,,,,,,,,,,,,,,,,,,,,,,,,,,,001,2021-12-16_23h08.56.109,jm_natural_scene_simialrity_2-12-2021_version2,2021.2.3,Win32,57.66015107,6108878a6817adc0fb1bfbf9,61bbc5c79a1c66460f44041e,61bbc60c0f6f7e06c585d116,,,87.20001274,-35.20000696,1,0,0,response3disk,1.2326,-0.799988568,-6.4373E-06,1,0,0,rectangle,-0.799988568,-6.4373E-06,1,0,0,2,1,"[137,124,80,147,110,154,94,116,161,64]",-0.799988568,-6.4373E-06,1,0,0,1,25,106,18,1,LightGreen,LightGreen.jpg,DarkGreen,DarkGreen.jpg,,
,,,,,,,,,,,,,,,,,,-3,,,,,,,,,,,,,,,,,,,,,,,,,,,,,,,001,2021-12-16_23h08.56.109,jm_natural_scene_simialrity_2-12-2021_version2,2021.2.3,Win32,57.66015107,6108878a6817adc0fb1bfbf9,61bbc5c79a1c66460f44041e,61bbc60c0f6f7e06c585d116,,,-67.19998956,47.19996985,1,0,0,response7disk,1.0991,-15.19998878,-6.4373E-06,1,0,0,rectangle,-15.19998878,-6.4373E-06,1,0,0,2,1,"[137,124,80,147,110,154,94,116,161,64]",-15.19998878,-6.4373E-06,1,0,0,1,26,107,27,1,DarkGreen,DarkGreen.jpg,DarkBlue,DarkBlue.jpg,,
,,,,,,,,,,,,,,,,,,-2,,,,,,,,,,,,,,,,,,,,,,,,,,,,,,,001,2021-12-16_23h08.56.109,jm_natural_scene_simialrity_2-12-2021_version2,2021.2.3,Win32,57.66015107,6108878a6817adc0fb1bfbf9,61bbc5c79a1c66460f44041e,61bbc60c0f6f7e06c585d116,,,-74.39994084,-32.80000693,1,0,0,response5disk,2.8872,1.14441E-05,-7.200006545,1,0,0,rectangle,1.14441E-05,-7.200006545,1,0,0,2,-2,"[137,124,80,147,110,154,94,116,161,64]",1.14441E-05,-7.200006545,1,0,0,1,27,108,57,1,DarkBlue,DarkBlue.jpg,Yellow,Yellow.jpg,,
,,,,,,,,,,,,,,,,,,-4,,,,,,,,,,,,,,,,,,,,,,,,,,,,,,,001,2021-12-16_23h08.56.109,jm_natural_scene_simialrity_2-12-2021_version2,2021.2.3,Win32,57.66015107,6108878a6817adc0fb1bfbf9,61bbc5c79a1c66460f44041e,61bbc60c0f6f7e06c585d116,,,-33.59998906,73.59999466,1,0,0,response7disk,2.1495,1.14441E-05,11.99999374,1,0,0,rectangle,80.80001265,34.39999408,1,0,0,3,3,"[137,124,80,147,110,154,94,116,161,64]",-3.199988604,-8.800006568,1,0,0,1,28,109,28,1,DarkGreen,DarkGreen.jpg,Pink,Pink.jpg,response1disk_3,rectangle
,,,,,,,,,,,,,,,,,,2,,,,,,,,,,,,,,,,,,,,,,,,,,,,,,,001,2021-12-16_23h08.56.109,jm_natural_scene_simialrity_2-12-2021_version2,2021.2.3,Win32,57.66015107,6108878a6817adc0fb1bfbf9,61bbc5c79a1c66460f44041e,61bbc60c0f6f7e06c585d116,,,90.40001279,-48.80000716,1,0,0,response3disk,1.4314,-8.799988687,-8.800006568,1,0,0,rectangle,-8.799988687,-8.800006568,1,0,0,3,-2,"[137,124,80,147,110,154,94,116,161,64]",-8.799988687,-8.800006568,1,0,0,1,29,110,51,1,Pink,Pink.jpg,Red,Red.jpg,,
,,,,,,,,,,,,,,,,,,3,,,,,,,,,,,,,,,,,,,,,,,,,,,,,,,001,2021-12-16_23h08.56.109,jm_natural_scene_simialrity_2-12-2021_version2,2021.2.3,Win32,57.66015107,6108878a6817adc0fb1bfbf9,61bbc5c79a1c66460f44041e,61bbc60c0f6f7e06c585d116,,,118.4000132,32.79999405,1,0,0,response1disk,1.5498,10.4000116,-4.000006497,1,0,0,rectangle,10.4000116,-4.000006497,1,0,0,3,2,"[137,124,80,147,110,154,94,116,161,64]",10.4000116,-4.000006497,1,0,0,1,30,111,80,1,Purple,Purple.jpg,Pink,Pink.jpg,,
,,,,,,,,,,,,,,,,,,-3,,,,,,,,,,,,,,,,,,,,,,,,,,,,,,,001,2021-12-16_23h08.56.109,jm_natural_scene_simialrity_2-12-2021_version2,2021.2.3,Win32,57.66015107,6108878a6817adc0fb1bfbf9,61bbc5c79a1c66460f44041e,61bbc60c0f6f7e06c585d116,,,-61.59998947,27.99999398,1,0,0,response7disk,1.2652,-3.199988604,-6.400006533,1,0,0,rectangle,-3.199988604,-6.400006533,1,0,0,3,1,"[137,124,80,147,110,154,94,116,161,64]",-3.199988604,-6.400006533,1,0,0,1,31,112,34,1,Turquiose,Turquiose.jpg,Purple,Purple.jpg,,
,,,,,,,,,,,,,,,,,,2,,,,,,,,,,,,,,,,,,,,,,,,,,,,,,,001,2021-12-16_23h08.56.109,jm_natural_scene_simialrity_2-12-2021_version2,2021.2.3,Win32,57.66015107,6108878a6817adc0fb1bfbf9,61bbc5c79a1c66460f44041e,61bbc60c0f6f7e06c585d116,,,96.00001287,-55.20000726,1,0,0,response3disk,2.0483,-3.199988604,5.599993646,1,0,0,rectangle,-3.199988604,5.599993646,1,0,0,3,-3,"[137,124,80,147,110,154,94,116,161,64]",-3.199988604,5.599993646,1,0,0,1,32,113,36,1,LightBlue,LightBlue.jpg,DarkBlue,DarkBlue.jpg,,
,,,,,,,,,,,,,,,,,,2,,,,,,,,,,,,,,,,,,,,,,,,,,,,,,,001,2021-12-16_23h08.56.109,jm_natural_scene_simialrity_2-12-2021_version2,2021.2.3,Win32,57.66015107,6108878a6817adc0fb1bfbf9,61bbc5c79a1c66460f44041e,61bbc60c0f6f7e06c585d116,,,92.80001283,-60.80000734,1,0,0,response3disk,1.8654,-4.799988627,-4.800006509,1,0,0,rectangle,-4.799988627,-4.800006509,1,0,0,3,-1,"[137,124,80,147,110,154,94,116,161,64]",-4.799988627,-4.800006509,1,0,0,1,33,114,32,1,Turquiose,Turquiose.jpg,DarkBlue,DarkBlue.jpg,,
,,,,,,,,,,,,,,,,,,4,,,,,,,,,,,,,,,,,,,,,,,,,,,,,,,001,2021-12-16_23h08.56.109,jm_natural_scene_simialrity_2-12-2021_version2,2021.2.3,Win32,57.66015107,6108878a6817adc0fb1bfbf9,61bbc5c79a1c66460f44041e,61bbc60c0f6f7e06c585d116,,,47.20001215,91.99999493,1,0,0,response1disk,0.9322,1.14441E-05,-20.00000674,1,0,0,rectangle,-91.19998991,42.39999419,1,0,0,-3,-3,"[137,124,80,147,110,154,94,116,161,64]",1.14441E-05,-8.800006568,1,0,0,1,34,115,9,1,Yellow,Yellow.jpg,Yellow,Yellow.jpg,response7disk_3,rectangle
,,,,,,,,,,,,,,,,,,-4,,,,,,,,,,,,,,,,,,,,,,,,,,,,,,,001,2021-12-16_23h08.56.109,jm_natural_scene_simialrity_2-12-2021_version2,2021.2.3,Win32,57.66015107,6108878a6817adc0fb1bfbf9,61bbc5c79a1c66460f44041e,61bbc60c0f6f7e06c585d116,,,-51.19998932,107.1999707,1,0,0,response7disk,1.1325,-7.199988663,3.19999361,1,0,0,rectangle,-7.199988663,3.19999361,1,0,0,-3,-2,"[137,124,80,147,110,154,94,116,161,64]",-7.199988663,3.19999361,1,0,0,1,35,116,2,1,Red,Red.jpg,LightGreen,LightGreen.jpg,,
,,,,,,,,,,,,,,,,,,-4,,,,,,,,,,,,,,,,,,,,,,,,,,,,,,,001,2021-12-16_23h08.56.109,jm_natural_scene_simialrity_2-12-2021_version2,2021.2.3,Win32,57.66015107,6108878a6817adc0fb1bfbf9,61bbc5c79a1c66460f44041e,61bbc60c0f6f7e06c585d116,,,-39.99998915,93.59999496,1,0,0,response7disk,1.5762,-11.19998872,-9.60000658,1,0,0,rectangle,-11.19998872,-9.60000658,1,0,0,-3,-1,"[137,124,80,147,110,154,94,116,161,64]",-11.19998872,-9.60000658,1,0,0,1,36,117,14,1,Yellow,Yellow.jpg,DarkBlue,DarkBlue.jpg,,
,,,,,,,,,,,,,,,,,,-4,,,,,,,,,,,,,,,,,,,,,,,,,,,,,,,001,2021-12-16_23h08.56.109,jm_natural_scene_simialrity_2-12-2021_version2,2021.2.3,Win32,57.66015107,6108878a6817adc0fb1bfbf9,61bbc5c79a1c66460f44041e,61bbc60c0f6f7e06c585d116,,,-47.19998926,80.79999477,1,0,0,response7disk,0.8659,-19.99998885,-3.200006485,1,0,0,rectangle,-19.99998885,-3.200006485,1,0,0,-3,-4,"[137,124,80,147,110,154,94,116,161,64]",-19.99998885,-3.200006485,1,0,0,1,37,118,78,1,Pink,Pink.jpg,DarkBlue,DarkBlue.jpg,,
,,,,,,,,,,,,,,,,,,-2,,,,,,,,,,,,,,,,,,,,,,,,,,,,,,,001,2021-12-16_23h08.56.109,jm_natural_scene_simialrity_2-12-2021_version2,2021.2.3,Win32,57.66015107,6108878a6817adc0fb1bfbf9,61bbc5c79a1c66460f44041e,61bbc60c0f6f7e06c585d116,,,-74.39994084,-34.40000695,1,0,0,response5disk,1.9667,-10.39993988,3.999993622,1,0,0,rectangle,-10.39993988,3.999993622,1,0,0,-3,1,"[137,124,80,147,110,154,94,116,161,64]",-10.39993988,3.999993622,1,0,0,1,38,119,68,1,DarkBlue,DarkBlue.jpg,DarkGreen,DarkGreen.jpg,,
,,,,,,,,,,,,,,,,,,-1,,,,,,,,,,,,,,,,,,,,,,,,,,,,,,,001,2021-12-16_23h08.56.109,jm_natural_scene_simialrity_2-12-2021_version2,2021.2.3,Win32,57.66015107,6108878a6817adc0fb1bfbf9,61bbc5c79a1c66460f44041e,61bbc60c0f6f7e06c585d116,,,-31.19998902,-72.00000751,1,0,0,response5disk,1.8818,6.400011539,-7.200006545,1,0,0,rectangle,6.400011539,-7.200006545,1,0,0,-3,-1,"[137,124,80,147,110,154,94,116,161,64]",6.400011539,-7.200006545,1,0,0,1,39,120,22,1,LightGreen,LightGreen.jpg,Pink,Pink.jpg,,
,,,,,,,,,,,,,,,,,,2,,,,,,,,,,,,,,,,,,,,,,,,,,,,,,,001,2021-12-16_23h08.56.109,jm_natural_scene_simialrity_2-12-2021_version2,2021.2.3,Win32,57.66015107,6108878a6817adc0fb1bfbf9,61bbc5c79a1c66460f44041e,61bbc60c0f6f7e06c585d116,,,93.60001284,-35.20000696,1,0,0,response3disk,1.5454,-3.999988616,11.19999373,1,0,0,rectangle,-3.999988616,11.19999373,1,0,0,-3,-2,"[137,124,80,147,110,154,94,116,161,64]",-3.999988616,11.19999373,1,0,0,1,40,121,58,1,Pink,Pink.jpg,Yellow,Yellow.jpg,,
,,,,,,,,,,,,,,,,,,-4,,,,,,,,,,,,,,,,,,,,,,,,,,,,,,,001,2021-12-16_23h08.56.109,jm_natural_scene_simialrity_2-12-2021_version2,2021.2.3,Win32,57.66015107,6108878a6817adc0fb1bfbf9,61bbc5c79a1c66460f44041e,61bbc60c0f6f7e06c585d116,,,-44.79998922,87.19997045,1,0,0,response7disk,1.6832,-14.39993994,15.19999379,1,0,0,rectangle,-14.39993994,15.19999379,1,0,0,-3,2,"[137,124,80,147,110,154,94,116,161,64]",-14.39993994,15.19999379,1,0,0,1,41,122,10,1,Yellow,Yellow.jpg,LightGreen,LightGreen.jpg,,
,,,,,,,,,,,,,,,,,,-1,,,,,,,,,,,,,,,,,,,,,,,,,,,,,,,001,2021-12-16_23h08.56.109,jm_natural_scene_simialrity_2-12-2021_version2,2021.2.3,Win32,57.66015107,6108878a6817adc0fb1bfbf9,61bbc5c79a1c66460f44041e,61bbc60c0f6f7e06c585d116,,,-49.5999893,-81.60005648,1,0,0,response5disk,1.4829,-10.39993988,2.399993598,1,0,0,rectangle,-109.5999902,59.99999446,1,0,0,-3,-3,"[137,124,80,147,110,154,94,116,161,64]",-11.99998873,10.39999372,1,0,0,1,42,123,67,1,LightBlue,LightBlue.jpg,DarkGreen,DarkGreen.jpg,response7disk_3,rectangle
,,,,,,,,,,,,,,,,,,3,,,,,,,,,,,,,,,,,,,,,,,,,,,,,,,001,2021-12-16_23h08.56.109,jm_natural_scene_simialrity_2-12-2021_version2,2021.2.3,Win32,57.66015107,6108878a6817adc0fb1bfbf9,61bbc5c79a1c66460f44041e,61bbc60c0f6f7e06c585d116,,,90.40001279,33.59999406,1,0,0,response1disk,2.0162,3.200011492,-9.60000658,1,0,0,rectangle,3.200011492,-9.60000658,1,0,0,-3,-1,"[137,124,80,147,110,154,94,116,161,64]",3.200011492,-9.60000658,1,0,0,1,43,124,15,1,Yellow,Yellow.jpg,Pink,Pink.jpg,,
,,,,,,,,,,,,,,,,,,1,,,,,,,,,,,,,,,,,,,,,,,,,,,,,,,001,2021-12-16_23h08.56.109,jm_natural_scene_simialrity_2-12-2021_version2,2021.2.3,Win32,57.66015107,6108878a6817adc0fb1bfbf9,61bbc5c79a1c66460f44041e,61bbc60c0f6f7e06c585d116,,,45.60006095,-80.00000763,1,0,0,response3disk,1.5255,-3.999988616,-5.600006521,1,0,0,rectangle,-3.999988616,-5.600006521,1,0,0,-3,-2,"[137,124,80,147,110,154,94,116,161,64]",-3.999988616,-5.600006521,1,0,0,1,44,125,25,1,DarkGreen,DarkGreen.jpg,Turquiose,Turquiose.jpg,,
,,,,,,,,,,,,,,,,,,1,,,,,,,,,,,,,,,,,,,,,,,,,,,,,,,001,2021-12-16_23h08.56.109,jm_natural_scene_simialrity_2-12-2021_version2,2021.2.3,Win32,57.66015107,6108878a6817adc0fb1bfbf9,61bbc5c79a1c66460f44041e,61bbc60c0f6f7e06c585d116,,,45.60006095,-88.80000776,1,0,0,response3disk,0.9821,-6.399939823,2.399993598,1,0,0,rectangle,-6.399939823,2.399993598,1,0,0,-3,-3,"[137,124,80,147,110,154,94,116,161,64]",-6.399939823,2.399993598,1,0,0,1,45,126,66,1,Turquiose,Turquiose.jpg,DarkGreen,DarkGreen.jpg,,
,,,,,,,,,,,,,,,,,,2,,,,,,,,,,,,,,,,,,,,,,,,,,,,,,,001,2021-12-16_23h08.56.109,jm_natural_scene_simialrity_2-12-2021_version2,2021.2.3,Win32,57.66015107,6108878a6817adc0fb1bfbf9,61bbc5c79a1c66460f44041e,61bbc60c0f6f7e06c585d116,,,57.6000123,-49.60000718,1,0,0,response3disk,1.2943,-19.19998884,-5.600006521,1,0,0,rectangle,-19.19998884,-5.600006521,1,0,0,-3,1,"[137,124,80,147,110,154,94,116,161,64]",-19.19998884,-5.600006521,1,0,0,1,46,127,31,1,Turquiose,Turquiose.jpg,LightBlue,LightBlue.jpg,,
,,,,,,,,,,,,,,,,,,2,,,,,,,,,,,,,,,,,,,,,,,,,,,,,,,001,2021-12-16_23h08.56.109,jm_natural_scene_simialrity_2-12-2021_version2,2021.2.3,Win32,57.66015107,6108878a6817adc0fb1bfbf9,61bbc5c79a1c66460f44041e,61bbc60c0f6f7e06c585d116,,,92.80001283,-25.60000682,1,0,0,response3disk,1.2487,0.800011456,6.399993658,1,0,0,rectangle,0.800011456,6.399993658,1,0,0,-3,-4,"[137,124,80,147,110,154,94,116,161,64]",0.800011456,6.399993658,1,0,0,1,47,128,37,1,LightBlue,LightBlue.jpg,Pink,Pink.jpg,,
,,,,,,,,,,,,,,,,,,-1,,,,,,,,,,,,,,,,,,,,,,,,,,,,,,,001,2021-12-16_23h08.56.109,jm_natural_scene_simialrity_2-12-2021_version2,2021.2.3,Win32,57.66015107,6108878a6817adc0fb1bfbf9,61bbc5c79a1c66460f44041e,61bbc60c0f6f7e06c585d116,,,-40.79998916,-71.2000075,1,0,0,response5disk,1.8808,-13.59998876,-0.800006449,1,0,0,rectangle,-13.59998876,-0.800006449,1,0,0,-3,-4,"[137,124,80,147,110,154,94,116,161,64]",-13.59998876,-0.800006449,1,0,0,1,48,129,64,1,Pink,Pink.jpg,LightGreen,LightGreen.jpg,,
,,,,,,,,,,,,,,,,,,-3,,,,,,,,,,,,,,,,,,,,,,,,,,,,,,,001,2021-12-16_23h08.56.109,jm_natural_scene_simialrity_2-12-2021_version2,2021.2.3,Win32,57.66015107,6108878a6817adc0fb1bfbf9,61bbc5c79a1c66460f44041e,61bbc60c0f6f7e06c585d116,,,-55.19998938,43.99999422,1,0,0,response7disk,1.732,4.000011504,1.599993587,1,0,0,rectangle,4.000011504,1.599993587,1,0,0,-3,3,"[137,124,80,147,110,154,94,116,161,64]",4.000011504,1.599993587,1,0,0,1,49,130,46,1,LightGreen,LightGreen.jpg,Red,Red.jpg,,
,,,,,,,,,,,,,,,,,,4,,,,,,,,,,,,,,,,,,,,,,,,,,,,,,,001,2021-12-16_23h08.56.109,jm_natural_scene_simialrity_2-12-2021_version2,2021.2.3,Win32,57.66015107,6108878a6817adc0fb1bfbf9,61bbc5c79a1c66460f44041e,61bbc60c0f6f7e06c585d116,,,38.40001202,83.19997039,1,0,0,response1disk,0.9657,17.60006053,1.599993587,1,0,0,rectangle,17.60006053,1.599993587,1,0,0,-3,-2,"[137,124,80,147,110,154,94,116,161,64]",17.60006053,1.599993587,1,0,0,1,50,131,30,1,Turquiose,Turquiose.jpg,Turquiose,Turquiose.jpg,,
,,,,,,,,,,,,,,,,,,4,,,,,,,,,,,,,,,,,,,,,,,,,,,,,,,001,2021-12-16_23h08.56.109,jm_natural_scene_simialrity_2-12-2021_version2,2021.2.3,Win32,57.66015107,6108878a6817adc0fb1bfbf9,61bbc5c79a1c66460f44041e,61bbc60c0f6f7e06c585d116,,,16.80001169,65.59999454,1,0,0,response1disk,0.9494,-10.39993988,-8.000006557,1,0,0,rectangle,-10.39993988,-8.000006557,1,0,0,-3,-3,"[137,124,80,147,110,154,94,116,161,64]",-10.39993988,-8.000006557,1,0,0,1,51,132,24,1,DarkGreen,DarkGreen.jpg,DarkGreen,DarkGreen.jpg,,
,,,,,,,,,,,,,,,,,,-3,,,,,,,,,,,,,,,,,,,,,,,,,,,,,,,001,2021-12-16_23h08.56.109,jm_natural_scene_simialrity_2-12-2021_version2,2021.2.3,Win32,57.66015107,6108878a6817adc0fb1bfbf9,61bbc5c79a1c66460f44041e,61bbc60c0f6f7e06c585d116,,,-69.59998959,31.19996961,1,0,0,response7disk,2.248,9.600060415,-2.400006473,1,0,0,rectangle,9.600060415,-2.400006473,1,0,0,-3,1,"[137,124,80,147,110,154,94,116,161,64]",9.600060415,-2.400006473,1,0,0,1,52,133,79,1,Purple,Purple.jpg,DarkBlue,DarkBlue.jpg,,
,,,,,,,,,,,,,,,,,,-4,,,,,,,,,,,,,,,,,,,,,,,,,,,,,,,001,2021-12-16_23h08.56.109,jm_natural_scene_simialrity_2-12-2021_version2,2021.2.3,Win32,57.66015107,6108878a6817adc0fb1bfbf9,61bbc5c79a1c66460f44041e,61bbc60c0f6f7e06c585d116,,,-46.39994042,75.9999947,1,0,0,response7disk,1.2417,1.600060296,8.799993694,1,0,0,rectangle,1.600060296,8.799993694,1,0,0,-3,1,"[137,124,80,147,110,154,94,116,161,64]",1.600060296,8.799993694,1,0,0,1,53,134,54,1,DarkGreen,DarkGreen.jpg,Yellow,Yellow.jpg,,
,,,,,,,,,,,,,,,,,,-2,,,,,,,,,,,,,,,,,,,,,,,,,,,,,,,001,2021-12-16_23h08.56.109,jm_natural_scene_simialrity_2-12-2021_version2,2021.2.3,Win32,57.66015107,6108878a6817adc0fb1bfbf9,61bbc5c79a1c66460f44041e,61bbc60c0f6f7e06c585d116,,,-71.99998963,-38.40000701,1,0,0,response5disk,1.9659,-1.59998858,-5.600006521,1,0,0,rectangle,-1.59998858,-5.600006521,1,0,0,-3,-3,"[137,124,80,147,110,154,94,116,161,64]",-1.59998858,-5.600006521,1,0,0,1,54,135,3,1,Red,Red.jpg,DarkGreen,DarkGreen.jpg,,
,,,,,,,,,,,,,,,,,,-4,,,,,,,,,,,,,,,,,,,,,,,,,,,,,,,001,2021-12-16_23h08.56.109,jm_natural_scene_simialrity_2-12-2021_version2,2021.2.3,Win32,57.66015107,6108878a6817adc0fb1bfbf9,61bbc5c79a1c66460f44041e,61bbc60c0f6f7e06c585d116,,,-38.3999403,73.59999466,1,0,0,response7disk,1.3991,0.800011456,-3.200006485,1,0,0,rectangle,84.0000127,-41.60000706,1,0,0,2,2,"[137,124,80,147,110,154,94,116,161,64]",-6.399939823,-4.800006509,1,0,0,1,55,136,73,1,Pink,Pink.jpg,Turquiose,Turquiose.jpg,response3disk_3,rectangle
,,,,,,,,,,,,,,,,,,-1,,,,,,,,,,,,,,,,,,,,,,,,,,,,,,,001,2021-12-16_23h08.56.109,jm_natural_scene_simialrity_2-12-2021_version2,2021.2.3,Win32,57.66015107,6108878a6817adc0fb1bfbf9,61bbc5c79a1c66460f44041e,61bbc60c0f6f7e06c585d116,,,-47.99998927,-75.20000756,1,0,0,response5disk,1.3663,-5.599988639,12.79999375,1,0,0,rectangle,-5.599988639,12.79999375,1,0,0,2,1,"[137,124,80,147,110,154,94,116,161,64]",-5.599988639,12.79999375,1,0,0,1,56,137,29,1,DarkGreen,DarkGreen.jpg,Purple,Purple.jpg,,
,,,,,,,,,,,,,,,,,,-1,,,,,,,,,,,,,,,,,,,,,,,,,,,,,,,001,2021-12-16_23h08.56.109,jm_natural_scene_simialrity_2-12-2021_version2,2021.2.3,Win32,57.66015107,6108878a6817adc0fb1bfbf9,61bbc5c79a1c66460f44041e,61bbc60c0f6f7e06c585d116,,,-49.5999893,-89.6000566,1,0,0,response5disk,1.2043,1.14441E-05,-10.40000659,1,0,0,rectangle,1.14441E-05,-10.40000659,1,0,0,2,-2,"[137,124,80,147,110,154,94,116,161,64]",1.14441E-05,-10.40000659,1,0,0,1,57,138,69,1,Pink,Pink.jpg,DarkGreen,DarkGreen.jpg,,
,,,,,,,,,,,,,,,,,,4,,,,,,,,,,,,,,,,,,,,,,,,,,,,,,,001,2021-12-16_23h08.56.109,jm_natural_scene_simialrity_2-12-2021_version2,2021.2.3,Win32,57.66015107,6108878a6817adc0fb1bfbf9,61bbc5c79a1c66460f44041e,61bbc60c0f6f7e06c585d116,,,38.40001202,87.99999487,1,0,0,response1disk,0.9874,12.00001162,1.599993587,1,0,0,rectangle,12.00001162,1.599993587,1,0,0,2,-2,"[137,124,80,147,110,154,94,116,161,64]",12.00001162,1.599993587,1,0,0,1,58,139,17,1,LightGreen,LightGreen.jpg,LightGreen,LightGreen.jpg,,
,,,,,,,,,,,,,,,,,,-2,,,,,,,,,,,,,,,,,,,,,,,,,,,,,,,001,2021-12-16_23h08.56.109,jm_natural_scene_simialrity_2-12-2021_version2,2021.2.3,Win32,57.66015107,6108878a6817adc0fb1bfbf9,61bbc5c79a1c66460f44041e,61bbc60c0f6f7e06c585d116,,,-80.79998976,-56.00000727,1,0,0,response5disk,2.9523,5.600060356,-4.000006497,1,0,0,rectangle,5.600060356,-4.000006497,1,0,0,2,2,"[137,124,80,147,110,154,94,116,161,64]",5.600060356,-4.000006497,1,0,0,1,59,140,59,1,Purple,Purple.jpg,Yellow,Yellow.jpg,,
,,,,,,,,,,,,,,,,,,-3,,,,,,,,,,,,,,,,,,,,,,,,,,,,,,,001,2021-12-16_23h08.56.109,jm_natural_scene_simialrity_2-12-2021_version2,2021.2.3,Win32,57.66015107,6108878a6817adc0fb1bfbf9,61bbc5c79a1c66460f44041e,61bbc60c0f6f7e06c585d116,,,-70.39994078,35.19996967,1,0,0,response7disk,1.2329,4.800011516,4.799993634,1,0,0,rectangle,4.800011516,4.799993634,1,0,0,2,-3,"[137,124,80,147,110,154,94,116,161,64]",4.800011516,4.799993634,1,0,0,1,60,141,65,1,Purple,Purple.jpg,LightGreen,LightGreen.jpg,,
,,,,,,,,,,,,,,,,,,2,,,,,,,,,,,,,,,,,,,,,,,,,,,,,,,001,2021-12-16_23h08.56.109,jm_natural_scene_simialrity_2-12-2021_version2,2021.2.3,Win32,57.66015107,6108878a6817adc0fb1bfbf9,61bbc5c79a1c66460f44041e,61bbc60c0f6f7e06c585d116,,,77.6000126,-40.00000703,1,0,0,response3disk,12.5443,-5.599988639,-8.800006568,1,0,0,rectangle,-5.599988639,-8.800006568,1,0,0,2,-4,"[137,124,80,147,110,154,94,116,161,64]",-5.599988639,-8.800006568,1,0,0,1,61,142,48,1,Turquiose,Turquiose.jpg,Red,Red.jpg,,
,,,,,,,,,,,,,,,,,,2,,,,,,,,,,,,,,,,,,,,,,,,,,,,,,,001,2021-12-16_23h08.56.109,jm_natural_scene_simialrity_2-12-2021_version2,2021.2.3,Win32,57.66015107,6108878a6817adc0fb1bfbf9,61bbc5c79a1c66460f44041e,61bbc60c0f6f7e06c585d116,,,97.6000129,-62.40000737,1,0,0,response3disk,1.2496,10.4000116,-3.200006485,1,0,0,rectangle,10.4000116,-3.200006485,1,0,0,2,-3,"[137,124,80,147,110,154,94,116,161,64]",10.4000116,-3.200006485,1,0,0,1,62,143,71,1,LightBlue,LightBlue.jpg,Turquiose,Turquiose.jpg,,
,,,,,,,,,,,,,,,,,,1,,,,,,,,,,,,,,,,,,,,,,,,,,,,,,,001,2021-12-16_23h08.56.109,jm_natural_scene_simialrity_2-12-2021_version2,2021.2.3,Win32,57.66015107,6108878a6817adc0fb1bfbf9,61bbc5c79a1c66460f44041e,61bbc60c0f6f7e06c585d116,,,47.20001215,-88.00000775,1,0,0,response3disk,1.6324,-1.59998858,12.79999375,1,0,0,rectangle,-1.59998858,12.79999375,1,0,0,2,-3,"[137,124,80,147,110,154,94,116,161,64]",-1.59998858,12.79999375,1,0,0,1,63,144,72,1,DarkBlue,DarkBlue.jpg,Turquiose,Turquiose.jpg,,
,,,,,,,,,,,,,,,,,,-3,,,,,,,,,,,,,,,,,,,,,,,,,,,,,,,001,2021-12-16_23h08.56.109,jm_natural_scene_simialrity_2-12-2021_version2,2021.2.3,Win32,57.66015107,6108878a6817adc0fb1bfbf9,61bbc5c79a1c66460f44041e,61bbc60c0f6f7e06c585d116,,,-75.19998968,39.19996973,1,0,0,response7disk,1.1326,7.200011551,0.799993575,1,0,0,rectangle,7.200011551,0.799993575,1,0,0,2,-1,"[137,124,80,147,110,154,94,116,161,64]",7.200011551,0.799993575,1,0,0,1,64,145,11,1,Yellow,Yellow.jpg,DarkGreen,DarkGreen.jpg,,
,,,,,,,,,,,,,,,,,,-4,,,,,,,,,,,,,,,,,,,,,,,,,,,,,,,001,2021-12-16_23h08.56.109,jm_natural_scene_simialrity_2-12-2021_version2,2021.2.3,Win32,57.66015107,6108878a6817adc0fb1bfbf9,61bbc5c79a1c66460f44041e,61bbc60c0f6f7e06c585d116,,,-30.39994018,100.7999951,1,0,0,response7disk,1.0996,2.40001148,2.399993598,1,0,0,rectangle,72.00001252,-48.00000715,1,0,0,2,2,"[137,124,80,147,110,154,94,116,161,64]",-5.599988639,-4.000006497,1,0,0,1,65,146,6,1,Red,Red.jpg,DarkBlue,DarkBlue.jpg,response3disk_3,rectangle
,,,,,,,,,,,,,,,,,,-1,,,,,,,,,,,,,,,,,,,,,,,,,,,,,,,001,2021-12-16_23h08.56.109,jm_natural_scene_simialrity_2-12-2021_version2,2021.2.3,Win32,57.66015107,6108878a6817adc0fb1bfbf9,61bbc5c79a1c66460f44041e,61bbc60c0f6f7e06c585d116,,,-61.59998947,-96.00000787,1,0,0,response5disk,1.6493,-5.599988639,14.39999378,1,0,0,rectangle,-5.599988639,14.39999378,1,0,0,2,-2,"[137,124,80,147,110,154,94,116,161,64]",-5.599988639,14.39999378,1,0,0,1,66,147,33,1,Turquiose,Turquiose.jpg,Pink,Pink.jpg,,
,,,,,,,,,,,,,,,,,,2,,,,,,,,,,,,,,,,,,,,,,,,,,,,,,,001,2021-12-16_23h08.56.109,jm_natural_scene_simialrity_2-12-2021_version2,2021.2.3,Win32,57.66015107,6108878a6817adc0fb1bfbf9,61bbc5c79a1c66460f44041e,61bbc60c0f6f7e06c585d116,,,94.40001285,-32.00000691,1,0,0,response3disk,1.2826,-0.799988568,7.999993682,1,0,0,rectangle,-0.799988568,7.999993682,1,0,0,2,1,"[137,124,80,147,110,154,94,116,161,64]",-0.799988568,7.999993682,1,0,0,1,67,148,77,1,Purple,Purple.jpg,LightBlue,LightBlue.jpg,,
,,,,,,,,,,,,,,,,,,4,,,,,,,,,,,,,,,,,,,,,,,,,,,,,,,001,2021-12-16_23h08.56.109,jm_natural_scene_simialrity_2-12-2021_version2,2021.2.3,Win32,57.66015107,6108878a6817adc0fb1bfbf9,61bbc5c79a1c66460f44041e,61bbc60c0f6f7e06c585d116,,,48.00001216,107.9999952,1,0,0,response1disk,0.8833,20.80001175,5.599993646,1,0,0,rectangle,20.80001175,5.599993646,1,0,0,2,-3,"[137,124,80,147,110,154,94,116,161,64]",20.80001175,5.599993646,1,0,0,1,68,149,0,1,Red,Red.jpg,Red,Red.jpg,,
,,,,,,,,,,,,,,,,,,-1,,,,,,,,,,,,,,,,,,,,,,,,,,,,,,,001,2021-12-16_23h08.56.109,jm_natural_scene_simialrity_2-12-2021_version2,2021.2.3,Win32,57.66015107,6108878a6817adc0fb1bfbf9,61bbc5c79a1c66460f44041e,61bbc60c0f6f7e06c585d116,,,-42.39994036,-88.80000776,1,0,0,response5disk,1.5825,-3.199988604,-5.600006521,1,0,0,rectangle,-3.199988604,-5.600006521,1,0,0,2,-4,"[137,124,80,147,110,154,94,116,161,64]",-3.199988604,-5.600006521,1,0,0,1,69,150,50,1,DarkBlue,DarkBlue.jpg,Red,Red.jpg,,
,,,,,,,,,,,,,,,,,,1,,,,,,,,,,,,,,,,,,,,,,,,,,,,,,,001,2021-12-16_23h08.56.109,jm_natural_scene_simialrity_2-12-2021_version2,2021.2.3,Win32,57.66015107,6108878a6817adc0fb1bfbf9,61bbc5c79a1c66460f44041e,61bbc60c0f6f7e06c585d116,,,55.20001227,-98.4000079,1,0,0,response3disk,1.0827,11.20001161,2.399993598,1,0,0,rectangle,11.20001161,2.399993598,1,0,0,2,3,"[137,124,80,147,110,154,94,116,161,64]",11.20001161,2.399993598,1,0,0,1,70,151,52,1,Purple,Purple.jpg,Red,Red.jpg,,
,,,,,,,,,,,,,,,,,,-3,,,,,,,,,,,,,,,,,,,,,,,,,,,,,,,001,2021-12-16_23h08.56.109,jm_natural_scene_simialrity_2-12-2021_version2,2021.2.3,Win32,57.66015107,6108878a6817adc0fb1bfbf9,61bbc5c79a1c66460f44041e,61bbc60c0f6f7e06c585d116,,,-62.39994066,36.79999411,1,0,0,response7disk,1.4987,-0.799988568,14.39999378,1,0,0,rectangle,-0.799988568,14.39999378,1,0,0,2,3,"[137,124,80,147,110,154,94,116,161,64]",-0.799988568,14.39999378,1,0,0,1,71,152,40,1,DarkBlue,DarkBlue.jpg,Pink,Pink.jpg,,
,,,,,,,,,,,,,,,,,,-2,,,,,,,,,,,,,,,,,,,,,,,,,,,,,,,001,2021-12-16_23h08.56.109,jm_natural_scene_simialrity_2-12-2021_version2,2021.2.3,Win32,57.66015107,6108878a6817adc0fb1bfbf9,61bbc5c79a1c66460f44041e,61bbc60c0f6f7e06c585d116,,,-32.79998904,-21.60000676,1,0,0,response5disk,1.4827,16.00001168,2.399993598,1,0,0,rectangle,-95.19998997,55.9999944,1,0,0,-3,-3,"[137,124,80,147,110,154,94,116,161,64]",-2.399939764,11.19999373,1,0,0,1,72,153,61,1,Turquiose,Turquiose.jpg,LightGreen,LightGreen.jpg,response7disk_3,rectangle
,,,,,,,,,,,,,,,,,,2,,,,,,,,,,,,,,,,,,,,,,,,,,,,,,,001,2021-12-16_23h08.56.109,jm_natural_scene_simialrity_2-12-2021_version2,2021.2.3,Win32,57.66015107,6108878a6817adc0fb1bfbf9,61bbc5c79a1c66460f44041e,61bbc60c0f6f7e06c585d116,,,78.40001261,-25.60000682,1,0,0,response3disk,1.5323,2.40001148,-7.200006545,1,0,0,rectangle,2.40001148,-7.200006545,1,0,0,-3,2,"[137,124,80,147,110,154,94,116,161,64]",2.40001148,-7.200006545,1,0,0,1,73,154,62,1,LightBlue,LightBlue.jpg,LightGreen,LightGreen.jpg,,
,,,,,,,,,,,,,,,,,,-1,,,,,,,,,,,,,,,,,,,,,,,,,,,,,,,001,2021-12-16_23h08.56.109,jm_natural_scene_simialrity_2-12-2021_version2,2021.2.3,Win32,57.66015107,6108878a6817adc0fb1bfbf9,61bbc5c79a1c66460f44041e,61bbc60c0f6f7e06c585d116,,,-54.39994054,-102.400008,1,0,0,response5disk,1.5156,-8.799988687,7.999993682,1,0,0,rectangle,-8.799988687,7.999993682,1,0,0,-3,1,"[137,124,80,147,110,154,94,116,161,64]",-8.799988687,7.999993682,1,0,0,1,74,155,63,1,DarkBlue,DarkBlue.jpg,LightGreen,LightGreen.jpg,,
,,,,,,,,,,,,,,,,,,2,,,,,,,,,,,,,,,,,,,,,,,,,,,,,,,001,2021-12-16_23h08.56.109,jm_natural_scene_simialrity_2-12-2021_version2,2021.2.3,Win32,57.66015107,6108878a6817adc0fb1bfbf9,61bbc5c79a1c66460f44041e,61bbc60c0f6f7e06c585d116,,,76.80001259,-51.2000072,1,0,0,response3disk,1.1329,18.40001172,-6.4373E-06,1,0,0,rectangle,18.40001172,-6.4373E-06,1,0,0,-3,-4,"[137,124,80,147,110,154,94,116,161,64]",18.40001172,-6.4373E-06,1,0,0,1,75,156,8,1,Red,Red.jpg,Purple,Purple.jpg,,
,,,,,,,,,,,,,,,,,,1,,,,,,,,,,,,,,,,,,,,,,,,,,,,,,,001,2021-12-16_23h08.56.109,jm_natural_scene_simialrity_2-12-2021_version2,2021.2.3,Win32,57.66015107,6108878a6817adc0fb1bfbf9,61bbc5c79a1c66460f44041e,61bbc60c0f6f7e06c585d116,,,40.80001205,-92.80000782,1,0,0,response3disk,1.2001,3.200011492,3.999993622,1,0,0,rectangle,3.200011492,3.999993622,1,0,0,-3,-3,"[137,124,80,147,110,154,94,116,161,64]",3.200011492,3.999993622,1,0,0,1,76,157,23,1,LightGreen,LightGreen.jpg,Purple,Purple.jpg,,
,,,,,,,,,,,,,,,,,,2,,,,,,,,,,,,,,,,,,,,,,,,,,,,,,,001,2021-12-16_23h08.56.109,jm_natural_scene_simialrity_2-12-2021_version2,2021.2.3,Win32,57.66015107,6108878a6817adc0fb1bfbf9,61bbc5c79a1c66460f44041e,61bbc60c0f6f7e06c585d116,,,105.600013,-41.60000706,1,0,0,response3disk,1.1159,6.400011539,1.599993587,1,0,0,rectangle,6.400011539,1.599993587,1,0,0,-3,-4,"[137,124,80,147,110,154,94,116,161,64]",6.400011539,1.599993587,1,0,0,1,77,158,75,1,DarkBlue,DarkBlue.jpg,LightBlue,LightBlue.jpg,,
,,,,,,,,,,,,,,,,,,3,,,,,,,,,,,,,,,,,,,,,,,,,,,,,,,001,2021-12-16_23h08.56.109,jm_natural_scene_simialrity_2-12-2021_version2,2021.2.3,Win32,57.66015107,6108878a6817adc0fb1bfbf9,61bbc5c79a1c66460f44041e,61bbc60c0f6f7e06c585d116,,,93.60001284,61.59999448,1,0,0,response1disk,1.1161,-1.59998858,-10.40000659,1,0,0,rectangle,-1.59998858,-10.40000659,1,0,0,-3,3,"[137,124,80,147,110,154,94,116,161,64]",-1.59998858,-10.40000659,1,0,0,1,78,159,60,1,DarkGreen,DarkGreen.jpg,LightGreen,LightGreen.jpg,,
,,,,,,,,,,,,,,,,,,3,,,,,,,,,,,,,,,,,,,,,,,,,,,,,,,001,2021-12-16_23h08.56.109,jm_natural_scene_simialrity_2-12-2021_version2,2021.2.3,Win32,57.66015107,6108878a6817adc0fb1bfbf9,61bbc5c79a1c66460f44041e,61bbc60c0f6f7e06c585d116,,,82.40001267,40.79999417,1,0,0,response1disk,1.333,1.600060296,2.399993598,1,0,0,rectangle,-49.5999893,109.5999952,1,0,0,-4,-4,"[137,124,80,147,110,154,94,116,161,64]",8.800011575,5.599993646,1,0,0,1,79,160,7,1,Red,Red.jpg,Pink,Pink.jpg,response7disk_3,rectangle
,,,,,,,,,,,,,,,,,,-1,,,,,,,,,,,,,,,,,,,,,,,,,,,,,,,001,2021-12-16_23h08.56.109,jm_natural_scene_simialrity_2-12-2021_version2,2021.2.3,Win32,57.66015107,6108878a6817adc0fb1bfbf9,61bbc5c79a1c66460f44041e,61bbc60c0f6f7e06c585d116,,,-38.3999403,-83.20000768,1,0,0,response5disk,2.5816,1.600060296,-2.400006473,1,0,0,rectangle,1.600060296,-2.400006473,1,0,0,-4,-2,"[137,124,80,147,110,154,94,116,161,64]",1.600060296,-2.400006473,1,0,0,1,80,161,16,1,Yellow,Yellow.jpg,Purple,Purple.jpg,,
