key_resp.keys,key_resp.rt,key_resp_16.keys,key_resp_16.rt,key_resp_2.keys,key_resp_2.rt,key_resp_3.keys,key_resp_3.rt,key_resp_19.keys,key_resp_19.rt,key_resp_10.keys,key_resp_10.rt,mouse_prac.x,mouse_prac.y,mouse_prac.leftButton,mouse_prac.midButton,mouse_prac.rightButton,mouse_prac.clicked_name,similarity,mouse_10.x,mouse_10.y,mouse_10.leftButton,mouse_10.midButton,mouse_10.rightButton,mouse_10.clicked_name,mouse_catch_prac.x,mouse_catch_prac.y,mouse_catch_prac.leftButton,mouse_catch_prac.midButton,mouse_catch_prac.rightButton,mouse_catch_prac.clicked_name,catchprac,catchnumberprac,mouse_6.x,mouse_6.y,mouse_6.leftButton,mouse_6.midButton,mouse_6.rightButton,mouse_6.clicked_name,during_prac.thisRepN,during_prac.thisTrialN,during_prac.thisN,during_prac.thisIndex,during_prac.ran,trailimage1,trial1adress,trailimage2,trial2adress,participant,session,date,expName,psychopyVersion,OS,frameRate,PROLIFIC_PID,STUDY_ID,SESSION_ID,key_resp_22.keys,key_resp_22.rt,mouse.x,mouse.y,mouse.leftButton,mouse.midButton,mouse.rightButton,mouse.clicked_name,response_time,mouse_2.x,mouse_2.y,mouse_2.leftButton,mouse_2.midButton,mouse_2.rightButton,mouse_2.clicked_name,mouse_3.x,mouse_3.y,mouse_3.leftButton,mouse_3.midButton,mouse_3.rightButton,catchresponse,catchnumber,catchtrialorder,mouse_11.x,mouse_11.y,mouse_11.leftButton,mouse_11.midButton,mouse_11.rightButton,trials_2.thisRepN,trials_2.thisTrialN,trials_2.thisN,trials_2.thisIndex,trials_2.ran,image1,image1adress,image2,image2adress,mouse_3.clicked_name,mouse_11.clicked_name
space,1.1653,space,1.9517,space,0.8444,space,3.9925,space,372.5701,space,1.438,-74.19921875,-45.27734375,1,0,0,response5disk_5,-2,7.5546875,-0.890625,1,0,0,rectangle_8,-110.9414063,40.171875,1,0,0,response7disk_7,-3,-3,-1.3671875,-7.5703125,1,0,0,rectangle_4,0,0,0,2,1,trail1,trail1.jpg,trail3,trail3.jpg,,001,2021-12-16_23h07.49.696,jm_natural_scene_simialrity_2-12-2021_version2,2021.2.3,MacIntel,59.99880002,5da27a7689b88f0015b32142,61bbc5c79a1c66460f44041e,61bbc64bae5a1d964ba07bfa,,,,,,,,,,,,,,,,,,,,,,,,,,,,,,,,,,,,,,,
,,,,,,,,,,,,106.7851563,-45.625,1,0,0,response3disk_5,2,0.27734375,-9.1171875,1,0,0,rectangle_8,0.27734375,-9.1171875,1,0,0,,,-3,0.27734375,-9.1171875,1,0,0,,0,1,1,3,1,trail2,trail2.jpg,trail2,trail2.jpg,,001,2021-12-16_23h07.49.696,jm_natural_scene_simialrity_2-12-2021_version2,2021.2.3,MacIntel,59.99880002,5da27a7689b88f0015b32142,61bbc5c79a1c66460f44041e,61bbc64bae5a1d964ba07bfa,,,,,,,,,,,,,,,,,,,,,,,,,,,,,,,,,,,,,,,
,,,,,,,,,,,,-84.38671875,-64.96484375,1,0,0,response5disk_5,-2,-9.640625,-10.296875,1,0,0,rectangle_8,-9.640625,-10.296875,1,0,0,,,-3,-9.640625,-10.296875,1,0,0,,0,2,2,4,1,trail2,trail2.jpg,trail3,trail3.jpg,,001,2021-12-16_23h07.49.696,jm_natural_scene_simialrity_2-12-2021_version2,2021.2.3,MacIntel,59.99880002,5da27a7689b88f0015b32142,61bbc5c79a1c66460f44041e,61bbc64bae5a1d964ba07bfa,,,,,,,,,,,,,,,,,,,,,,,,,,,,,,,,,,,,,,,
,,,,,,,,,,,,-58.5078125,-102.1445313,1,0,0,response5disk_5,-1,-6.8046875,-14.76171875,1,0,0,rectangle_8,-6.8046875,-14.76171875,1,0,0,,,-3,-6.8046875,-14.76171875,1,0,0,,0,3,3,1,1,trail1,trail1.jpg,trail2,trail2.jpg,,001,2021-12-16_23h07.49.696,jm_natural_scene_simialrity_2-12-2021_version2,2021.2.3,MacIntel,59.99880002,5da27a7689b88f0015b32142,61bbc5c79a1c66460f44041e,61bbc64bae5a1d964ba07bfa,,,,,,,,,,,,,,,,,,,,,,,,,,,,,,,,,,,,,,,
,,,,,,,,,,,,106.0195313,47.41015625,1,0,0,response1disk_5,3,2.37109375,-12.80859375,1,0,0,rectangle_8,2.37109375,-12.80859375,1,0,0,,,-3,2.37109375,-12.80859375,1,0,0,,0,4,4,5,1,trail3,trail3.jpg,trail3,trail3.jpg,,001,2021-12-16_23h07.49.696,jm_natural_scene_simialrity_2-12-2021_version2,2021.2.3,MacIntel,59.99880002,5da27a7689b88f0015b32142,61bbc5c79a1c66460f44041e,61bbc64bae5a1d964ba07bfa,,,,,,,,,,,,,,,,,,,,,,,,,,,,,,,,,,,,,,,
,,,,,,,,,,,,-67.19140625,-58.98046875,1,0,0,response5disk_5,-2,2.8046875,-0.8828125,1,0,0,rectangle_8,2.8046875,-0.8828125,1,0,0,,,-3,2.8046875,-0.8828125,1,0,0,,0,5,5,0,1,trail1,trail1.jpg,trail1,trail1.jpg,,001,2021-12-16_23h07.49.696,jm_natural_scene_simialrity_2-12-2021_version2,2021.2.3,MacIntel,59.99880002,5da27a7689b88f0015b32142,61bbc5c79a1c66460f44041e,61bbc64bae5a1d964ba07bfa,,,,,,,,,,,,,,,,,,,,,,,,,,,,,,,,,,,,,,,
,,,,,,,,,,,,,,,,,,3,,,,,,,,,,,,,,,,,,,,,,,,,,,,,,,001,2021-12-16_23h07.49.696,jm_natural_scene_simialrity_2-12-2021_version2,2021.2.3,MacIntel,59.99880002,5da27a7689b88f0015b32142,61bbc5c79a1c66460f44041e,61bbc64bae5a1d964ba07bfa,space,0.3324,92.30859375,55.94921875,1,0,0,response1disk,2.8507,12.7109375,9.8828125,1,0,0,rectangle,12.7109375,9.8828125,1,0,0,,-3,"[87,71,52,123,36,80,60,150,82,38]",12.7109375,9.8828125,1,0,0,0,0,0,61,1,Turquiose,Turquiose.jpg,LightGreen,LightGreen.jpg,,
,,,,,,,,,,,,,,,,,,-1,,,,,,,,,,,,,,,,,,,,,,,,,,,,,,,001,2021-12-16_23h07.49.696,jm_natural_scene_simialrity_2-12-2021_version2,2021.2.3,MacIntel,59.99880002,5da27a7689b88f0015b32142,61bbc5c79a1c66460f44041e,61bbc64bae5a1d964ba07bfa,,,-45.34765625,-95.5078125,1,0,0,response5disk,4.9336,7.05078125,-3.23828125,1,0,0,rectangle,7.05078125,-3.23828125,1,0,0,,-3,"[87,71,52,123,36,80,60,150,82,38]",7.05078125,-3.23828125,1,0,0,0,1,1,54,1,DarkGreen,DarkGreen.jpg,Yellow,Yellow.jpg,,
,,,,,,,,,,,,,,,,,,-1,,,,,,,,,,,,,,,,,,,,,,,,,,,,,,,001,2021-12-16_23h07.49.696,jm_natural_scene_simialrity_2-12-2021_version2,2021.2.3,MacIntel,59.99880002,5da27a7689b88f0015b32142,61bbc5c79a1c66460f44041e,61bbc64bae5a1d964ba07bfa,,,-52.43359375,-78.859375,1,0,0,response5disk,2.0149,4.41796875,6.890625,1,0,0,rectangle,4.41796875,6.890625,1,0,0,,-3,"[87,71,52,123,36,80,60,150,82,38]",4.41796875,6.890625,1,0,0,0,2,2,16,1,Yellow,Yellow.jpg,Purple,Purple.jpg,,
,,,,,,,,,,,,,,,,,,2,,,,,,,,,,,,,,,,,,,,,,,,,,,,,,,001,2021-12-16_23h07.49.696,jm_natural_scene_simialrity_2-12-2021_version2,2021.2.3,MacIntel,59.99880002,5da27a7689b88f0015b32142,61bbc5c79a1c66460f44041e,61bbc64bae5a1d964ba07bfa,,,106.2851563,-77.6171875,1,0,0,response3disk,2.4183,7.35546875,-4.4765625,1,0,0,rectangle,7.35546875,-4.4765625,1,0,0,,2,"[87,71,52,123,36,80,60,150,82,38]",7.35546875,-4.4765625,1,0,0,0,3,3,77,1,Purple,Purple.jpg,LightBlue,LightBlue.jpg,,
,,,,,,,,,,,,,,,,,,-1,,,,,,,,,,,,,,,,,,,,,,,,,,,,,,,001,2021-12-16_23h07.49.696,jm_natural_scene_simialrity_2-12-2021_version2,2021.2.3,MacIntel,59.99880002,5da27a7689b88f0015b32142,61bbc5c79a1c66460f44041e,61bbc64bae5a1d964ba07bfa,,,-49.84375,-104.359375,1,0,0,response5disk,1.3488,1.3828125,-6.56640625,1,0,0,rectangle,1.3828125,-6.56640625,1,0,0,,2,"[87,71,52,123,36,80,60,150,82,38]",1.3828125,-6.56640625,1,0,0,0,4,4,26,1,DarkGreen,DarkGreen.jpg,LightBlue,LightBlue.jpg,,
,,,,,,,,,,,,,,,,,,-1,,,,,,,,,,,,,,,,,,,,,,,,,,,,,,,001,2021-12-16_23h07.49.696,jm_natural_scene_simialrity_2-12-2021_version2,2021.2.3,MacIntel,59.99880002,5da27a7689b88f0015b32142,61bbc5c79a1c66460f44041e,61bbc64bae5a1d964ba07bfa,,,-46.0390625,-94.60546875,1,0,0,response5disk,16.5514,-6.05859375,-2.8125,1,0,0,rectangle,-6.05859375,-2.8125,1,0,0,,3,"[87,71,52,123,36,80,60,150,82,38]",-6.05859375,-2.8125,1,0,0,0,5,5,69,1,Pink,Pink.jpg,DarkGreen,DarkGreen.jpg,,
,,,,,,,,,,,,,,,,,,-1,,,,,,,,,,,,,,,,,,,,,,,,,,,,,,,001,2021-12-16_23h07.49.696,jm_natural_scene_simialrity_2-12-2021_version2,2021.2.3,MacIntel,59.99880002,5da27a7689b88f0015b32142,61bbc5c79a1c66460f44041e,61bbc64bae5a1d964ba07bfa,,,-25.078125,-89.48046875,1,0,0,response5disk,1.1172,-1.203125,1.1328125,1,0,0,rectangle,-1.203125,1.1328125,1,0,0,,3,"[87,71,52,123,36,80,60,150,82,38]",-1.203125,1.1328125,1,0,0,0,6,6,5,1,Red,Red.jpg,LightBlue,LightBlue.jpg,,
,,,,,,,,,,,,,,,,,,2,,,,,,,,,,,,,,,,,,,,,,,,,,,,,,,001,2021-12-16_23h07.49.696,jm_natural_scene_simialrity_2-12-2021_version2,2021.2.3,MacIntel,59.99880002,5da27a7689b88f0015b32142,61bbc5c79a1c66460f44041e,61bbc64bae5a1d964ba07bfa,,,92.57421875,-33.97265625,1,0,0,response3disk,2.3023,-2.30859375,17.796875,1,0,0,rectangle,-2.30859375,17.796875,1,0,0,,-2,"[87,71,52,123,36,80,60,150,82,38]",-2.30859375,17.796875,1,0,0,0,7,7,43,1,Pink,Pink.jpg,Purple,Purple.jpg,,
,,,,,,,,,,,,,,,,,,3,,,,,,,,,,,,,,,,,,,,,,,,,,,,,,,001,2021-12-16_23h07.49.696,jm_natural_scene_simialrity_2-12-2021_version2,2021.2.3,MacIntel,59.99880002,5da27a7689b88f0015b32142,61bbc5c79a1c66460f44041e,61bbc64bae5a1d964ba07bfa,,,96.39453125,55.6328125,1,0,0,response1disk,1.4345,3.6171875,-8.72265625,1,0,0,rectangle,3.6171875,-8.72265625,1,0,0,,1,"[87,71,52,123,36,80,60,150,82,38]",3.6171875,-8.72265625,1,0,0,0,8,8,0,1,Red,Red.jpg,Red,Red.jpg,,
,,,,,,,,,,,,,,,,,,-1,,,,,,,,,,,,,,,,,,,,,,,,,,,,,,,001,2021-12-16_23h07.49.696,jm_natural_scene_simialrity_2-12-2021_version2,2021.2.3,MacIntel,59.99880002,5da27a7689b88f0015b32142,61bbc5c79a1c66460f44041e,61bbc64bae5a1d964ba07bfa,,,-40.546875,-68.83203125,1,0,0,response5disk,0.9678,-10.60546875,-8.62890625,1,0,0,rectangle,-10.60546875,-8.62890625,1,0,0,,2,"[87,71,52,123,36,80,60,150,82,38]",-10.60546875,-8.62890625,1,0,0,0,9,9,28,1,DarkGreen,DarkGreen.jpg,Pink,Pink.jpg,,
,,,,,,,,,,,,,,,,,,3,,,,,,,,,,,,,,,,,,,,,,,,,,,,,,,001,2021-12-16_23h07.49.696,jm_natural_scene_simialrity_2-12-2021_version2,2021.2.3,MacIntel,59.99880002,5da27a7689b88f0015b32142,61bbc5c79a1c66460f44041e,61bbc64bae5a1d964ba07bfa,,,99.83203125,67.453125,1,0,0,response1disk,1.4004,-2.60546875,-12.046875,1,0,0,rectangle,-2.60546875,-12.046875,1,0,0,,1,"[87,71,52,123,36,80,60,150,82,38]",-2.60546875,-12.046875,1,0,0,0,10,10,32,1,Turquiose,Turquiose.jpg,DarkBlue,DarkBlue.jpg,,
,,,,,,,,,,,,,,,,,,-1,,,,,,,,,,,,,,,,,,,,,,,,,,,,,,,001,2021-12-16_23h07.49.696,jm_natural_scene_simialrity_2-12-2021_version2,2021.2.3,MacIntel,59.99880002,5da27a7689b88f0015b32142,61bbc5c79a1c66460f44041e,61bbc64bae5a1d964ba07bfa,,,-52.515625,-68.234375,1,0,0,response5disk,1.617,0.390625,-4.37109375,1,0,0,rectangle,0.390625,-4.37109375,1,0,0,,-4,"[87,71,52,123,36,80,60,150,82,38]",0.390625,-4.37109375,1,0,0,0,11,11,33,1,Turquiose,Turquiose.jpg,Pink,Pink.jpg,,
,,,,,,,,,,,,,,,,,,3,,,,,,,,,,,,,,,,,,,,,,,,,,,,,,,001,2021-12-16_23h07.49.696,jm_natural_scene_simialrity_2-12-2021_version2,2021.2.3,MacIntel,59.99880002,5da27a7689b88f0015b32142,61bbc5c79a1c66460f44041e,61bbc64bae5a1d964ba07bfa,,,88.390625,40.46484375,1,0,0,response1disk,1.0824,9.2109375,-6.9765625,1,0,0,rectangle,9.2109375,-6.9765625,1,0,0,,2,"[87,71,52,123,36,80,60,150,82,38]",9.2109375,-6.9765625,1,0,0,0,12,12,52,1,Purple,Purple.jpg,Red,Red.jpg,,
,,,,,,,,,,,,,,,,,,-1,,,,,,,,,,,,,,,,,,,,,,,,,,,,,,,001,2021-12-16_23h07.49.696,jm_natural_scene_simialrity_2-12-2021_version2,2021.2.3,MacIntel,59.99880002,5da27a7689b88f0015b32142,61bbc5c79a1c66460f44041e,61bbc64bae5a1d964ba07bfa,,,-76.98828125,-142.015625,1,0,0,response5disk,0.7821,5.25,-9.9375,1,0,0,rectangle,5.25,-9.9375,1,0,0,,1,"[87,71,52,123,36,80,60,150,82,38]",5.25,-9.9375,1,0,0,0,13,13,76,1,Pink,Pink.jpg,LightBlue,LightBlue.jpg,,
,,,,,,,,,,,,,,,,,,2,,,,,,,,,,,,,,,,,,,,,,,,,,,,,,,001,2021-12-16_23h07.49.696,jm_natural_scene_simialrity_2-12-2021_version2,2021.2.3,MacIntel,59.99880002,5da27a7689b88f0015b32142,61bbc5c79a1c66460f44041e,61bbc64bae5a1d964ba07bfa,,,116.5507813,-41.84375,1,0,0,response3disk,1.8168,8.23828125,-9.19921875,1,0,0,rectangle,8.23828125,-9.19921875,1,0,0,,1,"[87,71,52,123,36,80,60,150,82,38]",8.23828125,-9.19921875,1,0,0,0,14,14,71,1,LightBlue,LightBlue.jpg,Turquiose,Turquiose.jpg,,
,,,,,,,,,,,,,,,,,,2,,,,,,,,,,,,,,,,,,,,,,,,,,,,,,,001,2021-12-16_23h07.49.696,jm_natural_scene_simialrity_2-12-2021_version2,2021.2.3,MacIntel,59.99880002,5da27a7689b88f0015b32142,61bbc5c79a1c66460f44041e,61bbc64bae5a1d964ba07bfa,,,100.015625,-26.9453125,1,0,0,response3disk,1.5159,1.80078125,-1.80078125,1,0,0,rectangle,1.80078125,-1.80078125,1,0,0,,-3,"[87,71,52,123,36,80,60,150,82,38]",1.80078125,-1.80078125,1,0,0,0,15,15,59,1,Purple,Purple.jpg,Yellow,Yellow.jpg,,
,,,,,,,,,,,,,,,,,,4,,,,,,,,,,,,,,,,,,,,,,,,,,,,,,,001,2021-12-16_23h07.49.696,jm_natural_scene_simialrity_2-12-2021_version2,2021.2.3,MacIntel,59.99880002,5da27a7689b88f0015b32142,61bbc5c79a1c66460f44041e,61bbc64bae5a1d964ba07bfa,,,56.97265625,89.4921875,1,0,0,response1disk,0.9318,5.15234375,24.609375,1,0,0,rectangle,5.15234375,24.609375,1,0,0,,2,"[87,71,52,123,36,80,60,150,82,38]",5.15234375,24.609375,1,0,0,0,16,16,24,1,DarkGreen,DarkGreen.jpg,DarkGreen,DarkGreen.jpg,,
,,,,,,,,,,,,,,,,,,2,,,,,,,,,,,,,,,,,,,,,,,,,,,,,,,001,2021-12-16_23h07.49.696,jm_natural_scene_simialrity_2-12-2021_version2,2021.2.3,MacIntel,59.99880002,5da27a7689b88f0015b32142,61bbc5c79a1c66460f44041e,61bbc64bae5a1d964ba07bfa,,,110.9960938,-43.59765625,1,0,0,response3disk,2.4842,0.42578125,9.58203125,1,0,0,rectangle,0.42578125,9.58203125,1,0,0,,-1,"[87,71,52,123,36,80,60,150,82,38]",0.42578125,9.58203125,1,0,0,0,17,17,38,1,LightBlue,LightBlue.jpg,Purple,Purple.jpg,,
,,,,,,,,,,,,,,,,,,-2,,,,,,,,,,,,,,,,,,,,,,,,,,,,,,,001,2021-12-16_23h07.49.696,jm_natural_scene_simialrity_2-12-2021_version2,2021.2.3,MacIntel,59.99880002,5da27a7689b88f0015b32142,61bbc5c79a1c66460f44041e,61bbc64bae5a1d964ba07bfa,,,-55.5703125,-31.02734375,1,0,0,response5disk,1.5334,0.58984375,-16.95703125,1,0,0,rectangle,0.58984375,-16.95703125,1,0,0,,1,"[87,71,52,123,36,80,60,150,82,38]",0.58984375,-16.95703125,1,0,0,0,18,18,55,1,Turquiose,Turquiose.jpg,Yellow,Yellow.jpg,,
,,,,,,,,,,,,,,,,,,-1,,,,,,,,,,,,,,,,,,,,,,,,,,,,,,,001,2021-12-16_23h07.49.696,jm_natural_scene_simialrity_2-12-2021_version2,2021.2.3,MacIntel,59.99880002,5da27a7689b88f0015b32142,61bbc5c79a1c66460f44041e,61bbc64bae5a1d964ba07bfa,,,-62.21875,-105.109375,1,0,0,response5disk,0.9322,3.5078125,-6.58984375,1,0,0,rectangle,3.5078125,-6.58984375,1,0,0,,-1,"[87,71,52,123,36,80,60,150,82,38]",3.5078125,-6.58984375,1,0,0,0,19,19,64,1,Pink,Pink.jpg,LightGreen,LightGreen.jpg,,
,,,,,,,,,,,,,,,,,,2,,,,,,,,,,,,,,,,,,,,,,,,,,,,,,,001,2021-12-16_23h07.49.696,jm_natural_scene_simialrity_2-12-2021_version2,2021.2.3,MacIntel,59.99880002,5da27a7689b88f0015b32142,61bbc5c79a1c66460f44041e,61bbc64bae5a1d964ba07bfa,,,115.3203125,-27.265625,1,0,0,response3disk,1.333,-3.77734375,-0.875,1,0,0,rectangle,-3.77734375,-0.875,1,0,0,,-1,"[87,71,52,123,36,80,60,150,82,38]",-3.77734375,-0.875,1,0,0,0,20,20,8,1,Red,Red.jpg,Purple,Purple.jpg,,
,,,,,,,,,,,,,,,,,,3,,,,,,,,,,,,,,,,,,,,,,,,,,,,,,,001,2021-12-16_23h07.49.696,jm_natural_scene_simialrity_2-12-2021_version2,2021.2.3,MacIntel,59.99880002,5da27a7689b88f0015b32142,61bbc5c79a1c66460f44041e,61bbc64bae5a1d964ba07bfa,,,106.3085938,57.87109375,1,0,0,response1disk,1.7006,6.03515625,3.265625,1,0,0,rectangle,6.03515625,3.265625,1,0,0,,-1,"[87,71,52,123,36,80,60,150,82,38]",6.03515625,3.265625,1,0,0,0,21,21,36,1,LightBlue,LightBlue.jpg,DarkBlue,DarkBlue.jpg,,
,,,,,,,,,,,,,,,,,,4,,,,,,,,,,,,,,,,,,,,,,,,,,,,,,,001,2021-12-16_23h07.49.696,jm_natural_scene_simialrity_2-12-2021_version2,2021.2.3,MacIntel,59.99880002,5da27a7689b88f0015b32142,61bbc5c79a1c66460f44041e,61bbc64bae5a1d964ba07bfa,,,51.7734375,72.6875,1,0,0,response1disk,0.8342,-12.54296875,-10.3828125,1,0,0,rectangle,-12.54296875,-10.3828125,1,0,0,,3,"[87,71,52,123,36,80,60,150,82,38]",-12.54296875,-10.3828125,1,0,0,0,22,22,60,1,DarkGreen,DarkGreen.jpg,LightGreen,LightGreen.jpg,,
,,,,,,,,,,,,,,,,,,-1,,,,,,,,,,,,,,,,,,,,,,,,,,,,,,,001,2021-12-16_23h07.49.696,jm_natural_scene_simialrity_2-12-2021_version2,2021.2.3,MacIntel,59.99880002,5da27a7689b88f0015b32142,61bbc5c79a1c66460f44041e,61bbc64bae5a1d964ba07bfa,,,-44.9765625,-102.8554688,1,0,0,response5disk,1.9157,1.22265625,-2.5390625,1,0,0,rectangle,1.22265625,-2.5390625,1,0,0,,-1,"[87,71,52,123,36,80,60,150,82,38]",1.22265625,-2.5390625,1,0,0,0,23,23,29,1,DarkGreen,DarkGreen.jpg,Purple,Purple.jpg,,
,,,,,,,,,,,,,,,,,,3,,,,,,,,,,,,,,,,,,,,,,,,,,,,,,,001,2021-12-16_23h07.49.696,jm_natural_scene_simialrity_2-12-2021_version2,2021.2.3,MacIntel,59.99880002,5da27a7689b88f0015b32142,61bbc5c79a1c66460f44041e,61bbc64bae5a1d964ba07bfa,,,86.234375,40.7578125,1,0,0,response1disk,1.0196,-6.0390625,-12.546875,1,0,0,rectangle,-6.0390625,-12.546875,1,0,0,,-3,"[87,71,52,123,36,80,60,150,82,38]",-6.0390625,-12.546875,1,0,0,0,24,24,15,1,Yellow,Yellow.jpg,Pink,Pink.jpg,,
,,,,,,,,,,,,,,,,,,-1,,,,,,,,,,,,,,,,,,,,,,,,,,,,,,,001,2021-12-16_23h07.49.696,jm_natural_scene_simialrity_2-12-2021_version2,2021.2.3,MacIntel,59.99880002,5da27a7689b88f0015b32142,61bbc5c79a1c66460f44041e,61bbc64bae5a1d964ba07bfa,,,-44.953125,-75.30859375,1,0,0,response5disk,1.284,-13.5546875,-18.16796875,1,0,0,rectangle,-13.5546875,-18.16796875,1,0,0,,-3,"[87,71,52,123,36,80,60,150,82,38]",-13.5546875,-18.16796875,1,0,0,0,25,25,74,1,Purple,Purple.jpg,Turquiose,Turquiose.jpg,,
,,,,,,,,,,,,,,,,,,4,,,,,,,,,,,,,,,,,,,,,,,,,,,,,,,001,2021-12-16_23h07.49.696,jm_natural_scene_simialrity_2-12-2021_version2,2021.2.3,MacIntel,59.99880002,5da27a7689b88f0015b32142,61bbc5c79a1c66460f44041e,61bbc64bae5a1d964ba07bfa,,,46.31640625,93.05859375,1,0,0,response1disk,1.8005,11.703125,18.609375,1,0,0,rectangle,11.703125,18.609375,1,0,0,,-3,"[87,71,52,123,36,80,60,150,82,38]",11.703125,18.609375,1,0,0,0,26,26,44,1,Purple,Purple.jpg,Purple,Purple.jpg,,
,,,,,,,,,,,,,,,,,,-2,,,,,,,,,,,,,,,,,,,,,,,,,,,,,,,001,2021-12-16_23h07.49.696,jm_natural_scene_simialrity_2-12-2021_version2,2021.2.3,MacIntel,59.99880002,5da27a7689b88f0015b32142,61bbc5c79a1c66460f44041e,61bbc64bae5a1d964ba07bfa,,,-93.6640625,-35.3984375,1,0,0,response5disk,2.2358,18.984375,4.71875,1,0,0,rectangle,18.984375,4.71875,1,0,0,,-4,"[87,71,52,123,36,80,60,150,82,38]",18.984375,4.71875,1,0,0,0,27,27,37,1,LightBlue,LightBlue.jpg,Pink,Pink.jpg,,
,,,,,,,,,,,,,,,,,,-1,,,,,,,,,,,,,,,,,,,,,,,,,,,,,,,001,2021-12-16_23h07.49.696,jm_natural_scene_simialrity_2-12-2021_version2,2021.2.3,MacIntel,59.99880002,5da27a7689b88f0015b32142,61bbc5c79a1c66460f44041e,61bbc64bae5a1d964ba07bfa,,,-37.08203125,-72.01953125,1,0,0,response5disk,0.9823,5.1015625,-10.73828125,1,0,0,rectangle,5.1015625,-10.73828125,1,0,0,,-3,"[87,71,52,123,36,80,60,150,82,38]",5.1015625,-10.73828125,1,0,0,0,28,28,31,1,Turquiose,Turquiose.jpg,LightBlue,LightBlue.jpg,,
,,,,,,,,,,,,,,,,,,3,,,,,,,,,,,,,,,,,,,,,,,,,,,,,,,001,2021-12-16_23h07.49.696,jm_natural_scene_simialrity_2-12-2021_version2,2021.2.3,MacIntel,59.99880002,5da27a7689b88f0015b32142,61bbc5c79a1c66460f44041e,61bbc64bae5a1d964ba07bfa,,,106.6835938,42.2265625,1,0,0,response1disk,1.2654,10.91796875,6.01171875,1,0,0,rectangle,10.91796875,6.01171875,1,0,0,,-2,"[87,71,52,123,36,80,60,150,82,38]",10.91796875,6.01171875,1,0,0,0,29,29,75,1,DarkBlue,DarkBlue.jpg,LightBlue,LightBlue.jpg,,
,,,,,,,,,,,,,,,,,,3,,,,,,,,,,,,,,,,,,,,,,,,,,,,,,,001,2021-12-16_23h07.49.696,jm_natural_scene_simialrity_2-12-2021_version2,2021.2.3,MacIntel,59.99880002,5da27a7689b88f0015b32142,61bbc5c79a1c66460f44041e,61bbc64bae5a1d964ba07bfa,,,102.6171875,64.38671875,1,0,0,response1disk,0.8666,12.4296875,-4.53125,1,0,0,rectangle,12.4296875,-4.53125,1,0,0,,-4,"[87,71,52,123,36,80,60,150,82,38]",12.4296875,-4.53125,1,0,0,0,30,30,58,1,Pink,Pink.jpg,Yellow,Yellow.jpg,,
,,,,,,,,,,,,,,,,,,-1,,,,,,,,,,,,,,,,,,,,,,,,,,,,,,,001,2021-12-16_23h07.49.696,jm_natural_scene_simialrity_2-12-2021_version2,2021.2.3,MacIntel,59.99880002,5da27a7689b88f0015b32142,61bbc5c79a1c66460f44041e,61bbc64bae5a1d964ba07bfa,,,-44.15625,-80.7890625,1,0,0,response5disk,1.3166,4.96484375,4.5390625,1,0,0,rectangle,4.96484375,4.5390625,1,0,0,,-3,"[87,71,52,123,36,80,60,150,82,38]",4.96484375,4.5390625,1,0,0,0,31,31,57,1,DarkBlue,DarkBlue.jpg,Yellow,Yellow.jpg,,
,,,,,,,,,,,,,,,,,,-1,,,,,,,,,,,,,,,,,,,,,,,,,,,,,,,001,2021-12-16_23h07.49.696,jm_natural_scene_simialrity_2-12-2021_version2,2021.2.3,MacIntel,59.99880002,5da27a7689b88f0015b32142,61bbc5c79a1c66460f44041e,61bbc64bae5a1d964ba07bfa,,,-44.796875,-73.83203125,1,0,0,response5disk,1.6669,2.38671875,1.63671875,1,0,0,rectangle,2.38671875,1.63671875,1,0,0,,3,"[87,71,52,123,36,80,60,150,82,38]",2.38671875,1.63671875,1,0,0,0,32,32,34,1,Turquiose,Turquiose.jpg,Purple,Purple.jpg,,
,,,,,,,,,,,,,,,,,,3,,,,,,,,,,,,,,,,,,,,,,,,,,,,,,,001,2021-12-16_23h07.49.696,jm_natural_scene_simialrity_2-12-2021_version2,2021.2.3,MacIntel,59.99880002,5da27a7689b88f0015b32142,61bbc5c79a1c66460f44041e,61bbc64bae5a1d964ba07bfa,,,87.99609375,37.08984375,1,0,0,response1disk,1.201,-2.21484375,-9.43359375,1,0,0,rectangle,-2.21484375,-9.43359375,1,0,0,,-2,"[87,71,52,123,36,80,60,150,82,38]",-2.21484375,-9.43359375,1,0,0,0,33,33,63,1,DarkBlue,DarkBlue.jpg,LightGreen,LightGreen.jpg,,
,,,,,,,,,,,,,,,,,,-1,,,,,,,,,,,,,,,,,,,,,,,,,,,,,,,001,2021-12-16_23h07.49.696,jm_natural_scene_simialrity_2-12-2021_version2,2021.2.3,MacIntel,59.99880002,5da27a7689b88f0015b32142,61bbc5c79a1c66460f44041e,61bbc64bae5a1d964ba07bfa,,,-34.19921875,-59.12109375,1,0,0,response5disk,1.6986,-12.109375,-10.4140625,1,0,0,rectangle,-12.109375,-10.4140625,1,0,0,,-3,"[87,71,52,123,36,80,60,150,82,38]",-12.109375,-10.4140625,1,0,0,0,34,34,73,1,Pink,Pink.jpg,Turquiose,Turquiose.jpg,,
,,,,,,,,,,,,,,,,,,-1,,,,,,,,,,,,,,,,,,,,,,,,,,,,,,,001,2021-12-16_23h07.49.696,jm_natural_scene_simialrity_2-12-2021_version2,2021.2.3,MacIntel,59.99880002,5da27a7689b88f0015b32142,61bbc5c79a1c66460f44041e,61bbc64bae5a1d964ba07bfa,,,-33.08203125,-71.56640625,1,0,0,response5disk,1.535,-10.5234375,3.6640625,1,0,0,rectangle,-37.7890625,-103.5273438,1,0,0,-1,-1,"[87,71,52,123,36,80,60,150,82,38]",5.43359375,6.046875,1,0,0,0,35,35,70,1,Purple,Purple.jpg,DarkGreen,DarkGreen.jpg,response5disk_3,rectangle
,,,,,,,,,,,,,,,,,,2,,,,,,,,,,,,,,,,,,,,,,,,,,,,,,,001,2021-12-16_23h07.49.696,jm_natural_scene_simialrity_2-12-2021_version2,2021.2.3,MacIntel,59.99880002,5da27a7689b88f0015b32142,61bbc5c79a1c66460f44041e,61bbc64bae5a1d964ba07bfa,,,76.08203125,-37.3828125,1,0,0,response3disk,3.1196,8.69140625,-7.80078125,1,0,0,rectangle,8.69140625,-7.80078125,1,0,0,-1,-4,"[87,71,52,123,36,80,60,150,82,38]",8.69140625,-7.80078125,1,0,0,0,36,36,21,1,LightGreen,LightGreen.jpg,DarkBlue,DarkBlue.jpg,,
,,,,,,,,,,,,,,,,,,3,,,,,,,,,,,,,,,,,,,,,,,,,,,,,,,001,2021-12-16_23h07.49.696,jm_natural_scene_simialrity_2-12-2021_version2,2021.2.3,MacIntel,59.99880002,5da27a7689b88f0015b32142,61bbc5c79a1c66460f44041e,61bbc64bae5a1d964ba07bfa,,,86.25,31.78125,1,0,0,response1disk,0.9326,-10.68359375,-16.29296875,1,0,0,rectangle,-50.02734375,115.2773438,1,0,0,-4,-4,"[87,71,52,123,36,80,60,150,82,38]",6.40625,-9.9921875,1,0,0,0,37,37,51,1,Pink,Pink.jpg,Red,Red.jpg,response7disk_3,rectangle
,,,,,,,,,,,,,,,,,,-1,,,,,,,,,,,,,,,,,,,,,,,,,,,,,,,001,2021-12-16_23h07.49.696,jm_natural_scene_simialrity_2-12-2021_version2,2021.2.3,MacIntel,59.99880002,5da27a7689b88f0015b32142,61bbc5c79a1c66460f44041e,61bbc64bae5a1d964ba07bfa,,,-27.34375,-87.27734375,1,0,0,response5disk,1.2355,2.0859375,-0.69921875,1,0,0,rectangle,2.0859375,-0.69921875,1,0,0,-4,-2,"[87,71,52,123,36,80,60,150,82,38]",2.0859375,-0.69921875,1,0,0,0,38,38,2,1,Red,Red.jpg,LightGreen,LightGreen.jpg,,
,,,,,,,,,,,,,,,,,,4,,,,,,,,,,,,,,,,,,,,,,,,,,,,,,,001,2021-12-16_23h07.49.696,jm_natural_scene_simialrity_2-12-2021_version2,2021.2.3,MacIntel,59.99880002,5da27a7689b88f0015b32142,61bbc5c79a1c66460f44041e,61bbc64bae5a1d964ba07bfa,,,54.79296875,106.7539063,1,0,0,response1disk,1.9327,7.578125,-8.9375,1,0,0,rectangle,7.578125,-8.9375,1,0,0,-4,-1,"[87,71,52,123,36,80,60,150,82,38]",7.578125,-8.9375,1,0,0,0,39,39,35,1,LightBlue,LightBlue.jpg,LightBlue,LightBlue.jpg,,
,,,,,,,,,,,,,,,,,,-1,,,,,,,,,,,,,,,,,,,,,,,,,,,,,,,001,2021-12-16_23h07.49.696,jm_natural_scene_simialrity_2-12-2021_version2,2021.2.3,MacIntel,59.99880002,5da27a7689b88f0015b32142,61bbc5c79a1c66460f44041e,61bbc64bae5a1d964ba07bfa,,,-45.4765625,-112.4648438,1,0,0,response5disk,2.5837,1.66796875,-0.3515625,1,0,0,rectangle,1.66796875,-0.3515625,1,0,0,-4,3,"[87,71,52,123,36,80,60,150,82,38]",1.66796875,-0.3515625,1,0,0,0,40,40,10,1,Yellow,Yellow.jpg,LightGreen,LightGreen.jpg,,
,,,,,,,,,,,,,,,,,,-1,,,,,,,,,,,,,,,,,,,,,,,,,,,,,,,001,2021-12-16_23h07.49.696,jm_natural_scene_simialrity_2-12-2021_version2,2021.2.3,MacIntel,59.99880002,5da27a7689b88f0015b32142,61bbc5c79a1c66460f44041e,61bbc64bae5a1d964ba07bfa,,,-47.72265625,-82.8359375,1,0,0,response5disk,1.1838,6.90625,-5.17578125,1,0,0,rectangle,6.90625,-5.17578125,1,0,0,-4,-1,"[87,71,52,123,36,80,60,150,82,38]",6.90625,-5.17578125,1,0,0,0,41,41,40,1,DarkBlue,DarkBlue.jpg,Pink,Pink.jpg,,
,,,,,,,,,,,,,,,,,,-1,,,,,,,,,,,,,,,,,,,,,,,,,,,,,,,001,2021-12-16_23h07.49.696,jm_natural_scene_simialrity_2-12-2021_version2,2021.2.3,MacIntel,59.99880002,5da27a7689b88f0015b32142,61bbc5c79a1c66460f44041e,61bbc64bae5a1d964ba07bfa,,,-31.46875,-58.65234375,1,0,0,response5disk,0.9833,-10.33984375,-24.3671875,1,0,0,rectangle,-10.33984375,-24.3671875,1,0,0,-4,-3,"[87,71,52,123,36,80,60,150,82,38]",-10.33984375,-24.3671875,1,0,0,0,42,42,4,1,Red,Red.jpg,Turquiose,Turquiose.jpg,,
,,,,,,,,,,,,,,,,,,-1,,,,,,,,,,,,,,,,,,,,,,,,,,,,,,,001,2021-12-16_23h07.49.696,jm_natural_scene_simialrity_2-12-2021_version2,2021.2.3,MacIntel,59.99880002,5da27a7689b88f0015b32142,61bbc5c79a1c66460f44041e,61bbc64bae5a1d964ba07bfa,,,-33.4765625,-73.06640625,1,0,0,response5disk,1.0687,-1.58203125,-6.87109375,1,0,0,rectangle,-1.58203125,-6.87109375,1,0,0,-4,-3,"[87,71,52,123,36,80,60,150,82,38]",-1.58203125,-6.87109375,1,0,0,0,43,43,11,1,Yellow,Yellow.jpg,DarkGreen,DarkGreen.jpg,,
,,,,,,,,,,,,,,,,,,3,,,,,,,,,,,,,,,,,,,,,,,,,,,,,,,001,2021-12-16_23h07.49.696,jm_natural_scene_simialrity_2-12-2021_version2,2021.2.3,MacIntel,59.99880002,5da27a7689b88f0015b32142,61bbc5c79a1c66460f44041e,61bbc64bae5a1d964ba07bfa,,,100.3945313,58.93359375,1,0,0,response1disk,1.1654,7.01953125,4.17578125,1,0,0,rectangle,7.01953125,4.17578125,1,0,0,-4,-4,"[87,71,52,123,36,80,60,150,82,38]",7.01953125,4.17578125,1,0,0,0,44,44,1,1,Red,Red.jpg,Yellow,Yellow.jpg,,
,,,,,,,,,,,,,,,,,,1,,,,,,,,,,,,,,,,,,,,,,,,,,,,,,,001,2021-12-16_23h07.49.696,jm_natural_scene_simialrity_2-12-2021_version2,2021.2.3,MacIntel,59.99880002,5da27a7689b88f0015b32142,61bbc5c79a1c66460f44041e,61bbc64bae5a1d964ba07bfa,,,45.18359375,-109.3164063,1,0,0,response3disk,1.8654,7.66796875,-17.6796875,1,0,0,rectangle,7.66796875,-17.6796875,1,0,0,-4,-4,"[87,71,52,123,36,80,60,150,82,38]",7.66796875,-17.6796875,1,0,0,0,45,45,19,1,LightGreen,LightGreen.jpg,Turquiose,Turquiose.jpg,,
,,,,,,,,,,,,,,,,,,-1,,,,,,,,,,,,,,,,,,,,,,,,,,,,,,,001,2021-12-16_23h07.49.696,jm_natural_scene_simialrity_2-12-2021_version2,2021.2.3,MacIntel,59.99880002,5da27a7689b88f0015b32142,61bbc5c79a1c66460f44041e,61bbc64bae5a1d964ba07bfa,,,-43.22265625,-107.0351563,1,0,0,response5disk,0.9321,-4.078125,-4.72265625,1,0,0,rectangle,-4.078125,-4.72265625,1,0,0,-4,1,"[87,71,52,123,36,80,60,150,82,38]",-4.078125,-4.72265625,1,0,0,0,46,46,56,1,LightBlue,LightBlue.jpg,Yellow,Yellow.jpg,,
,,,,,,,,,,,,,,,,,,3,,,,,,,,,,,,,,,,,,,,,,,,,,,,,,,001,2021-12-16_23h07.49.696,jm_natural_scene_simialrity_2-12-2021_version2,2021.2.3,MacIntel,59.99880002,5da27a7689b88f0015b32142,61bbc5c79a1c66460f44041e,61bbc64bae5a1d964ba07bfa,,,86.3515625,42.1171875,1,0,0,response1disk,0.7996,-11.09375,-20.73046875,1,0,0,rectangle,-11.09375,-20.73046875,1,0,0,-4,-2,"[87,71,52,123,36,80,60,150,82,38]",-11.09375,-20.73046875,1,0,0,0,47,47,80,1,Purple,Purple.jpg,Pink,Pink.jpg,,
,,,,,,,,,,,,,,,,,,4,,,,,,,,,,,,,,,,,,,,,,,,,,,,,,,001,2021-12-16_23h07.49.696,jm_natural_scene_simialrity_2-12-2021_version2,2021.2.3,MacIntel,59.99880002,5da27a7689b88f0015b32142,61bbc5c79a1c66460f44041e,61bbc64bae5a1d964ba07bfa,,,39.5703125,68.71484375,1,0,0,response1disk,0.8491,-9.9765625,6.32421875,1,0,0,rectangle,-9.9765625,6.32421875,1,0,0,-4,-1,"[87,71,52,123,36,80,60,150,82,38]",-9.9765625,6.32421875,1,0,0,0,48,48,42,1,Pink,Pink.jpg,Pink,Pink.jpg,,
,,,,,,,,,,,,,,,,,,-1,,,,,,,,,,,,,,,,,,,,,,,,,,,,,,,001,2021-12-16_23h07.49.696,jm_natural_scene_simialrity_2-12-2021_version2,2021.2.3,MacIntel,59.99880002,5da27a7689b88f0015b32142,61bbc5c79a1c66460f44041e,61bbc64bae5a1d964ba07bfa,,,-51.7421875,-75.8125,1,0,0,response5disk,0.7009,-3.890625,-3.09375,1,0,0,rectangle,-3.890625,-3.09375,1,0,0,-4,-1,"[87,71,52,123,36,80,60,150,82,38]",-3.890625,-3.09375,1,0,0,0,49,49,12,1,Yellow,Yellow.jpg,Turquiose,Turquiose.jpg,,
,,,,,,,,,,,,,,,,,,2,,,,,,,,,,,,,,,,,,,,,,,,,,,,,,,001,2021-12-16_23h07.49.696,jm_natural_scene_simialrity_2-12-2021_version2,2021.2.3,MacIntel,59.99880002,5da27a7689b88f0015b32142,61bbc5c79a1c66460f44041e,61bbc64bae5a1d964ba07bfa,,,98.78125,-50.3125,1,0,0,response3disk,1.4824,21.9609375,-4.8828125,1,0,0,rectangle,21.9609375,-4.8828125,1,0,0,-4,-1,"[87,71,52,123,36,80,60,150,82,38]",21.9609375,-4.8828125,1,0,0,0,50,50,66,1,Turquiose,Turquiose.jpg,DarkGreen,DarkGreen.jpg,,
,,,,,,,,,,,,,,,,,,-1,,,,,,,,,,,,,,,,,,,,,,,,,,,,,,,001,2021-12-16_23h07.49.696,jm_natural_scene_simialrity_2-12-2021_version2,2021.2.3,MacIntel,59.99880002,5da27a7689b88f0015b32142,61bbc5c79a1c66460f44041e,61bbc64bae5a1d964ba07bfa,,,-57.265625,-101.0195313,1,0,0,response5disk,1.2691,2.359375,-24.62109375,1,0,0,rectangle,50.79296875,-99.109375,1,0,0,1,1,"[87,71,52,123,36,80,60,150,82,38]",0.47265625,3.0625,1,0,0,0,51,51,23,1,LightGreen,LightGreen.jpg,Purple,Purple.jpg,response3disk_3,rectangle
,,,,,,,,,,,,,,,,,,1,,,,,,,,,,,,,,,,,,,,,,,,,,,,,,,001,2021-12-16_23h07.49.696,jm_natural_scene_simialrity_2-12-2021_version2,2021.2.3,MacIntel,59.99880002,5da27a7689b88f0015b32142,61bbc5c79a1c66460f44041e,61bbc64bae5a1d964ba07bfa,,,57.07421875,-102.03125,1,0,0,response3disk,3.9502,18.01953125,-19.76953125,1,0,0,rectangle,18.01953125,-19.76953125,1,0,0,1,3,"[87,71,52,123,36,80,60,150,82,38]",18.01953125,-19.76953125,1,0,0,0,52,52,27,1,DarkGreen,DarkGreen.jpg,DarkBlue,DarkBlue.jpg,,
,,,,,,,,,,,,,,,,,,-1,,,,,,,,,,,,,,,,,,,,,,,,,,,,,,,001,2021-12-16_23h07.49.696,jm_natural_scene_simialrity_2-12-2021_version2,2021.2.3,MacIntel,59.99880002,5da27a7689b88f0015b32142,61bbc5c79a1c66460f44041e,61bbc64bae5a1d964ba07bfa,,,-36.984375,-99.77734375,1,0,0,response5disk,0.8524,3.49609375,-13.296875,1,0,0,rectangle,3.49609375,-13.296875,1,0,0,1,1,"[87,71,52,123,36,80,60,150,82,38]",3.49609375,-13.296875,1,0,0,0,53,53,22,1,LightGreen,LightGreen.jpg,Pink,Pink.jpg,,
,,,,,,,,,,,,,,,,,,3,,,,,,,,,,,,,,,,,,,,,,,,,,,,,,,001,2021-12-16_23h07.49.696,jm_natural_scene_simialrity_2-12-2021_version2,2021.2.3,MacIntel,59.99880002,5da27a7689b88f0015b32142,61bbc5c79a1c66460f44041e,61bbc64bae5a1d964ba07bfa,,,83.90625,43.0078125,1,0,0,response1disk,1.267,-6.671875,-2.984375,1,0,0,rectangle,-6.671875,-2.984375,1,0,0,1,1,"[87,71,52,123,36,80,60,150,82,38]",-6.671875,-2.984375,1,0,0,0,54,54,18,1,LightGreen,LightGreen.jpg,DarkGreen,DarkGreen.jpg,,
,,,,,,,,,,,,,,,,,,-1,,,,,,,,,,,,,,,,,,,,,,,,,,,,,,,001,2021-12-16_23h07.49.696,jm_natural_scene_simialrity_2-12-2021_version2,2021.2.3,MacIntel,59.99880002,5da27a7689b88f0015b32142,61bbc5c79a1c66460f44041e,61bbc64bae5a1d964ba07bfa,,,-41.046875,-79.3046875,1,0,0,response5disk,0.8832,7.23046875,1.3125,1,0,0,rectangle,7.23046875,1.3125,1,0,0,1,-1,"[87,71,52,123,36,80,60,150,82,38]",7.23046875,1.3125,1,0,0,0,55,55,3,1,Red,Red.jpg,DarkGreen,DarkGreen.jpg,,
,,,,,,,,,,,,,,,,,,1,,,,,,,,,,,,,,,,,,,,,,,,,,,,,,,001,2021-12-16_23h07.49.696,jm_natural_scene_simialrity_2-12-2021_version2,2021.2.3,MacIntel,59.99880002,5da27a7689b88f0015b32142,61bbc5c79a1c66460f44041e,61bbc64bae5a1d964ba07bfa,,,43.265625,-88.6875,1,0,0,response3disk,1.3166,9.0234375,-2.38671875,1,0,0,rectangle,9.0234375,-2.38671875,1,0,0,1,-4,"[87,71,52,123,36,80,60,150,82,38]",9.0234375,-2.38671875,1,0,0,0,56,56,25,1,DarkGreen,DarkGreen.jpg,Turquiose,Turquiose.jpg,,
,,,,,,,,,,,,,,,,,,4,,,,,,,,,,,,,,,,,,,,,,,,,,,,,,,001,2021-12-16_23h07.49.696,jm_natural_scene_simialrity_2-12-2021_version2,2021.2.3,MacIntel,59.99880002,5da27a7689b88f0015b32142,61bbc5c79a1c66460f44041e,61bbc64bae5a1d964ba07bfa,,,58.421875,93.81640625,1,0,0,response1disk,0.9183,11.96875,20.578125,1,0,0,rectangle,11.96875,20.578125,1,0,0,1,-2,"[87,71,52,123,36,80,60,150,82,38]",11.96875,20.578125,1,0,0,0,57,57,39,1,DarkBlue,DarkBlue.jpg,DarkBlue,DarkBlue.jpg,,
,,,,,,,,,,,,,,,,,,3,,,,,,,,,,,,,,,,,,,,,,,,,,,,,,,001,2021-12-16_23h07.49.696,jm_natural_scene_simialrity_2-12-2021_version2,2021.2.3,MacIntel,59.99880002,5da27a7689b88f0015b32142,61bbc5c79a1c66460f44041e,61bbc64bae5a1d964ba07bfa,,,102.8554688,51.546875,1,0,0,response1disk,0.6846,13.375,17.71875,1,0,0,rectangle,13.375,17.71875,1,0,0,1,1,"[87,71,52,123,36,80,60,150,82,38]",13.375,17.71875,1,0,0,0,58,58,7,1,Red,Red.jpg,Pink,Pink.jpg,,
,,,,,,,,,,,,,,,,,,-1,,,,,,,,,,,,,,,,,,,,,,,,,,,,,,,001,2021-12-16_23h07.49.696,jm_natural_scene_simialrity_2-12-2021_version2,2021.2.3,MacIntel,59.99880002,5da27a7689b88f0015b32142,61bbc5c79a1c66460f44041e,61bbc64bae5a1d964ba07bfa,,,-57.34765625,-63.45703125,1,0,0,response5disk,0.8656,-9.9609375,-3.7421875,1,0,0,rectangle,-44.12109375,115.5742188,1,0,0,-4,-4,"[87,71,52,123,36,80,60,150,82,38]",0.2734375,0.18359375,1,0,0,0,59,59,49,1,LightBlue,LightBlue.jpg,Red,Red.jpg,response7disk_3,rectangle
,,,,,,,,,,,,,,,,,,-1,,,,,,,,,,,,,,,,,,,,,,,,,,,,,,,001,2021-12-16_23h07.49.696,jm_natural_scene_simialrity_2-12-2021_version2,2021.2.3,MacIntel,59.99880002,5da27a7689b88f0015b32142,61bbc5c79a1c66460f44041e,61bbc64bae5a1d964ba07bfa,,,-45.66015625,-78.95703125,1,0,0,response5disk,0.8999,17.87890625,20.09375,1,0,0,rectangle,17.87890625,20.09375,1,0,0,4,-3,"[87,71,52,123,36,80,60,150,82,38]",17.87890625,20.09375,1,0,0,0,60,60,6,1,Red,Red.jpg,DarkBlue,DarkBlue.jpg,,
,,,,,,,,,,,,,,,,,,-1,,,,,,,,,,,,,,,,,,,,,,,,,,,,,,,001,2021-12-16_23h07.49.696,jm_natural_scene_simialrity_2-12-2021_version2,2021.2.3,MacIntel,59.99880002,5da27a7689b88f0015b32142,61bbc5c79a1c66460f44041e,61bbc64bae5a1d964ba07bfa,,,-43.39453125,-76.16015625,1,0,0,response5disk,0.8486,-3.7109375,-10.625,1,0,0,rectangle,-3.7109375,-10.625,1,0,0,4,-2,"[87,71,52,123,36,80,60,150,82,38]",-3.7109375,-10.625,1,0,0,0,61,61,53,1,LightGreen,LightGreen.jpg,Yellow,Yellow.jpg,,
,,,,,,,,,,,,,,,,,,2,,,,,,,,,,,,,,,,,,,,,,,,,,,,,,,001,2021-12-16_23h07.49.696,jm_natural_scene_simialrity_2-12-2021_version2,2021.2.3,MacIntel,59.99880002,5da27a7689b88f0015b32142,61bbc5c79a1c66460f44041e,61bbc64bae5a1d964ba07bfa,,,77.33203125,-57.390625,1,0,0,response3disk,3.6836,16.44921875,-8.6796875,1,0,0,rectangle,16.44921875,-8.6796875,1,0,0,4,3,"[87,71,52,123,36,80,60,150,82,38]",16.44921875,-8.6796875,1,0,0,0,62,62,62,1,LightBlue,LightBlue.jpg,LightGreen,LightGreen.jpg,,
,,,,,,,,,,,,,,,,,,2,,,,,,,,,,,,,,,,,,,,,,,,,,,,,,,001,2021-12-16_23h07.49.696,jm_natural_scene_simialrity_2-12-2021_version2,2021.2.3,MacIntel,59.99880002,5da27a7689b88f0015b32142,61bbc5c79a1c66460f44041e,61bbc64bae5a1d964ba07bfa,,,91.94921875,-54.83203125,1,0,0,response3disk,1.2993,5.6640625,2.640625,1,0,0,rectangle,5.6640625,2.640625,1,0,0,4,-2,"[87,71,52,123,36,80,60,150,82,38]",5.6640625,2.640625,1,0,0,0,63,63,72,1,DarkBlue,DarkBlue.jpg,Turquiose,Turquiose.jpg,,
,,,,,,,,,,,,,,,,,,2,,,,,,,,,,,,,,,,,,,,,,,,,,,,,,,001,2021-12-16_23h07.49.696,jm_natural_scene_simialrity_2-12-2021_version2,2021.2.3,MacIntel,59.99880002,5da27a7689b88f0015b32142,61bbc5c79a1c66460f44041e,61bbc64bae5a1d964ba07bfa,,,89.56640625,-42.671875,1,0,0,response3disk,1.0668,-3.375,-4.03125,1,0,0,rectangle,-3.375,-4.03125,1,0,0,4,1,"[87,71,52,123,36,80,60,150,82,38]",-3.375,-4.03125,1,0,0,0,64,64,67,1,LightBlue,LightBlue.jpg,DarkGreen,DarkGreen.jpg,,
,,,,,,,,,,,,,,,,,,4,,,,,,,,,,,,,,,,,,,,,,,,,,,,,,,001,2021-12-16_23h07.49.696,jm_natural_scene_simialrity_2-12-2021_version2,2021.2.3,MacIntel,59.99880002,5da27a7689b88f0015b32142,61bbc5c79a1c66460f44041e,61bbc64bae5a1d964ba07bfa,,,45.015625,101.8164063,1,0,0,response1disk,0.7155,-15.68359375,-9.796875,1,0,0,rectangle,-15.68359375,-9.796875,1,0,0,4,-3,"[87,71,52,123,36,80,60,150,82,38]",-15.68359375,-9.796875,1,0,0,0,65,65,9,1,Yellow,Yellow.jpg,Yellow,Yellow.jpg,,
,,,,,,,,,,,,,,,,,,1,,,,,,,,,,,,,,,,,,,,,,,,,,,,,,,001,2021-12-16_23h07.49.696,jm_natural_scene_simialrity_2-12-2021_version2,2021.2.3,MacIntel,59.99880002,5da27a7689b88f0015b32142,61bbc5c79a1c66460f44041e,61bbc64bae5a1d964ba07bfa,,,50.9453125,-88.60546875,1,0,0,response3disk,2.7523,12.6875,-3.75,1,0,0,rectangle,12.6875,-3.75,1,0,0,4,3,"[87,71,52,123,36,80,60,150,82,38]",12.6875,-3.75,1,0,0,0,66,66,68,1,DarkBlue,DarkBlue.jpg,DarkGreen,DarkGreen.jpg,,
,,,,,,,,,,,,,,,,,,-1,,,,,,,,,,,,,,,,,,,,,,,,,,,,,,,001,2021-12-16_23h07.49.696,jm_natural_scene_simialrity_2-12-2021_version2,2021.2.3,MacIntel,59.99880002,5da27a7689b88f0015b32142,61bbc5c79a1c66460f44041e,61bbc64bae5a1d964ba07bfa,,,-40.9765625,-81.78515625,1,0,0,response5disk,0.8173,-17.11328125,-21.609375,1,0,0,rectangle,-17.11328125,-21.609375,1,0,0,-1,2,"[87,71,52,123,36,80,60,150,82,38]",-17.11328125,-21.609375,1,0,0,0,67,67,65,1,Purple,Purple.jpg,LightGreen,LightGreen.jpg,,
,,,,,,,,,,,,,,,,,,-1,,,,,,,,,,,,,,,,,,,,,,,,,,,,,,,001,2021-12-16_23h07.49.696,jm_natural_scene_simialrity_2-12-2021_version2,2021.2.3,MacIntel,59.99880002,5da27a7689b88f0015b32142,61bbc5c79a1c66460f44041e,61bbc64bae5a1d964ba07bfa,,,-36.91015625,-99.96875,1,0,0,response5disk,1.6478,0.66796875,-3.93359375,1,0,0,rectangle,0.66796875,-3.93359375,1,0,0,-1,3,"[87,71,52,123,36,80,60,150,82,38]",0.66796875,-3.93359375,1,0,0,0,68,68,79,1,Purple,Purple.jpg,DarkBlue,DarkBlue.jpg,,
,,,,,,,,,,,,,,,,,,-1,,,,,,,,,,,,,,,,,,,,,,,,,,,,,,,001,2021-12-16_23h07.49.696,jm_natural_scene_simialrity_2-12-2021_version2,2021.2.3,MacIntel,59.99880002,5da27a7689b88f0015b32142,61bbc5c79a1c66460f44041e,61bbc64bae5a1d964ba07bfa,,,-38.8125,-90.0625,1,0,0,response5disk,0.8173,-7.515625,-4.6640625,1,0,0,rectangle,-7.515625,-4.6640625,1,0,0,-1,-1,"[87,71,52,123,36,80,60,150,82,38]",-7.515625,-4.6640625,1,0,0,0,69,69,46,1,LightGreen,LightGreen.jpg,Red,Red.jpg,,
,,,,,,,,,,,,,,,,,,4,,,,,,,,,,,,,,,,,,,,,,,,,,,,,,,001,2021-12-16_23h07.49.696,jm_natural_scene_simialrity_2-12-2021_version2,2021.2.3,MacIntel,59.99880002,5da27a7689b88f0015b32142,61bbc5c79a1c66460f44041e,61bbc64bae5a1d964ba07bfa,,,50.65625,97.2109375,1,0,0,response1disk,0.8686,-1.015625,-0.921875,1,0,0,rectangle,91.8359375,-49.765625,1,0,0,2,2,"[87,71,52,123,36,80,60,150,82,38]",1.296875,2.3359375,1,0,0,0,70,70,30,1,Turquiose,Turquiose.jpg,Turquiose,Turquiose.jpg,response3disk_3,rectangle
,,,,,,,,,,,,,,,,,,4,,,,,,,,,,,,,,,,,,,,,,,,,,,,,,,001,2021-12-16_23h07.49.696,jm_natural_scene_simialrity_2-12-2021_version2,2021.2.3,MacIntel,59.99880002,5da27a7689b88f0015b32142,61bbc5c79a1c66460f44041e,61bbc64bae5a1d964ba07bfa,,,38.23828125,91.5859375,1,0,0,response1disk,9.8018,-9.55859375,1.91015625,1,0,0,rectangle,-9.55859375,1.91015625,1,0,0,2,-4,"[87,71,52,123,36,80,60,150,82,38]",-9.55859375,1.91015625,1,0,0,0,71,71,20,1,LightGreen,LightGreen.jpg,LightBlue,LightBlue.jpg,,
,,,,,,,,,,,,,,,,,,-1,,,,,,,,,,,,,,,,,,,,,,,,,,,,,,,001,2021-12-16_23h07.49.696,jm_natural_scene_simialrity_2-12-2021_version2,2021.2.3,MacIntel,59.99880002,5da27a7689b88f0015b32142,61bbc5c79a1c66460f44041e,61bbc64bae5a1d964ba07bfa,,,-46.7109375,-84.46484375,1,0,0,response5disk,0.8179,-9.80078125,-4.9609375,1,0,0,rectangle,-9.80078125,-4.9609375,1,0,0,2,2,"[87,71,52,123,36,80,60,150,82,38]",-9.80078125,-4.9609375,1,0,0,0,72,72,50,1,DarkBlue,DarkBlue.jpg,Red,Red.jpg,,
,,,,,,,,,,,,,,,,,,3,,,,,,,,,,,,,,,,,,,,,,,,,,,,,,,001,2021-12-16_23h07.49.696,jm_natural_scene_simialrity_2-12-2021_version2,2021.2.3,MacIntel,59.99880002,5da27a7689b88f0015b32142,61bbc5c79a1c66460f44041e,61bbc64bae5a1d964ba07bfa,,,92.3359375,58.1953125,1,0,0,response1disk,0.9213,2.5703125,-1.19921875,1,0,0,rectangle,2.5703125,-1.19921875,1,0,0,2,-2,"[87,71,52,123,36,80,60,150,82,38]",2.5703125,-1.19921875,1,0,0,0,73,73,45,1,Yellow,Yellow.jpg,Red,Red.jpg,,
,,,,,,,,,,,,,,,,,,-1,,,,,,,,,,,,,,,,,,,,,,,,,,,,,,,001,2021-12-16_23h07.49.696,jm_natural_scene_simialrity_2-12-2021_version2,2021.2.3,MacIntel,59.99880002,5da27a7689b88f0015b32142,61bbc5c79a1c66460f44041e,61bbc64bae5a1d964ba07bfa,,,-41.015625,-88.00390625,1,0,0,response5disk,0.8833,-18.51171875,-8.76953125,1,0,0,rectangle,-18.51171875,-8.76953125,1,0,0,2,3,"[87,71,52,123,36,80,60,150,82,38]",-18.51171875,-8.76953125,1,0,0,0,74,74,48,1,Turquiose,Turquiose.jpg,Red,Red.jpg,,
,,,,,,,,,,,,,,,,,,-1,,,,,,,,,,,,,,,,,,,,,,,,,,,,,,,001,2021-12-16_23h07.49.696,jm_natural_scene_simialrity_2-12-2021_version2,2021.2.3,MacIntel,59.99880002,5da27a7689b88f0015b32142,61bbc5c79a1c66460f44041e,61bbc64bae5a1d964ba07bfa,,,-45.375,-121.3984375,1,0,0,response5disk,0.8824,-3.91796875,3.04296875,1,0,0,rectangle,-3.91796875,3.04296875,1,0,0,2,3,"[87,71,52,123,36,80,60,150,82,38]",-3.91796875,3.04296875,1,0,0,0,75,75,78,1,Pink,Pink.jpg,DarkBlue,DarkBlue.jpg,,
,,,,,,,,,,,,,,,,,,-1,,,,,,,,,,,,,,,,,,,,,,,,,,,,,,,001,2021-12-16_23h07.49.696,jm_natural_scene_simialrity_2-12-2021_version2,2021.2.3,MacIntel,59.99880002,5da27a7689b88f0015b32142,61bbc5c79a1c66460f44041e,61bbc64bae5a1d964ba07bfa,,,-43.7109375,-90.01953125,1,0,0,response5disk,0.9983,-12.171875,-2.546875,1,0,0,rectangle,-12.171875,-2.546875,1,0,0,2,-1,"[87,71,52,123,36,80,60,150,82,38]",-12.171875,-2.546875,1,0,0,0,76,76,13,1,Yellow,Yellow.jpg,LightBlue,LightBlue.jpg,,
,,,,,,,,,,,,,,,,,,-1,,,,,,,,,,,,,,,,,,,,,,,,,,,,,,,001,2021-12-16_23h07.49.696,jm_natural_scene_simialrity_2-12-2021_version2,2021.2.3,MacIntel,59.99880002,5da27a7689b88f0015b32142,61bbc5c79a1c66460f44041e,61bbc64bae5a1d964ba07bfa,,,-37.77734375,-105.7304688,1,0,0,response5disk,1.2988,7.14453125,0.2421875,1,0,0,rectangle,7.14453125,0.2421875,1,0,0,2,-2,"[87,71,52,123,36,80,60,150,82,38]",7.14453125,0.2421875,1,0,0,0,77,77,47,1,DarkGreen,DarkGreen.jpg,Red,Red.jpg,,
,,,,,,,,,,,,,,,,,,-1,,,,,,,,,,,,,,,,,,,,,,,,,,,,,,,001,2021-12-16_23h07.49.696,jm_natural_scene_simialrity_2-12-2021_version2,2021.2.3,MacIntel,59.99880002,5da27a7689b88f0015b32142,61bbc5c79a1c66460f44041e,61bbc64bae5a1d964ba07bfa,,,-49.73046875,-111.5117188,1,0,0,response5disk,1.2169,-0.62109375,-9.30078125,1,0,0,rectangle,-0.62109375,-9.30078125,1,0,0,2,1,"[87,71,52,123,36,80,60,150,82,38]",-0.62109375,-9.30078125,1,0,0,0,78,78,41,1,DarkBlue,DarkBlue.jpg,Purple,Purple.jpg,,
,,,,,,,,,,,,,,,,,,4,,,,,,,,,,,,,,,,,,,,,,,,,,,,,,,001,2021-12-16_23h07.49.696,jm_natural_scene_simialrity_2-12-2021_version2,2021.2.3,MacIntel,59.99880002,5da27a7689b88f0015b32142,61bbc5c79a1c66460f44041e,61bbc64bae5a1d964ba07bfa,,,67.44140625,93.8359375,1,0,0,response1disk,0.7668,-9.44921875,-11.53515625,1,0,0,rectangle,-22.5,96.859375,1,0,0,-4,-4,"[87,71,52,123,36,80,60,150,82,38]",-9.3984375,-24.36328125,1,0,0,0,79,79,17,1,LightGreen,LightGreen.jpg,LightGreen,LightGreen.jpg,response7disk_3,rectangle
,,,,,,,,,,,,,,,,,,-1,,,,,,,,,,,,,,,,,,,,,,,,,,,,,,,001,2021-12-16_23h07.49.696,jm_natural_scene_simialrity_2-12-2021_version2,2021.2.3,MacIntel,59.99880002,5da27a7689b88f0015b32142,61bbc5c79a1c66460f44041e,61bbc64bae5a1d964ba07bfa,,,-39.578125,-109.3398438,1,0,0,response5disk,0.9821,-9.7734375,-1.46875,1,0,0,rectangle,-9.7734375,-1.46875,1,0,0,-4,-4,"[87,71,52,123,36,80,60,150,82,38]",-9.7734375,-1.46875,1,0,0,0,80,80,14,1,Yellow,Yellow.jpg,DarkBlue,DarkBlue.jpg,,
,,,,,,,,,,,,,,,,,,4,,,,,,,,,,,,,,,,,,,,,,,,,,,,,,,001,2021-12-16_23h07.49.696,jm_natural_scene_simialrity_2-12-2021_version2,2021.2.3,MacIntel,59.99880002,5da27a7689b88f0015b32142,61bbc5c79a1c66460f44041e,61bbc64bae5a1d964ba07bfa,,,25.59375,81.21875,1,0,0,response1disk,0.8819,7.34375,16.828125,1,0,0,rectangle,-81.19921875,-55.72265625,1,0,0,-4,-2,"[87,71,52,123,36,80,60,150,82,38]",-18.765625,-19.6484375,1,0,0,1,0,81,44,1,Purple,Purple.jpg,Purple,Purple.jpg,response5disk_3,rectangle
,,,,,,,,,,,,,,,,,,-1,,,,,,,,,,,,,,,,,,,,,,,,,,,,,,,001,2021-12-16_23h07.49.696,jm_natural_scene_simialrity_2-12-2021_version2,2021.2.3,MacIntel,59.99880002,5da27a7689b88f0015b32142,61bbc5c79a1c66460f44041e,61bbc64bae5a1d964ba07bfa,,,-45.1171875,-95.7109375,1,0,0,response5disk,0.933,0.06640625,-7.484375,1,0,0,rectangle,0.06640625,-7.484375,1,0,0,-4,-4,"[87,71,52,123,36,80,60,150,82,38]",0.06640625,-7.484375,1,0,0,1,1,82,55,1,Turquiose,Turquiose.jpg,Yellow,Yellow.jpg,,
,,,,,,,,,,,,,,,,,,-1,,,,,,,,,,,,,,,,,,,,,,,,,,,,,,,001,2021-12-16_23h07.49.696,jm_natural_scene_simialrity_2-12-2021_version2,2021.2.3,MacIntel,59.99880002,5da27a7689b88f0015b32142,61bbc5c79a1c66460f44041e,61bbc64bae5a1d964ba07bfa,,,-31.66796875,-88.49609375,1,0,0,response5disk,0.849,8.93359375,3.82421875,1,0,0,rectangle,8.93359375,3.82421875,1,0,0,-4,-2,"[87,71,52,123,36,80,60,150,82,38]",8.93359375,3.82421875,1,0,0,1,2,83,12,1,Yellow,Yellow.jpg,Turquiose,Turquiose.jpg,,
,,,,,,,,,,,,,,,,,,1,,,,,,,,,,,,,,,,,,,,,,,,,,,,,,,001,2021-12-16_23h07.49.696,jm_natural_scene_simialrity_2-12-2021_version2,2021.2.3,MacIntel,59.99880002,5da27a7689b88f0015b32142,61bbc5c79a1c66460f44041e,61bbc64bae5a1d964ba07bfa,,,44.2421875,-94.9296875,1,0,0,response3disk,1.8167,-0.09765625,-24.62109375,1,0,0,rectangle,-0.09765625,-24.62109375,1,0,0,-4,3,"[87,71,52,123,36,80,60,150,82,38]",-0.09765625,-24.62109375,1,0,0,1,3,84,20,1,LightGreen,LightGreen.jpg,LightBlue,LightBlue.jpg,,
,,,,,,,,,,,,,,,,,,1,,,,,,,,,,,,,,,,,,,,,,,,,,,,,,,001,2021-12-16_23h07.49.696,jm_natural_scene_simialrity_2-12-2021_version2,2021.2.3,MacIntel,59.99880002,5da27a7689b88f0015b32142,61bbc5c79a1c66460f44041e,61bbc64bae5a1d964ba07bfa,,,53.65234375,-112.6015625,1,0,0,response3disk,4.335,17.36328125,-6.99609375,1,0,0,rectangle,17.36328125,-6.99609375,1,0,0,-4,-4,"[87,71,52,123,36,80,60,150,82,38]",17.36328125,-6.99609375,1,0,0,1,4,85,21,1,LightGreen,LightGreen.jpg,DarkBlue,DarkBlue.jpg,,
,,,,,,,,,,,,,,,,,,2,,,,,,,,,,,,,,,,,,,,,,,,,,,,,,,001,2021-12-16_23h07.49.696,jm_natural_scene_simialrity_2-12-2021_version2,2021.2.3,MacIntel,59.99880002,5da27a7689b88f0015b32142,61bbc5c79a1c66460f44041e,61bbc64bae5a1d964ba07bfa,,,88.796875,-46.5625,1,0,0,response3disk,2.082,19.74609375,-15.6796875,1,0,0,rectangle,95.08984375,-40.09375,1,0,0,2,2,"[87,71,52,123,36,80,60,150,82,38]",5.16796875,-6.61328125,1,0,0,1,5,86,5,1,Red,Red.jpg,LightBlue,LightBlue.jpg,response3disk_3,rectangle
,,,,,,,,,,,,,,,,,,1,,,,,,,,,,,,,,,,,,,,,,,,,,,,,,,001,2021-12-16_23h07.49.696,jm_natural_scene_simialrity_2-12-2021_version2,2021.2.3,MacIntel,59.99880002,5da27a7689b88f0015b32142,61bbc5c79a1c66460f44041e,61bbc64bae5a1d964ba07bfa,,,48.5546875,-94.16796875,1,0,0,response3disk,1.1982,4.05859375,7.40625,1,0,0,rectangle,4.05859375,7.40625,1,0,0,2,-4,"[87,71,52,123,36,80,60,150,82,38]",4.05859375,7.40625,1,0,0,1,6,87,19,1,LightGreen,LightGreen.jpg,Turquiose,Turquiose.jpg,,
,,,,,,,,,,,,,,,,,,1,,,,,,,,,,,,,,,,,,,,,,,,,,,,,,,001,2021-12-16_23h07.49.696,jm_natural_scene_simialrity_2-12-2021_version2,2021.2.3,MacIntel,59.99880002,5da27a7689b88f0015b32142,61bbc5c79a1c66460f44041e,61bbc64bae5a1d964ba07bfa,,,20.7109375,-114.7578125,1,0,0,response3disk,1.0666,15.99609375,-9.11328125,1,0,0,rectangle,15.99609375,-9.11328125,1,0,0,2,3,"[87,71,52,123,36,80,60,150,82,38]",15.99609375,-9.11328125,1,0,0,1,7,88,43,1,Pink,Pink.jpg,Purple,Purple.jpg,,
,,,,,,,,,,,,,,,,,,-1,,,,,,,,,,,,,,,,,,,,,,,,,,,,,,,001,2021-12-16_23h07.49.696,jm_natural_scene_simialrity_2-12-2021_version2,2021.2.3,MacIntel,59.99880002,5da27a7689b88f0015b32142,61bbc5c79a1c66460f44041e,61bbc64bae5a1d964ba07bfa,,,-28.609375,-88.0546875,1,0,0,response5disk,0.7503,-11.25,-2.5546875,1,0,0,rectangle,-11.25,-2.5546875,1,0,0,2,1,"[87,71,52,123,36,80,60,150,82,38]",-11.25,-2.5546875,1,0,0,1,8,89,47,1,DarkGreen,DarkGreen.jpg,Red,Red.jpg,,
,,,,,,,,,,,,,,,,,,2,,,,,,,,,,,,,,,,,,,,,,,,,,,,,,,001,2021-12-16_23h07.49.696,jm_natural_scene_simialrity_2-12-2021_version2,2021.2.3,MacIntel,59.99880002,5da27a7689b88f0015b32142,61bbc5c79a1c66460f44041e,61bbc64bae5a1d964ba07bfa,,,66.9453125,-54.14453125,1,0,0,response3disk,1.1827,24.6796875,5.421875,1,0,0,rectangle,24.6796875,5.421875,1,0,0,2,-2,"[87,71,52,123,36,80,60,150,82,38]",24.6796875,5.421875,1,0,0,1,9,90,26,1,DarkGreen,DarkGreen.jpg,LightBlue,LightBlue.jpg,,
,,,,,,,,,,,,,,,,,,1,,,,,,,,,,,,,,,,,,,,,,,,,,,,,,,001,2021-12-16_23h07.49.696,jm_natural_scene_simialrity_2-12-2021_version2,2021.2.3,MacIntel,59.99880002,5da27a7689b88f0015b32142,61bbc5c79a1c66460f44041e,61bbc64bae5a1d964ba07bfa,,,42.46484375,-83.1953125,1,0,0,response3disk,1.2519,16.40625,-12.94921875,1,0,0,rectangle,16.40625,-12.94921875,1,0,0,2,-1,"[87,71,52,123,36,80,60,150,82,38]",16.40625,-12.94921875,1,0,0,1,10,91,38,1,LightBlue,LightBlue.jpg,Purple,Purple.jpg,,
,,,,,,,,,,,,,,,,,,-1,,,,,,,,,,,,,,,,,,,,,,,,,,,,,,,001,2021-12-16_23h07.49.696,jm_natural_scene_simialrity_2-12-2021_version2,2021.2.3,MacIntel,59.99880002,5da27a7689b88f0015b32142,61bbc5c79a1c66460f44041e,61bbc64bae5a1d964ba07bfa,,,-29.16015625,-84.453125,1,0,0,response5disk,0.8183,16.61328125,19.6328125,1,0,0,rectangle,16.61328125,19.6328125,1,0,0,2,1,"[87,71,52,123,36,80,60,150,82,38]",16.61328125,19.6328125,1,0,0,1,11,92,76,1,Pink,Pink.jpg,LightBlue,LightBlue.jpg,,
,,,,,,,,,,,,,,,,,,2,,,,,,,,,,,,,,,,,,,,,,,,,,,,,,,001,2021-12-16_23h07.49.696,jm_natural_scene_simialrity_2-12-2021_version2,2021.2.3,MacIntel,59.99880002,5da27a7689b88f0015b32142,61bbc5c79a1c66460f44041e,61bbc64bae5a1d964ba07bfa,,,77.46875,-39.921875,1,0,0,response3disk,3.5854,-7.58984375,-6.15234375,1,0,0,rectangle,-7.58984375,-6.15234375,1,0,0,2,-3,"[87,71,52,123,36,80,60,150,82,38]",-7.58984375,-6.15234375,1,0,0,1,12,93,70,1,Purple,Purple.jpg,DarkGreen,DarkGreen.jpg,,
,,,,,,,,,,,,,,,,,,-1,,,,,,,,,,,,,,,,,,,,,,,,,,,,,,,001,2021-12-16_23h07.49.696,jm_natural_scene_simialrity_2-12-2021_version2,2021.2.3,MacIntel,59.99880002,5da27a7689b88f0015b32142,61bbc5c79a1c66460f44041e,61bbc64bae5a1d964ba07bfa,,,-50.52734375,-91.37890625,1,0,0,response5disk,0.7991,-20.73046875,-17.56640625,1,0,0,rectangle,-20.73046875,-17.56640625,1,0,0,2,2,"[87,71,52,123,36,80,60,150,82,38]",-20.73046875,-17.56640625,1,0,0,1,13,94,4,1,Red,Red.jpg,Turquiose,Turquiose.jpg,,
,,,,,,,,,,,,,,,,,,3,,,,,,,,,,,,,,,,,,,,,,,,,,,,,,,001,2021-12-16_23h07.49.696,jm_natural_scene_simialrity_2-12-2021_version2,2021.2.3,MacIntel,59.99880002,5da27a7689b88f0015b32142,61bbc5c79a1c66460f44041e,61bbc64bae5a1d964ba07bfa,,,99.55859375,23.02734375,1,0,0,response1disk,1.2034,17.08203125,4.4375,1,0,0,rectangle,17.08203125,4.4375,1,0,0,2,2,"[87,71,52,123,36,80,60,150,82,38]",17.08203125,4.4375,1,0,0,1,14,95,1,1,Red,Red.jpg,Yellow,Yellow.jpg,,
,,,,,,,,,,,,,,,,,,1,,,,,,,,,,,,,,,,,,,,,,,,,,,,,,,001,2021-12-16_23h07.49.696,jm_natural_scene_simialrity_2-12-2021_version2,2021.2.3,MacIntel,59.99880002,5da27a7689b88f0015b32142,61bbc5c79a1c66460f44041e,61bbc64bae5a1d964ba07bfa,,,57.33984375,-103.2929688,1,0,0,response3disk,2.0179,8.0703125,-3.8984375,1,0,0,rectangle,8.0703125,-3.8984375,1,0,0,2,-2,"[87,71,52,123,36,80,60,150,82,38]",8.0703125,-3.8984375,1,0,0,1,15,96,41,1,DarkBlue,DarkBlue.jpg,Purple,Purple.jpg,,
,,,,,,,,,,,,,,,,,,4,,,,,,,,,,,,,,,,,,,,,,,,,,,,,,,001,2021-12-16_23h07.49.696,jm_natural_scene_simialrity_2-12-2021_version2,2021.2.3,MacIntel,59.99880002,5da27a7689b88f0015b32142,61bbc5c79a1c66460f44041e,61bbc64bae5a1d964ba07bfa,,,44.5546875,118.8515625,1,0,0,response1disk,2.1338,11.5546875,-15.78125,1,0,0,rectangle,11.5546875,-15.78125,1,0,0,2,-1,"[87,71,52,123,36,80,60,150,82,38]",11.5546875,-15.78125,1,0,0,1,16,97,39,1,DarkBlue,DarkBlue.jpg,DarkBlue,DarkBlue.jpg,,
,,,,,,,,,,,,,,,,,,-1,,,,,,,,,,,,,,,,,,,,,,,,,,,,,,,001,2021-12-16_23h07.49.696,jm_natural_scene_simialrity_2-12-2021_version2,2021.2.3,MacIntel,59.99880002,5da27a7689b88f0015b32142,61bbc5c79a1c66460f44041e,61bbc64bae5a1d964ba07bfa,,,-25.015625,-105.4921875,1,0,0,response5disk,0.8514,-0.578125,-14.3125,1,0,0,rectangle,-0.578125,-14.3125,1,0,0,2,-2,"[87,71,52,123,36,80,60,150,82,38]",-0.578125,-14.3125,1,0,0,1,17,98,53,1,LightGreen,LightGreen.jpg,Yellow,Yellow.jpg,,
,,,,,,,,,,,,,,,,,,1,,,,,,,,,,,,,,,,,,,,,,,,,,,,,,,001,2021-12-16_23h07.49.696,jm_natural_scene_simialrity_2-12-2021_version2,2021.2.3,MacIntel,59.99880002,5da27a7689b88f0015b32142,61bbc5c79a1c66460f44041e,61bbc64bae5a1d964ba07bfa,,,41.1171875,-106.3125,1,0,0,response3disk,2.4506,10.63671875,-18.26171875,1,0,0,rectangle,10.63671875,-18.26171875,1,0,0,2,1,"[87,71,52,123,36,80,60,150,82,38]",10.63671875,-18.26171875,1,0,0,1,18,99,74,1,Purple,Purple.jpg,Turquiose,Turquiose.jpg,,
,,,,,,,,,,,,,,,,,,-1,,,,,,,,,,,,,,,,,,,,,,,,,,,,,,,001,2021-12-16_23h07.49.696,jm_natural_scene_simialrity_2-12-2021_version2,2021.2.3,MacIntel,59.99880002,5da27a7689b88f0015b32142,61bbc5c79a1c66460f44041e,61bbc64bae5a1d964ba07bfa,,,-38.328125,-108.7226563,1,0,0,response5disk,0.6364,-0.3828125,-23.6015625,1,0,0,rectangle,-0.3828125,-23.6015625,1,0,0,2,1,"[87,71,52,123,36,80,60,150,82,38]",-0.3828125,-23.6015625,1,0,0,1,19,100,49,1,LightBlue,LightBlue.jpg,Red,Red.jpg,,
,,,,,,,,,,,,,,,,,,3,,,,,,,,,,,,,,,,,,,,,,,,,,,,,,,001,2021-12-16_23h07.49.696,jm_natural_scene_simialrity_2-12-2021_version2,2021.2.3,MacIntel,59.99880002,5da27a7689b88f0015b32142,61bbc5c79a1c66460f44041e,61bbc64bae5a1d964ba07bfa,,,133.6132813,45.3203125,1,0,0,response1disk,1.0824,22.7734375,5.140625,1,0,0,rectangle,22.7734375,5.140625,1,0,0,2,-4,"[87,71,52,123,36,80,60,150,82,38]",22.7734375,5.140625,1,0,0,1,20,101,45,1,Yellow,Yellow.jpg,Red,Red.jpg,,
,,,,,,,,,,,,,,,,,,-1,,,,,,,,,,,,,,,,,,,,,,,,,,,,,,,001,2021-12-16_23h07.49.696,jm_natural_scene_simialrity_2-12-2021_version2,2021.2.3,MacIntel,59.99880002,5da27a7689b88f0015b32142,61bbc5c79a1c66460f44041e,61bbc64bae5a1d964ba07bfa,,,-40.4296875,-105.390625,1,0,0,response5disk,0.7339,-8.0625,-11.84375,1,0,0,rectangle,-8.0625,-11.84375,1,0,0,2,2,"[87,71,52,123,36,80,60,150,82,38]",-8.0625,-11.84375,1,0,0,1,21,102,56,1,LightBlue,LightBlue.jpg,Yellow,Yellow.jpg,,
,,,,,,,,,,,,,,,,,,4,,,,,,,,,,,,,,,,,,,,,,,,,,,,,,,001,2021-12-16_23h07.49.696,jm_natural_scene_simialrity_2-12-2021_version2,2021.2.3,MacIntel,59.99880002,5da27a7689b88f0015b32142,61bbc5c79a1c66460f44041e,61bbc64bae5a1d964ba07bfa,,,70.05078125,100.9453125,1,0,0,response1disk,0.9152,18.75,20.41796875,1,0,0,rectangle,18.75,20.41796875,1,0,0,4,-1,"[87,71,52,123,36,80,60,150,82,38]",18.75,20.41796875,1,0,0,1,22,103,42,1,Pink,Pink.jpg,Pink,Pink.jpg,,
,,,,,,,,,,,,,,,,,,-1,,,,,,,,,,,,,,,,,,,,,,,,,,,,,,,001,2021-12-16_23h07.49.696,jm_natural_scene_simialrity_2-12-2021_version2,2021.2.3,MacIntel,59.99880002,5da27a7689b88f0015b32142,61bbc5c79a1c66460f44041e,61bbc64bae5a1d964ba07bfa,,,-42.62890625,-88.66015625,1,0,0,response5disk,1.4151,0.83203125,-12.90234375,1,0,0,rectangle,0.83203125,-12.90234375,1,0,0,4,-3,"[87,71,52,123,36,80,60,150,82,38]",0.83203125,-12.90234375,1,0,0,1,23,104,13,1,Yellow,Yellow.jpg,LightBlue,LightBlue.jpg,,
,,,,,,,,,,,,,,,,,,4,,,,,,,,,,,,,,,,,,,,,,,,,,,,,,,001,2021-12-16_23h07.49.696,jm_natural_scene_simialrity_2-12-2021_version2,2021.2.3,MacIntel,59.99880002,5da27a7689b88f0015b32142,61bbc5c79a1c66460f44041e,61bbc64bae5a1d964ba07bfa,,,46.8203125,113.5703125,1,0,0,response1disk,0.915,4.625,17.8515625,1,0,0,rectangle,4.625,17.8515625,1,0,0,4,-2,"[87,71,52,123,36,80,60,150,82,38]",4.625,17.8515625,1,0,0,1,24,105,35,1,LightBlue,LightBlue.jpg,LightBlue,LightBlue.jpg,,
,,,,,,,,,,,,,,,,,,4,,,,,,,,,,,,,,,,,,,,,,,,,,,,,,,001,2021-12-16_23h07.49.696,jm_natural_scene_simialrity_2-12-2021_version2,2021.2.3,MacIntel,59.99880002,5da27a7689b88f0015b32142,61bbc5c79a1c66460f44041e,61bbc64bae5a1d964ba07bfa,,,98.22265625,112.5664063,1,0,0,response1disk,0.9988,3.09765625,3.1328125,1,0,0,rectangle,3.09765625,3.1328125,1,0,0,4,-3,"[87,71,52,123,36,80,60,150,82,38]",3.09765625,3.1328125,1,0,0,1,25,106,18,1,LightGreen,LightGreen.jpg,DarkGreen,DarkGreen.jpg,,
,,,,,,,,,,,,,,,,,,3,,,,,,,,,,,,,,,,,,,,,,,,,,,,,,,001,2021-12-16_23h07.49.696,jm_natural_scene_simialrity_2-12-2021_version2,2021.2.3,MacIntel,59.99880002,5da27a7689b88f0015b32142,61bbc5c79a1c66460f44041e,61bbc64bae5a1d964ba07bfa,,,114.8398438,32.421875,1,0,0,response1disk,1.0155,-12.8671875,-9.0390625,1,0,0,rectangle,-12.8671875,-9.0390625,1,0,0,4,3,"[87,71,52,123,36,80,60,150,82,38]",-12.8671875,-9.0390625,1,0,0,1,26,107,27,1,DarkGreen,DarkGreen.jpg,DarkBlue,DarkBlue.jpg,,
,,,,,,,,,,,,,,,,,,-1,,,,,,,,,,,,,,,,,,,,,,,,,,,,,,,001,2021-12-16_23h07.49.696,jm_natural_scene_simialrity_2-12-2021_version2,2021.2.3,MacIntel,59.99880002,5da27a7689b88f0015b32142,61bbc5c79a1c66460f44041e,61bbc64bae5a1d964ba07bfa,,,-45.05859375,-85.37109375,1,0,0,response5disk,0.7319,-0.109375,-6.42578125,1,0,0,rectangle,-0.109375,-6.42578125,1,0,0,4,-2,"[87,71,52,123,36,80,60,150,82,38]",-0.109375,-6.42578125,1,0,0,1,27,108,57,1,DarkBlue,DarkBlue.jpg,Yellow,Yellow.jpg,,
,,,,,,,,,,,,,,,,,,-1,,,,,,,,,,,,,,,,,,,,,,,,,,,,,,,001,2021-12-16_23h07.49.696,jm_natural_scene_simialrity_2-12-2021_version2,2021.2.3,MacIntel,59.99880002,5da27a7689b88f0015b32142,61bbc5c79a1c66460f44041e,61bbc64bae5a1d964ba07bfa,,,-43.8046875,-111.8398438,1,0,0,response5disk,0.7803,7.6875,15.90234375,1,0,0,rectangle,7.6875,15.90234375,1,0,0,4,-4,"[87,71,52,123,36,80,60,150,82,38]",7.6875,15.90234375,1,0,0,1,28,109,28,1,DarkGreen,DarkGreen.jpg,Pink,Pink.jpg,,
,,,,,,,,,,,,,,,,,,4,,,,,,,,,,,,,,,,,,,,,,,,,,,,,,,001,2021-12-16_23h07.49.696,jm_natural_scene_simialrity_2-12-2021_version2,2021.2.3,MacIntel,59.99880002,5da27a7689b88f0015b32142,61bbc5c79a1c66460f44041e,61bbc64bae5a1d964ba07bfa,,,44.5625,88.34375,1,0,0,response1disk,0.6821,-21.90625,-1.21875,1,0,0,rectangle,-21.90625,-1.21875,1,0,0,4,1,"[87,71,52,123,36,80,60,150,82,38]",-21.90625,-1.21875,1,0,0,1,29,110,51,1,Pink,Pink.jpg,Red,Red.jpg,,
,,,,,,,,,,,,,,,,,,3,,,,,,,,,,,,,,,,,,,,,,,,,,,,,,,001,2021-12-16_23h07.49.696,jm_natural_scene_simialrity_2-12-2021_version2,2021.2.3,MacIntel,59.99880002,5da27a7689b88f0015b32142,61bbc5c79a1c66460f44041e,61bbc64bae5a1d964ba07bfa,,,68.19140625,30.109375,1,0,0,response1disk,0.982,8.609375,-5.60546875,1,0,0,rectangle,8.609375,-5.60546875,1,0,0,4,1,"[87,71,52,123,36,80,60,150,82,38]",8.609375,-5.60546875,1,0,0,1,30,111,80,1,Purple,Purple.jpg,Pink,Pink.jpg,,
,,,,,,,,,,,,,,,,,,-1,,,,,,,,,,,,,,,,,,,,,,,,,,,,,,,001,2021-12-16_23h07.49.696,jm_natural_scene_simialrity_2-12-2021_version2,2021.2.3,MacIntel,59.99880002,5da27a7689b88f0015b32142,61bbc5c79a1c66460f44041e,61bbc64bae5a1d964ba07bfa,,,-39.43359375,-98.4453125,1,0,0,response5disk,0.6341,2.20703125,17.10546875,1,0,0,rectangle,2.20703125,17.10546875,1,0,0,4,-2,"[87,71,52,123,36,80,60,150,82,38]",2.20703125,17.10546875,1,0,0,1,31,112,34,1,Turquiose,Turquiose.jpg,Purple,Purple.jpg,,
,,,,,,,,,,,,,,,,,,3,,,,,,,,,,,,,,,,,,,,,,,,,,,,,,,001,2021-12-16_23h07.49.696,jm_natural_scene_simialrity_2-12-2021_version2,2021.2.3,MacIntel,59.99880002,5da27a7689b88f0015b32142,61bbc5c79a1c66460f44041e,61bbc64bae5a1d964ba07bfa,,,95.9921875,42.4765625,1,0,0,response1disk,0.832,15.7578125,0.83984375,1,0,0,rectangle,15.7578125,0.83984375,1,0,0,4,-4,"[87,71,52,123,36,80,60,150,82,38]",15.7578125,0.83984375,1,0,0,1,32,113,36,1,LightBlue,LightBlue.jpg,DarkBlue,DarkBlue.jpg,,
,,,,,,,,,,,,,,,,,,3,,,,,,,,,,,,,,,,,,,,,,,,,,,,,,,001,2021-12-16_23h07.49.696,jm_natural_scene_simialrity_2-12-2021_version2,2021.2.3,MacIntel,59.99880002,5da27a7689b88f0015b32142,61bbc5c79a1c66460f44041e,61bbc64bae5a1d964ba07bfa,,,67.80859375,41.19140625,1,0,0,response1disk,0.6985,3.28515625,-24.3046875,1,0,0,rectangle,3.28515625,-24.3046875,1,0,0,4,-3,"[87,71,52,123,36,80,60,150,82,38]",3.28515625,-24.3046875,1,0,0,1,33,114,32,1,Turquiose,Turquiose.jpg,DarkBlue,DarkBlue.jpg,,
,,,,,,,,,,,,,,,,,,4,,,,,,,,,,,,,,,,,,,,,,,,,,,,,,,001,2021-12-16_23h07.49.696,jm_natural_scene_simialrity_2-12-2021_version2,2021.2.3,MacIntel,59.99880002,5da27a7689b88f0015b32142,61bbc5c79a1c66460f44041e,61bbc64bae5a1d964ba07bfa,,,47.82421875,71.04296875,1,0,0,response1disk,0.8012,12.98046875,10.125,1,0,0,rectangle,12.98046875,10.125,1,0,0,4,-2,"[87,71,52,123,36,80,60,150,82,38]",12.98046875,10.125,1,0,0,1,34,115,9,1,Yellow,Yellow.jpg,Yellow,Yellow.jpg,,
,,,,,,,,,,,,,,,,,,-1,,,,,,,,,,,,,,,,,,,,,,,,,,,,,,,001,2021-12-16_23h07.49.696,jm_natural_scene_simialrity_2-12-2021_version2,2021.2.3,MacIntel,59.99880002,5da27a7689b88f0015b32142,61bbc5c79a1c66460f44041e,61bbc64bae5a1d964ba07bfa,,,-39.54296875,-89.1015625,1,0,0,response5disk,0.6331,-4.82421875,1.7890625,1,0,0,rectangle,-4.82421875,1.7890625,1,0,0,4,-4,"[87,71,52,123,36,80,60,150,82,38]",-4.82421875,1.7890625,1,0,0,1,35,116,2,1,Red,Red.jpg,LightGreen,LightGreen.jpg,,
,,,,,,,,,,,,,,,,,,-1,,,,,,,,,,,,,,,,,,,,,,,,,,,,,,,001,2021-12-16_23h07.49.696,jm_natural_scene_simialrity_2-12-2021_version2,2021.2.3,MacIntel,59.99880002,5da27a7689b88f0015b32142,61bbc5c79a1c66460f44041e,61bbc64bae5a1d964ba07bfa,,,-46.41796875,-99.9140625,1,0,0,response5disk,0.6658,9.21875,-2.3828125,1,0,0,rectangle,9.21875,-2.3828125,1,0,0,4,3,"[87,71,52,123,36,80,60,150,82,38]",9.21875,-2.3828125,1,0,0,1,36,117,14,1,Yellow,Yellow.jpg,DarkBlue,DarkBlue.jpg,,
,,,,,,,,,,,,,,,,,,-1,,,,,,,,,,,,,,,,,,,,,,,,,,,,,,,001,2021-12-16_23h07.49.696,jm_natural_scene_simialrity_2-12-2021_version2,2021.2.3,MacIntel,59.99880002,5da27a7689b88f0015b32142,61bbc5c79a1c66460f44041e,61bbc64bae5a1d964ba07bfa,,,-52.92578125,-71.48046875,1,0,0,response5disk,0.7167,-7.6875,15.5078125,1,0,0,rectangle,-7.6875,15.5078125,1,0,0,4,-2,"[87,71,52,123,36,80,60,150,82,38]",-7.6875,15.5078125,1,0,0,1,37,118,78,1,Pink,Pink.jpg,DarkBlue,DarkBlue.jpg,,
,,,,,,,,,,,,,,,,,,3,,,,,,,,,,,,,,,,,,,,,,,,,,,,,,,001,2021-12-16_23h07.49.696,jm_natural_scene_simialrity_2-12-2021_version2,2021.2.3,MacIntel,59.99880002,5da27a7689b88f0015b32142,61bbc5c79a1c66460f44041e,61bbc64bae5a1d964ba07bfa,,,74.7734375,41.2734375,1,0,0,response1disk,0.883,2.203125,10.35546875,1,0,0,rectangle,2.203125,10.35546875,1,0,0,4,1,"[87,71,52,123,36,80,60,150,82,38]",2.203125,10.35546875,1,0,0,1,38,119,68,1,DarkBlue,DarkBlue.jpg,DarkGreen,DarkGreen.jpg,,
,,,,,,,,,,,,,,,,,,-1,,,,,,,,,,,,,,,,,,,,,,,,,,,,,,,001,2021-12-16_23h07.49.696,jm_natural_scene_simialrity_2-12-2021_version2,2021.2.3,MacIntel,59.99880002,5da27a7689b88f0015b32142,61bbc5c79a1c66460f44041e,61bbc64bae5a1d964ba07bfa,,,-26.08203125,-72.50390625,1,0,0,response5disk,0.8334,-8.4765625,-24.5546875,1,0,0,rectangle,-8.4765625,-24.5546875,1,0,0,4,-2,"[87,71,52,123,36,80,60,150,82,38]",-8.4765625,-24.5546875,1,0,0,1,39,120,22,1,LightGreen,LightGreen.jpg,Pink,Pink.jpg,,
,,,,,,,,,,,,,,,,,,3,,,,,,,,,,,,,,,,,,,,,,,,,,,,,,,001,2021-12-16_23h07.49.696,jm_natural_scene_simialrity_2-12-2021_version2,2021.2.3,MacIntel,59.99880002,5da27a7689b88f0015b32142,61bbc5c79a1c66460f44041e,61bbc64bae5a1d964ba07bfa,,,72.29296875,48.7890625,1,0,0,response1disk,0.8016,5.3203125,4.46484375,1,0,0,rectangle,5.3203125,4.46484375,1,0,0,4,1,"[87,71,52,123,36,80,60,150,82,38]",5.3203125,4.46484375,1,0,0,1,40,121,58,1,Pink,Pink.jpg,Yellow,Yellow.jpg,,
,,,,,,,,,,,,,,,,,,-1,,,,,,,,,,,,,,,,,,,,,,,,,,,,,,,001,2021-12-16_23h07.49.696,jm_natural_scene_simialrity_2-12-2021_version2,2021.2.3,MacIntel,59.99880002,5da27a7689b88f0015b32142,61bbc5c79a1c66460f44041e,61bbc64bae5a1d964ba07bfa,,,-39.29296875,-104.6875,1,0,0,response5disk,1.1998,2.234375,-12.24609375,1,0,0,rectangle,56.15625,-101.0195313,1,0,0,1,1,"[87,71,52,123,36,80,60,150,82,38]",7.2109375,-1.8671875,1,0,0,1,41,122,10,1,Yellow,Yellow.jpg,LightGreen,LightGreen.jpg,response3disk_3,rectangle
,,,,,,,,,,,,,,,,,,-1,,,,,,,,,,,,,,,,,,,,,,,,,,,,,,,001,2021-12-16_23h07.49.696,jm_natural_scene_simialrity_2-12-2021_version2,2021.2.3,MacIntel,59.99880002,5da27a7689b88f0015b32142,61bbc5c79a1c66460f44041e,61bbc64bae5a1d964ba07bfa,,,-43.64453125,-104.2578125,1,0,0,response5disk,1.1158,4.70703125,-2.16796875,1,0,0,rectangle,4.70703125,-2.16796875,1,0,0,1,-4,"[87,71,52,123,36,80,60,150,82,38]",4.70703125,-2.16796875,1,0,0,1,42,123,67,1,LightBlue,LightBlue.jpg,DarkGreen,DarkGreen.jpg,,
,,,,,,,,,,,,,,,,,,3,,,,,,,,,,,,,,,,,,,,,,,,,,,,,,,001,2021-12-16_23h07.49.696,jm_natural_scene_simialrity_2-12-2021_version2,2021.2.3,MacIntel,59.99880002,5da27a7689b88f0015b32142,61bbc5c79a1c66460f44041e,61bbc64bae5a1d964ba07bfa,,,89.40625,83.4453125,1,0,0,response1disk,1.3013,-14.796875,14.3125,1,0,0,rectangle,-14.796875,14.3125,1,0,0,1,-4,"[87,71,52,123,36,80,60,150,82,38]",-14.796875,14.3125,1,0,0,1,43,124,15,1,Yellow,Yellow.jpg,Pink,Pink.jpg,,
,,,,,,,,,,,,,,,,,,3,,,,,,,,,,,,,,,,,,,,,,,,,,,,,,,001,2021-12-16_23h07.49.696,jm_natural_scene_simialrity_2-12-2021_version2,2021.2.3,MacIntel,59.99880002,5da27a7689b88f0015b32142,61bbc5c79a1c66460f44041e,61bbc64bae5a1d964ba07bfa,,,112.890625,60.05078125,1,0,0,response1disk,1.3302,1.33203125,-19.70703125,1,0,0,rectangle,1.33203125,-19.70703125,1,0,0,1,-4,"[87,71,52,123,36,80,60,150,82,38]",1.33203125,-19.70703125,1,0,0,1,44,125,25,1,DarkGreen,DarkGreen.jpg,Turquiose,Turquiose.jpg,,
,,,,,,,,,,,,,,,,,,3,,,,,,,,,,,,,,,,,,,,,,,,,,,,,,,001,2021-12-16_23h07.49.696,jm_natural_scene_simialrity_2-12-2021_version2,2021.2.3,MacIntel,59.99880002,5da27a7689b88f0015b32142,61bbc5c79a1c66460f44041e,61bbc64bae5a1d964ba07bfa,,,101.6484375,47.19140625,1,0,0,response1disk,1.6152,1.19140625,-8.48046875,1,0,0,rectangle,1.19140625,-8.48046875,1,0,0,1,-2,"[87,71,52,123,36,80,60,150,82,38]",1.19140625,-8.48046875,1,0,0,1,45,126,66,1,Turquiose,Turquiose.jpg,DarkGreen,DarkGreen.jpg,,
,,,,,,,,,,,,,,,,,,3,,,,,,,,,,,,,,,,,,,,,,,,,,,,,,,001,2021-12-16_23h07.49.696,jm_natural_scene_simialrity_2-12-2021_version2,2021.2.3,MacIntel,59.99880002,5da27a7689b88f0015b32142,61bbc5c79a1c66460f44041e,61bbc64bae5a1d964ba07bfa,,,85.3515625,44.6875,1,0,0,response1disk,1.4851,7.1875,-12.60546875,1,0,0,rectangle,7.1875,-12.60546875,1,0,0,1,-3,"[87,71,52,123,36,80,60,150,82,38]",7.1875,-12.60546875,1,0,0,1,46,127,31,1,Turquiose,Turquiose.jpg,LightBlue,LightBlue.jpg,,
,,,,,,,,,,,,,,,,,,-1,,,,,,,,,,,,,,,,,,,,,,,,,,,,,,,001,2021-12-16_23h07.49.696,jm_natural_scene_simialrity_2-12-2021_version2,2021.2.3,MacIntel,59.99880002,5da27a7689b88f0015b32142,61bbc5c79a1c66460f44041e,61bbc64bae5a1d964ba07bfa,,,-38.82421875,-97.00390625,1,0,0,response5disk,1.9493,13.96484375,-8.05078125,1,0,0,rectangle,13.96484375,-8.05078125,1,0,0,1,2,"[87,71,52,123,36,80,60,150,82,38]",13.96484375,-8.05078125,1,0,0,1,47,128,37,1,LightBlue,LightBlue.jpg,Pink,Pink.jpg,,
,,,,,,,,,,,,,,,,,,-1,,,,,,,,,,,,,,,,,,,,,,,,,,,,,,,001,2021-12-16_23h07.49.696,jm_natural_scene_simialrity_2-12-2021_version2,2021.2.3,MacIntel,59.99880002,5da27a7689b88f0015b32142,61bbc5c79a1c66460f44041e,61bbc64bae5a1d964ba07bfa,,,-21.23828125,-89.73046875,1,0,0,response5disk,1.2319,-1.0625,-24.5,1,0,0,rectangle,-1.0625,-24.5,1,0,0,1,-1,"[87,71,52,123,36,80,60,150,82,38]",-1.0625,-24.5,1,0,0,1,48,129,64,1,Pink,Pink.jpg,LightGreen,LightGreen.jpg,,
,,,,,,,,,,,,,,,,,,-1,,,,,,,,,,,,,,,,,,,,,,,,,,,,,,,001,2021-12-16_23h07.49.696,jm_natural_scene_simialrity_2-12-2021_version2,2021.2.3,MacIntel,59.99880002,5da27a7689b88f0015b32142,61bbc5c79a1c66460f44041e,61bbc64bae5a1d964ba07bfa,,,-47.9375,-105.0585938,1,0,0,response5disk,0.8654,-0.6015625,12.2578125,1,0,0,rectangle,-0.6015625,12.2578125,1,0,0,1,-1,"[87,71,52,123,36,80,60,150,82,38]",-0.6015625,12.2578125,1,0,0,1,49,130,46,1,LightGreen,LightGreen.jpg,Red,Red.jpg,,
,,,,,,,,,,,,,,,,,,4,,,,,,,,,,,,,,,,,,,,,,,,,,,,,,,001,2021-12-16_23h07.49.696,jm_natural_scene_simialrity_2-12-2021_version2,2021.2.3,MacIntel,59.99880002,5da27a7689b88f0015b32142,61bbc5c79a1c66460f44041e,61bbc64bae5a1d964ba07bfa,,,47.27734375,82.6015625,1,0,0,response1disk,1.1161,15.56640625,9.33984375,1,0,0,rectangle,15.56640625,9.33984375,1,0,0,1,3,"[87,71,52,123,36,80,60,150,82,38]",15.56640625,9.33984375,1,0,0,1,50,131,30,1,Turquiose,Turquiose.jpg,Turquiose,Turquiose.jpg,,
,,,,,,,,,,,,,,,,,,4,,,,,,,,,,,,,,,,,,,,,,,,,,,,,,,001,2021-12-16_23h07.49.696,jm_natural_scene_simialrity_2-12-2021_version2,2021.2.3,MacIntel,59.99880002,5da27a7689b88f0015b32142,61bbc5c79a1c66460f44041e,61bbc64bae5a1d964ba07bfa,,,59.21875,106.4257813,1,0,0,response1disk,0.6818,9.9375,-1.69921875,1,0,0,rectangle,9.9375,-1.69921875,1,0,0,1,-3,"[87,71,52,123,36,80,60,150,82,38]",9.9375,-1.69921875,1,0,0,1,51,132,24,1,DarkGreen,DarkGreen.jpg,DarkGreen,DarkGreen.jpg,,
,,,,,,,,,,,,,,,,,,3,,,,,,,,,,,,,,,,,,,,,,,,,,,,,,,001,2021-12-16_23h07.49.696,jm_natural_scene_simialrity_2-12-2021_version2,2021.2.3,MacIntel,59.99880002,5da27a7689b88f0015b32142,61bbc5c79a1c66460f44041e,61bbc64bae5a1d964ba07bfa,,,78.49609375,31.6953125,1,0,0,response1disk,0.8675,16.97265625,-14.82421875,1,0,0,rectangle,16.97265625,-14.82421875,1,0,0,1,2,"[87,71,52,123,36,80,60,150,82,38]",16.97265625,-14.82421875,1,0,0,1,52,133,79,1,Purple,Purple.jpg,DarkBlue,DarkBlue.jpg,,
,,,,,,,,,,,,,,,,,,-1,,,,,,,,,,,,,,,,,,,,,,,,,,,,,,,001,2021-12-16_23h07.49.696,jm_natural_scene_simialrity_2-12-2021_version2,2021.2.3,MacIntel,59.99880002,5da27a7689b88f0015b32142,61bbc5c79a1c66460f44041e,61bbc64bae5a1d964ba07bfa,,,-41.73828125,-109.6679688,1,0,0,response5disk,2.316,-2.51171875,-8.4140625,1,0,0,rectangle,-2.51171875,-8.4140625,1,0,0,1,-3,"[87,71,52,123,36,80,60,150,82,38]",-2.51171875,-8.4140625,1,0,0,1,53,134,54,1,DarkGreen,DarkGreen.jpg,Yellow,Yellow.jpg,,
,,,,,,,,,,,,,,,,,,-1,,,,,,,,,,,,,,,,,,,,,,,,,,,,,,,001,2021-12-16_23h07.49.696,jm_natural_scene_simialrity_2-12-2021_version2,2021.2.3,MacIntel,59.99880002,5da27a7689b88f0015b32142,61bbc5c79a1c66460f44041e,61bbc64bae5a1d964ba07bfa,,,-35.234375,-107.9960938,1,0,0,response5disk,1.9667,5.87109375,-5.58984375,1,0,0,rectangle,5.87109375,-5.58984375,1,0,0,1,2,"[87,71,52,123,36,80,60,150,82,38]",5.87109375,-5.58984375,1,0,0,1,54,135,3,1,Red,Red.jpg,DarkGreen,DarkGreen.jpg,,
,,,,,,,,,,,,,,,,,,-1,,,,,,,,,,,,,,,,,,,,,,,,,,,,,,,001,2021-12-16_23h07.49.696,jm_natural_scene_simialrity_2-12-2021_version2,2021.2.3,MacIntel,59.99880002,5da27a7689b88f0015b32142,61bbc5c79a1c66460f44041e,61bbc64bae5a1d964ba07bfa,,,-45.390625,-120.5585938,1,0,0,response5disk,0.9825,-3.0234375,-7.8984375,1,0,0,rectangle,-3.0234375,-7.8984375,1,0,0,1,-4,"[87,71,52,123,36,80,60,150,82,38]",-3.0234375,-7.8984375,1,0,0,1,55,136,73,1,Pink,Pink.jpg,Turquiose,Turquiose.jpg,,
,,,,,,,,,,,,,,,,,,-1,,,,,,,,,,,,,,,,,,,,,,,,,,,,,,,001,2021-12-16_23h07.49.696,jm_natural_scene_simialrity_2-12-2021_version2,2021.2.3,MacIntel,59.99880002,5da27a7689b88f0015b32142,61bbc5c79a1c66460f44041e,61bbc64bae5a1d964ba07bfa,,,-41.05859375,-101.8125,1,0,0,response5disk,0.7502,-13.7265625,-18.6953125,1,0,0,rectangle,-13.7265625,-18.6953125,1,0,0,1,2,"[87,71,52,123,36,80,60,150,82,38]",-13.7265625,-18.6953125,1,0,0,1,56,137,29,1,DarkGreen,DarkGreen.jpg,Purple,Purple.jpg,,
,,,,,,,,,,,,,,,,,,-1,,,,,,,,,,,,,,,,,,,,,,,,,,,,,,,001,2021-12-16_23h07.49.696,jm_natural_scene_simialrity_2-12-2021_version2,2021.2.3,MacIntel,59.99880002,5da27a7689b88f0015b32142,61bbc5c79a1c66460f44041e,61bbc64bae5a1d964ba07bfa,,,-47.171875,-100.1328125,1,0,0,response5disk,0.6155,-1.87890625,-10.703125,1,0,0,rectangle,-1.87890625,-10.703125,1,0,0,1,-3,"[87,71,52,123,36,80,60,150,82,38]",-1.87890625,-10.703125,1,0,0,1,57,138,69,1,Pink,Pink.jpg,DarkGreen,DarkGreen.jpg,,
,,,,,,,,,,,,,,,,,,4,,,,,,,,,,,,,,,,,,,,,,,,,,,,,,,001,2021-12-16_23h07.49.696,jm_natural_scene_simialrity_2-12-2021_version2,2021.2.3,MacIntel,59.99880002,5da27a7689b88f0015b32142,61bbc5c79a1c66460f44041e,61bbc64bae5a1d964ba07bfa,,,60.77734375,97.54296875,1,0,0,response1disk,0.6675,-6.28125,2.546875,1,0,0,rectangle,-6.28125,2.546875,1,0,0,1,3,"[87,71,52,123,36,80,60,150,82,38]",-6.28125,2.546875,1,0,0,1,58,139,17,1,LightGreen,LightGreen.jpg,LightGreen,LightGreen.jpg,,
,,,,,,,,,,,,,,,,,,1,,,,,,,,,,,,,,,,,,,,,,,,,,,,,,,001,2021-12-16_23h07.49.696,jm_natural_scene_simialrity_2-12-2021_version2,2021.2.3,MacIntel,59.99880002,5da27a7689b88f0015b32142,61bbc5c79a1c66460f44041e,61bbc64bae5a1d964ba07bfa,,,44.75390625,-86.00390625,1,0,0,response3disk,1.6822,22.1484375,-18.16015625,1,0,0,rectangle,22.1484375,-18.16015625,1,0,0,2,-2,"[87,71,52,123,36,80,60,150,82,38]",22.1484375,-18.16015625,1,0,0,1,59,140,59,1,Purple,Purple.jpg,Yellow,Yellow.jpg,,
,,,,,,,,,,,,,,,,,,-1,,,,,,,,,,,,,,,,,,,,,,,,,,,,,,,001,2021-12-16_23h07.49.696,jm_natural_scene_simialrity_2-12-2021_version2,2021.2.3,MacIntel,59.99880002,5da27a7689b88f0015b32142,61bbc5c79a1c66460f44041e,61bbc64bae5a1d964ba07bfa,,,-36.0859375,-115.6328125,1,0,0,response5disk,0.5326,-9.18359375,-6.24609375,1,0,0,rectangle,-9.18359375,-6.24609375,1,0,0,2,-4,"[87,71,52,123,36,80,60,150,82,38]",-9.18359375,-6.24609375,1,0,0,1,60,141,65,1,Purple,Purple.jpg,LightGreen,LightGreen.jpg,,
,,,,,,,,,,,,,,,,,,-1,,,,,,,,,,,,,,,,,,,,,,,,,,,,,,,001,2021-12-16_23h07.49.696,jm_natural_scene_simialrity_2-12-2021_version2,2021.2.3,MacIntel,59.99880002,5da27a7689b88f0015b32142,61bbc5c79a1c66460f44041e,61bbc64bae5a1d964ba07bfa,,,-57.44921875,-110.5,1,0,0,response5disk,0.6335,-7.87109375,-19.35546875,1,0,0,rectangle,-7.87109375,-19.35546875,1,0,0,2,-4,"[87,71,52,123,36,80,60,150,82,38]",-7.87109375,-19.35546875,1,0,0,1,61,142,48,1,Turquiose,Turquiose.jpg,Red,Red.jpg,,
,,,,,,,,,,,,,,,,,,1,,,,,,,,,,,,,,,,,,,,,,,,,,,,,,,001,2021-12-16_23h07.49.696,jm_natural_scene_simialrity_2-12-2021_version2,2021.2.3,MacIntel,59.99880002,5da27a7689b88f0015b32142,61bbc5c79a1c66460f44041e,61bbc64bae5a1d964ba07bfa,,,23.796875,-120.015625,1,0,0,response3disk,0.951,4.39453125,-18.9609375,1,0,0,rectangle,4.39453125,-18.9609375,1,0,0,2,1,"[87,71,52,123,36,80,60,150,82,38]",4.39453125,-18.9609375,1,0,0,1,62,143,71,1,LightBlue,LightBlue.jpg,Turquiose,Turquiose.jpg,,
,,,,,,,,,,,,,,,,,,3,,,,,,,,,,,,,,,,,,,,,,,,,,,,,,,001,2021-12-16_23h07.49.696,jm_natural_scene_simialrity_2-12-2021_version2,2021.2.3,MacIntel,59.99880002,5da27a7689b88f0015b32142,61bbc5c79a1c66460f44041e,61bbc64bae5a1d964ba07bfa,,,109.5625,41.921875,1,0,0,response1disk,1.5153,-3.8046875,24.76171875,1,0,0,rectangle,-3.8046875,24.76171875,1,0,0,2,1,"[87,71,52,123,36,80,60,150,82,38]",-3.8046875,24.76171875,1,0,0,1,63,144,72,1,DarkBlue,DarkBlue.jpg,Turquiose,Turquiose.jpg,,
,,,,,,,,,,,,,,,,,,-1,,,,,,,,,,,,,,,,,,,,,,,,,,,,,,,001,2021-12-16_23h07.49.696,jm_natural_scene_simialrity_2-12-2021_version2,2021.2.3,MacIntel,59.99880002,5da27a7689b88f0015b32142,61bbc5c79a1c66460f44041e,61bbc64bae5a1d964ba07bfa,,,-34.84765625,-66.74609375,1,0,0,response5disk,0.632,-4.53125,4.33203125,1,0,0,rectangle,-4.53125,4.33203125,1,0,0,2,2,"[87,71,52,123,36,80,60,150,82,38]",-4.53125,4.33203125,1,0,0,1,64,145,11,1,Yellow,Yellow.jpg,DarkGreen,DarkGreen.jpg,,
,,,,,,,,,,,,,,,,,,-1,,,,,,,,,,,,,,,,,,,,,,,,,,,,,,,001,2021-12-16_23h07.49.696,jm_natural_scene_simialrity_2-12-2021_version2,2021.2.3,MacIntel,59.99880002,5da27a7689b88f0015b32142,61bbc5c79a1c66460f44041e,61bbc64bae5a1d964ba07bfa,,,-27.40625,-79.5625,1,0,0,response5disk,0.5169,-11.484375,10.3828125,1,0,0,rectangle,-11.484375,10.3828125,1,0,0,2,1,"[87,71,52,123,36,80,60,150,82,38]",-11.484375,10.3828125,1,0,0,1,65,146,6,1,Red,Red.jpg,DarkBlue,DarkBlue.jpg,,
,,,,,,,,,,,,,,,,,,-1,,,,,,,,,,,,,,,,,,,,,,,,,,,,,,,001,2021-12-16_23h07.49.696,jm_natural_scene_simialrity_2-12-2021_version2,2021.2.3,MacIntel,59.99880002,5da27a7689b88f0015b32142,61bbc5c79a1c66460f44041e,61bbc64bae5a1d964ba07bfa,,,-29.75390625,-56.30859375,1,0,0,response5disk,0.4997,3.90625,10.36328125,1,0,0,rectangle,3.90625,10.36328125,1,0,0,2,-4,"[87,71,52,123,36,80,60,150,82,38]",3.90625,10.36328125,1,0,0,1,66,147,33,1,Turquiose,Turquiose.jpg,Pink,Pink.jpg,,
,,,,,,,,,,,,,,,,,,2,,,,,,,,,,,,,,,,,,,,,,,,,,,,,,,001,2021-12-16_23h07.49.696,jm_natural_scene_simialrity_2-12-2021_version2,2021.2.3,MacIntel,59.99880002,5da27a7689b88f0015b32142,61bbc5c79a1c66460f44041e,61bbc64bae5a1d964ba07bfa,,,87.421875,-32.36328125,1,0,0,response3disk,1.1026,7.17578125,3.76171875,1,0,0,rectangle,7.17578125,3.76171875,1,0,0,2,-3,"[87,71,52,123,36,80,60,150,82,38]",7.17578125,3.76171875,1,0,0,1,67,148,77,1,Purple,Purple.jpg,LightBlue,LightBlue.jpg,,
,,,,,,,,,,,,,,,,,,4,,,,,,,,,,,,,,,,,,,,,,,,,,,,,,,001,2021-12-16_23h07.49.696,jm_natural_scene_simialrity_2-12-2021_version2,2021.2.3,MacIntel,59.99880002,5da27a7689b88f0015b32142,61bbc5c79a1c66460f44041e,61bbc64bae5a1d964ba07bfa,,,83.65234375,83.8125,1,0,0,response1disk,0.6171,-0.21875,-18.609375,1,0,0,rectangle,-41.04296875,-132.53125,1,0,0,-1,-1,"[87,71,52,123,36,80,60,150,82,38]",5.66015625,-0.828125,1,0,0,1,68,149,0,1,Red,Red.jpg,Red,Red.jpg,response5disk_3,rectangle
,,,,,,,,,,,,,,,,,,-1,,,,,,,,,,,,,,,,,,,,,,,,,,,,,,,001,2021-12-16_23h07.49.696,jm_natural_scene_simialrity_2-12-2021_version2,2021.2.3,MacIntel,59.99880002,5da27a7689b88f0015b32142,61bbc5c79a1c66460f44041e,61bbc64bae5a1d964ba07bfa,,,-31.23046875,-83.5078125,1,0,0,response5disk,0.8337,23.32421875,4.359375,1,0,0,rectangle,23.32421875,4.359375,1,0,0,-1,-1,"[87,71,52,123,36,80,60,150,82,38]",23.32421875,4.359375,1,0,0,1,69,150,50,1,DarkBlue,DarkBlue.jpg,Red,Red.jpg,,
,,,,,,,,,,,,,,,,,,1,,,,,,,,,,,,,,,,,,,,,,,,,,,,,,,001,2021-12-16_23h07.49.696,jm_natural_scene_simialrity_2-12-2021_version2,2021.2.3,MacIntel,59.99880002,5da27a7689b88f0015b32142,61bbc5c79a1c66460f44041e,61bbc64bae5a1d964ba07bfa,,,52.07421875,-87.11328125,1,0,0,response3disk,1.8524,-4.72265625,-4.56640625,1,0,0,rectangle,-4.72265625,-4.56640625,1,0,0,-1,-2,"[87,71,52,123,36,80,60,150,82,38]",-4.72265625,-4.56640625,1,0,0,1,70,151,52,1,Purple,Purple.jpg,Red,Red.jpg,,
,,,,,,,,,,,,,,,,,,-1,,,,,,,,,,,,,,,,,,,,,,,,,,,,,,,001,2021-12-16_23h07.49.696,jm_natural_scene_simialrity_2-12-2021_version2,2021.2.3,MacIntel,59.99880002,5da27a7689b88f0015b32142,61bbc5c79a1c66460f44041e,61bbc64bae5a1d964ba07bfa,,,-42.66015625,-95.52734375,1,0,0,response5disk,0.5004,-12.6015625,-20.03515625,1,0,0,rectangle,-12.6015625,-20.03515625,1,0,0,-1,-3,"[87,71,52,123,36,80,60,150,82,38]",-12.6015625,-20.03515625,1,0,0,1,71,152,40,1,DarkBlue,DarkBlue.jpg,Pink,Pink.jpg,,
,,,,,,,,,,,,,,,,,,3,,,,,,,,,,,,,,,,,,,,,,,,,,,,,,,001,2021-12-16_23h07.49.696,jm_natural_scene_simialrity_2-12-2021_version2,2021.2.3,MacIntel,59.99880002,5da27a7689b88f0015b32142,61bbc5c79a1c66460f44041e,61bbc64bae5a1d964ba07bfa,,,86.85546875,34.26171875,1,0,0,response1disk,0.9656,21.83203125,-2.921875,1,0,0,rectangle,21.83203125,-2.921875,1,0,0,-1,1,"[87,71,52,123,36,80,60,150,82,38]",21.83203125,-2.921875,1,0,0,1,72,153,61,1,Turquiose,Turquiose.jpg,LightGreen,LightGreen.jpg,,
,,,,,,,,,,,,,,,,,,1,,,,,,,,,,,,,,,,,,,,,,,,,,,,,,,001,2021-12-16_23h07.49.696,jm_natural_scene_simialrity_2-12-2021_version2,2021.2.3,MacIntel,59.99880002,5da27a7689b88f0015b32142,61bbc5c79a1c66460f44041e,61bbc64bae5a1d964ba07bfa,,,41.30859375,-103.5625,1,0,0,response3disk,1.0153,12.05078125,4.66796875,1,0,0,rectangle,12.05078125,4.66796875,1,0,0,-1,-3,"[87,71,52,123,36,80,60,150,82,38]",12.05078125,4.66796875,1,0,0,1,73,154,62,1,LightBlue,LightBlue.jpg,LightGreen,LightGreen.jpg,,
,,,,,,,,,,,,,,,,,,3,,,,,,,,,,,,,,,,,,,,,,,,,,,,,,,001,2021-12-16_23h07.49.696,jm_natural_scene_simialrity_2-12-2021_version2,2021.2.3,MacIntel,59.99880002,5da27a7689b88f0015b32142,61bbc5c79a1c66460f44041e,61bbc64bae5a1d964ba07bfa,,,111.3359375,33.15625,1,0,0,response1disk,0.7813,-1.8984375,-12.33203125,1,0,0,rectangle,-1.8984375,-12.33203125,1,0,0,-1,-4,"[87,71,52,123,36,80,60,150,82,38]",-1.8984375,-12.33203125,1,0,0,1,74,155,63,1,DarkBlue,DarkBlue.jpg,LightGreen,LightGreen.jpg,,
,,,,,,,,,,,,,,,,,,1,,,,,,,,,,,,,,,,,,,,,,,,,,,,,,,001,2021-12-16_23h07.49.696,jm_natural_scene_simialrity_2-12-2021_version2,2021.2.3,MacIntel,59.99880002,5da27a7689b88f0015b32142,61bbc5c79a1c66460f44041e,61bbc64bae5a1d964ba07bfa,,,32.203125,-101.1171875,1,0,0,response3disk,0.9512,5.0390625,3.625,1,0,0,rectangle,5.0390625,3.625,1,0,0,-1,-4,"[87,71,52,123,36,80,60,150,82,38]",5.0390625,3.625,1,0,0,1,75,156,8,1,Red,Red.jpg,Purple,Purple.jpg,,
,,,,,,,,,,,,,,,,,,-1,,,,,,,,,,,,,,,,,,,,,,,,,,,,,,,001,2021-12-16_23h07.49.696,jm_natural_scene_simialrity_2-12-2021_version2,2021.2.3,MacIntel,59.99880002,5da27a7689b88f0015b32142,61bbc5c79a1c66460f44041e,61bbc64bae5a1d964ba07bfa,,,-25.3359375,-77.91015625,1,0,0,response5disk,0.6177,9.68359375,-2.42578125,1,0,0,rectangle,9.68359375,-2.42578125,1,0,0,-1,2,"[87,71,52,123,36,80,60,150,82,38]",9.68359375,-2.42578125,1,0,0,1,76,157,23,1,LightGreen,LightGreen.jpg,Purple,Purple.jpg,,
,,,,,,,,,,,,,,,,,,-1,,,,,,,,,,,,,,,,,,,,,,,,,,,,,,,001,2021-12-16_23h07.49.696,jm_natural_scene_simialrity_2-12-2021_version2,2021.2.3,MacIntel,59.99880002,5da27a7689b88f0015b32142,61bbc5c79a1c66460f44041e,61bbc64bae5a1d964ba07bfa,,,-43.5234375,-112.8632813,1,0,0,response5disk,1.1665,-9.046875,-8.57421875,1,0,0,rectangle,-9.046875,-8.57421875,1,0,0,-1,2,"[87,71,52,123,36,80,60,150,82,38]",-9.046875,-8.57421875,1,0,0,1,77,158,75,1,DarkBlue,DarkBlue.jpg,LightBlue,LightBlue.jpg,,
,,,,,,,,,,,,,,,,,,3,,,,,,,,,,,,,,,,,,,,,,,,,,,,,,,001,2021-12-16_23h07.49.696,jm_natural_scene_simialrity_2-12-2021_version2,2021.2.3,MacIntel,59.99880002,5da27a7689b88f0015b32142,61bbc5c79a1c66460f44041e,61bbc64bae5a1d964ba07bfa,,,91.29296875,42.18359375,1,0,0,response1disk,1.3149,13.40625,6.5703125,1,0,0,rectangle,13.40625,6.5703125,1,0,0,-1,-4,"[87,71,52,123,36,80,60,150,82,38]",13.40625,6.5703125,1,0,0,1,78,159,60,1,DarkGreen,DarkGreen.jpg,LightGreen,LightGreen.jpg,,
,,,,,,,,,,,,,,,,,,4,,,,,,,,,,,,,,,,,,,,,,,,,,,,,,,001,2021-12-16_23h07.49.696,jm_natural_scene_simialrity_2-12-2021_version2,2021.2.3,MacIntel,59.99880002,5da27a7689b88f0015b32142,61bbc5c79a1c66460f44041e,61bbc64bae5a1d964ba07bfa,,,57.81640625,108.5820313,1,0,0,response1disk,0.7002,-14.15234375,-4.05859375,1,0,0,rectangle,-14.15234375,-4.05859375,1,0,0,-1,1,"[87,71,52,123,36,80,60,150,82,38]",-14.15234375,-4.05859375,1,0,0,1,79,160,7,1,Red,Red.jpg,Pink,Pink.jpg,,
,,,,,,,,,,,,,,,,,,-1,,,,,,,,,,,,,,,,,,,,,,,,,,,,,,,001,2021-12-16_23h07.49.696,jm_natural_scene_simialrity_2-12-2021_version2,2021.2.3,MacIntel,59.99880002,5da27a7689b88f0015b32142,61bbc5c79a1c66460f44041e,61bbc64bae5a1d964ba07bfa,,,-70.046875,-124.8164063,1,0,0,response5disk,1.5977,4.4375,-15.6640625,1,0,0,rectangle,4.4375,-15.6640625,1,0,0,-1,-4,"[87,71,52,123,36,80,60,150,82,38]",4.4375,-15.6640625,1,0,0,1,80,161,16,1,Yellow,Yellow.jpg,Purple,Purple.jpg,,
